05/04/2022	20:57:47	Ver.	4.1	UNKNOWN
Optical Delay	678.996401	Delta X		0.078125	Sweeps	1	Scan Rate	0/0
Coordinates	Axis 1	NaN	Axis 2	NaN	Axis 3	NaN	Axis 4	NaN	Axis 5	NaN	Axis 6	0.000000
TX Power	0.000000	RX Power	0.000000

678.996	0.0141078
679.075	0.0140733
679.153	0.0141759
679.231	0.0143077
679.309	0.0141085
679.387	0.0140705
679.465	0.0141640
679.543	0.0141304
679.621	0.0141429
679.700	0.0142267
679.778	0.0141389
679.856	0.0140861
679.934	0.0141716
680.012	0.0140462
680.090	0.0140742
680.168	0.0142271
680.246	0.0139983
680.325	0.0139965
680.403	0.0141158
680.481	0.0141879
680.559	0.0141096
680.637	0.0140456
680.715	0.0140167
680.793	0.0141472
680.871	0.0140894
680.950	0.0141207
681.028	0.0141552
681.106	0.0142189
681.184	0.0141216
681.262	0.0141180
681.340	0.0141210
681.418	0.0141427
681.496	0.0141350
681.575	0.0141110
681.653	0.0141437
681.731	0.0141129
681.809	0.0140112
681.887	0.0140865
681.965	0.0141412
682.043	0.0140319
682.121	0.0140501
682.200	0.0140420
682.278	0.0139981
682.356	0.0141075
682.434	0.0140787
682.512	0.0140641
682.590	0.0142153
682.668	0.0141307
682.746	0.0141454
682.825	0.0140631
682.903	0.0140981
682.981	0.0139884
683.059	0.0140776
683.137	0.0140407
683.215	0.0140112
683.293	0.0141042
683.371	0.0141256
683.450	0.0141089
683.528	0.0140506
683.606	0.0142142
683.684	0.0142114
683.762	0.0141196
683.840	0.0140928
683.918	0.0139648
683.996	0.0140960
684.075	0.0141067
684.153	0.0141298
684.231	0.0140179
684.309	0.0141241
684.387	0.0140688
684.465	0.0141956
684.543	0.0141751
684.621	0.0141360
684.700	0.0141178
684.778	0.0140781
684.856	0.0141895
684.934	0.0140192
685.012	0.0141614
685.090	0.0141351
685.168	0.0141230
685.246	0.0141126
685.325	0.0141870
685.403	0.0141762
685.481	0.0141574
685.559	0.0141453
685.637	0.0140627
685.715	0.0140134
685.793	0.0140154
685.871	0.0141736
685.950	0.0141053
686.028	0.0141526
686.106	0.0141792
686.184	0.0140923
686.262	0.0140585
686.340	0.0141110
686.418	0.0141546
686.496	0.0142028
686.575	0.0141660
686.653	0.0141561
686.731	0.0141541
686.809	0.0141801
686.887	0.0141570
686.965	0.0141481
687.043	0.0141833
687.121	0.0141629
687.200	0.0141318
687.278	0.0140856
687.356	0.0141351
687.434	0.0140234
687.512	0.0139819
687.590	0.0141521
687.668	0.0140852
687.746	0.0140876
687.825	0.0141434
687.903	0.0141203
687.981	0.0141056
688.059	0.0140868
688.137	0.0139879
688.215	0.0142532
688.293	0.0141547
688.371	0.0140479
688.450	0.0141566
688.528	0.0140750
688.606	0.0140907
688.684	0.0141750
688.762	0.0141370
688.840	0.0142144
688.918	0.0140483
688.996	0.0140546
689.075	0.0142139
689.153	0.0142313
689.231	0.0141702
689.309	0.0142062
689.387	0.0141911
689.465	0.0140665
689.543	0.0141432
689.621	0.0140880
689.700	0.0142237
689.778	0.0142316
689.856	0.0142393
689.934	0.0142174
690.012	0.0139564
690.090	0.0140987
690.168	0.0141826
690.246	0.0141299
690.325	0.0141394
690.403	0.0141113
690.481	0.0141943
690.559	0.0141949
690.637	0.0141112
690.715	0.0140487
690.793	0.0141878
690.871	0.0140997
690.950	0.0140827
691.028	0.0140486
691.106	0.0142123
691.184	0.0142228
691.262	0.0140861
691.340	0.0140781
691.418	0.0140044
691.496	0.0141130
691.575	0.0140578
691.653	0.0140417
691.731	0.0142211
691.809	0.0141522
691.887	0.0141733
691.965	0.0141161
692.043	0.0139677
692.121	0.0142111
692.200	0.0142513
692.278	0.0140885
692.356	0.0141882
692.434	0.0142948
692.512	0.0141539
692.590	0.0141202
692.668	0.0141555
692.746	0.0141398
692.825	0.0142496
692.903	0.0140705
692.981	0.0140222
693.059	0.0141687
693.137	0.0141480
693.215	0.0141225
693.293	0.0141804
693.371	0.0142796
693.450	0.0140624
693.528	0.0141151
693.606	0.0141361
693.684	0.0141160
693.762	0.0141911
693.840	0.0142273
693.918	0.0142458
693.996	0.0141600
694.075	0.0140440
694.153	0.0141523
694.231	0.0141747
694.309	0.0141269
694.387	0.0141097
694.465	0.0140482
694.543	0.0139994
694.621	0.0142433
694.700	0.0142035
694.778	0.0140041
694.856	0.0141991
694.934	0.0141723
695.012	0.0140900
695.090	0.0139831
695.168	0.0141183
695.246	0.0140862
695.325	0.0141999
695.403	0.0143020
695.481	0.0140644
695.559	0.0141730
695.637	0.0141234
695.715	0.0140676
695.793	0.0140812
695.871	0.0142021
695.950	0.0140442
696.028	0.0140469
696.106	0.0142030
696.184	0.0141925
696.262	0.0142336
696.340	0.0141396
696.418	0.0141357
696.496	0.0139481
696.575	0.0141712
696.653	0.0141650
696.731	0.0141273
696.809	0.0141733
696.887	0.0140094
696.965	0.0140705
697.043	0.0141114
697.121	0.0141235
697.200	0.0140779
697.278	0.0139594
697.356	0.0141301
697.434	0.0141966
697.512	0.0140531
697.590	0.0140438
697.668	0.0141865
697.746	0.0141969
697.825	0.0140720
697.903	0.0140010
697.981	0.0139967
698.059	0.0141477
698.137	0.0141413
698.215	0.0141493
698.293	0.0140501
698.371	0.0140865
698.450	0.0141402
698.528	0.0138987
698.606	0.0140085
698.684	0.0141338
698.762	0.0142194
698.840	0.0142652
698.918	0.0141441
698.996	0.0140398
699.075	0.0139426
699.153	0.0142407
699.231	0.0141567
699.309	0.0141221
699.387	0.0141330
699.465	0.0141361
699.543	0.0140913
699.621	0.0140247
699.700	0.0140059
699.778	0.0141985
699.856	0.0141680
699.934	0.0140993
700.012	0.0141178
700.090	0.0142840
700.168	0.0142497
700.246	0.0141489
700.325	0.0140912
700.403	0.0142696
700.481	0.0141421
700.559	0.0141467
700.637	0.0141342
700.715	0.0140472
700.793	0.0140622
700.871	0.0140229
700.950	0.0140481
701.028	0.0140864
701.106	0.0140029
701.184	0.0140833
701.262	0.0140617
701.340	0.0140719
701.418	0.0141552
701.496	0.0140598
701.575	0.0141715
701.653	0.0140350
701.731	0.0141308
701.809	0.0141764
701.887	0.0141489
701.965	0.0142100
702.043	0.0141500
702.121	0.0141736
702.200	0.0140874
702.278	0.0141228
702.356	0.0141891
702.434	0.0140993
702.512	0.0141422
702.590	0.0142313
702.668	0.0141794
702.746	0.0141273
702.825	0.0140618
702.903	0.0140994
702.981	0.0140710
703.059	0.0141576
703.137	0.0143119
703.215	0.0140903
703.293	0.0141074
703.371	0.0141479
703.450	0.0140348
703.528	0.0140836
703.606	0.0141073
703.684	0.0140896
703.762	0.0141486
703.840	0.0141468
703.918	0.0140549
703.996	0.0140286
704.075	0.0141109
704.153	0.0141214
704.231	0.0141765
704.309	0.0141076
704.387	0.0141440
704.465	0.0141154
704.543	0.0141451
704.621	0.0140264
704.700	0.0140833
704.778	0.0141214
704.856	0.0141613
704.934	0.0141946
705.012	0.0141655
705.090	0.0141059
705.168	0.0141093
705.246	0.0139552
705.325	0.0141463
705.403	0.0141051
705.481	0.0140023
705.559	0.0142405
705.637	0.0141099
705.715	0.0141925
705.793	0.0140637
705.871	0.0142014
705.950	0.0141753
706.028	0.0141536
706.106	0.0140269
706.184	0.0140697
706.262	0.0142675
706.340	0.0142085
706.418	0.0141552
706.496	0.0142076
706.575	0.0141470
706.653	0.0142902
706.731	0.0141698
706.809	0.0142697
706.887	0.0143316
706.965	0.0141740
707.043	0.0141476
707.121	0.0142120
707.200	0.0141615
707.278	0.0142081
707.356	0.0141800
707.434	0.0141446
707.512	0.0140258
707.590	0.0139907
707.668	0.0141177
707.746	0.0141721
707.825	0.0141204
707.903	0.0142575
707.981	0.0142422
708.059	0.0142579
708.137	0.0142480
708.215	0.0141174
708.293	0.0139916
708.371	0.0139516
708.450	0.0138708
708.528	0.0138383
708.606	0.0137935
708.684	0.0137810
708.762	0.0139626
708.840	0.0141194
708.918	0.0142966
708.996	0.0143077
709.075	0.0143459
709.153	0.0145393
709.231	0.0144398
709.309	0.0143508
709.387	0.0141885
709.465	0.0141129
709.543	0.0137562
709.621	0.0136771
709.700	0.0135670
709.778	0.0135850
709.856	0.0135976
709.934	0.0137663
710.012	0.0138386
710.090	0.0139555
710.168	0.0140421
710.246	0.0143070
710.325	0.0146150
710.403	0.0146086
710.481	0.0145341
710.559	0.0145937
710.637	0.0144985
710.715	0.0145027
710.793	0.0144692
710.871	0.0143612
710.950	0.0142328
711.028	0.0139546
711.106	0.0139171
711.184	0.0137427
711.262	0.0137311
711.340	0.0133941
711.418	0.0133205
711.496	0.0133596
711.575	0.0136405
711.653	0.0137341
711.731	0.0140198
711.809	0.0144711
711.887	0.0148273
711.965	0.0151836
712.043	0.0153674
712.121	0.0155145
712.200	0.0155614
712.278	0.0152055
712.356	0.0149431
712.434	0.0144736
712.512	0.0140198
712.590	0.0135458
712.668	0.0131236
712.746	0.0127545
712.825	0.0126765
712.903	0.0127630
712.981	0.0127379
713.059	0.0128650
713.137	0.0134808
713.215	0.0137778
713.293	0.0142638
713.371	0.0147173
713.450	0.0150945
713.528	0.0152419
713.606	0.0151510
713.684	0.0150358
713.762	0.0149036
713.840	0.0145309
713.918	0.0140562
713.996	0.0136240
714.075	0.0131059
714.153	0.0127473
714.231	0.0125082
714.309	0.0123148
714.387	0.0121992
714.465	0.0121735
714.543	0.0125251
714.621	0.0129067
714.700	0.0134731
714.778	0.0141322
714.856	0.0146669
714.934	0.0153587
715.012	0.0160151
715.090	0.0163412
715.168	0.0164501
715.246	0.0165651
715.325	0.0163117
715.403	0.0161644
715.481	0.0157406
715.559	0.0151735
715.637	0.0144638
715.715	0.0138153
715.793	0.0128900
715.871	0.0124223
715.950	0.0122168
716.028	0.0118508
716.106	0.0119846
716.184	0.0123592
716.262	0.0128072
716.340	0.0133527
716.418	0.0139117
716.496	0.0143678
716.575	0.0148993
716.653	0.0152598
716.731	0.0155634
716.809	0.0156857
716.887	0.0156419
716.965	0.0153266
717.043	0.0150562
717.121	0.0146753
717.200	0.0144542
717.278	0.0141326
717.356	0.0137416
717.434	0.0136462
717.512	0.0135357
717.590	0.0135477
717.668	0.0134922
717.746	0.0136431
717.825	0.0138035
717.903	0.0139937
717.981	0.0142237
718.059	0.0143076
718.137	0.0144003
718.215	0.0144461
718.293	0.0144451
718.371	0.0143416
718.450	0.0142397
718.528	0.0141508
718.606	0.0139330
718.684	0.0137839
718.762	0.0136501
718.840	0.0134600
718.918	0.0131481
718.996	0.0130679
719.075	0.0130875
719.153	0.0131508
719.231	0.0131731
719.309	0.0134801
719.387	0.0137556
719.465	0.0139213
719.543	0.0142286
719.621	0.0145850
719.700	0.0149428
719.778	0.0150050
719.856	0.0151782
719.934	0.0152909
720.012	0.0150697
720.090	0.0149536
720.168	0.0148008
720.246	0.0146932
720.325	0.0145100
720.403	0.0142677
720.481	0.0140032
720.559	0.0136688
720.637	0.0132322
720.715	0.0130373
720.793	0.0128136
720.871	0.0126215
720.950	0.0125308
721.028	0.0125851
721.106	0.0128195
721.184	0.0131287
721.262	0.0135436
721.340	0.0138913
721.418	0.0143604
721.496	0.0149500
721.575	0.0154005
721.653	0.0158127
721.731	0.0161028
721.809	0.0162840
721.887	0.0164477
721.965	0.0163752
722.043	0.0161174
722.121	0.0157694
722.200	0.0152511
722.278	0.0147784
722.356	0.0141663
722.434	0.0136704
722.512	0.0131791
722.590	0.0126849
722.668	0.0123930
722.746	0.0121281
722.825	0.0119672
722.903	0.0118955
722.981	0.0119157
723.059	0.0122386
723.137	0.0125696
723.215	0.0132001
723.293	0.0138039
723.371	0.0141783
723.450	0.0148966
723.528	0.0154176
723.606	0.0155836
723.684	0.0157223
723.762	0.0160080
723.840	0.0161537
723.918	0.0160149
723.996	0.0158611
724.075	0.0153540
724.153	0.0150926
724.231	0.0145658
724.309	0.0139661
724.387	0.0135606
724.465	0.0132181
724.543	0.0127096
724.621	0.0124568
724.700	0.0121571
724.778	0.0121474
724.856	0.0123466
724.934	0.0125552
725.012	0.0128790
725.090	0.0131560
725.168	0.0135853
725.246	0.0138011
725.325	0.0142563
725.403	0.0144695
725.481	0.0147469
725.559	0.0150594
725.637	0.0151408
725.715	0.0151892
725.793	0.0153535
725.871	0.0151181
725.950	0.0151028
726.028	0.0148830
726.106	0.0146290
726.184	0.0143698
726.262	0.0140040
726.340	0.0138660
726.418	0.0137218
726.496	0.0135783
726.575	0.0134292
726.653	0.0133907
726.731	0.0133974
726.809	0.0136127
726.887	0.0136102
726.965	0.0136005
727.043	0.0137402
727.121	0.0138578
727.200	0.0138945
727.278	0.0139606
727.356	0.0141814
727.434	0.0143459
727.512	0.0142256
727.590	0.0142128
727.668	0.0143845
727.746	0.0143740
727.825	0.0142121
727.903	0.0141673
727.981	0.0144434
728.059	0.0143771
728.137	0.0143465
728.215	0.0142580
728.293	0.0143017
728.371	0.0144305
728.450	0.0143404
728.528	0.0141668
728.606	0.0141743
728.684	0.0139404
728.762	0.0139139
728.840	0.0137618
728.918	0.0139270
728.996	0.0139017
729.075	0.0137835
729.153	0.0140407
729.231	0.0140383
729.309	0.0140234
729.387	0.0142029
729.465	0.0142765
729.543	0.0145218
729.621	0.0144647
729.700	0.0144212
729.778	0.0143221
729.856	0.0144783
729.934	0.0145411
730.012	0.0145071
730.090	0.0144517
730.168	0.0142133
730.246	0.0140886
730.325	0.0138379
730.403	0.0137331
730.481	0.0136182
730.559	0.0134327
730.637	0.0133422
730.715	0.0132972
730.793	0.0133739
730.871	0.0132671
730.950	0.0135281
731.028	0.0138275
731.106	0.0138029
731.184	0.0141000
731.262	0.0141122
731.340	0.0144128
731.418	0.0146366
731.496	0.0146471
731.575	0.0147372
731.653	0.0147399
731.731	0.0146893
731.809	0.0146688
731.887	0.0145736
731.965	0.0145657
732.043	0.0143677
732.121	0.0142768
732.200	0.0140997
732.278	0.0139341
732.356	0.0140324
732.434	0.0137953
732.512	0.0137664
732.590	0.0136727
732.668	0.0134872
732.746	0.0133340
732.825	0.0133601
732.903	0.0132951
732.981	0.0131876
733.059	0.0131403
733.137	0.0132557
733.215	0.0131935
733.293	0.0133696
733.371	0.0136704
733.450	0.0138142
733.528	0.0141067
733.606	0.0144297
733.684	0.0145809
733.762	0.0147781
733.840	0.0150781
733.918	0.0152794
733.996	0.0153975
734.075	0.0152421
734.153	0.0152327
734.231	0.0151868
734.309	0.0149194
734.387	0.0147086
734.465	0.0143300
734.543	0.0139953
734.621	0.0138699
734.700	0.0134821
734.778	0.0132621
734.856	0.0131467
734.934	0.0131304
735.012	0.0132765
735.090	0.0133553
735.168	0.0132764
735.246	0.0135393
735.325	0.0138459
735.403	0.0140295
735.481	0.0141576
735.559	0.0144530
735.637	0.0148270
735.715	0.0148460
735.793	0.0150317
735.871	0.0149650
735.950	0.0148836
736.028	0.0150243
736.106	0.0151083
736.184	0.0149467
736.262	0.0148581
736.340	0.0148072
736.418	0.0147860
736.496	0.0145871
736.575	0.0146526
736.653	0.0144536
736.731	0.0142438
736.809	0.0140757
736.887	0.0139806
736.965	0.0140290
737.043	0.0136583
737.121	0.0134843
737.200	0.0134428
737.278	0.0130679
737.356	0.0128596
737.434	0.0127235
737.512	0.0127232
737.590	0.0126084
737.668	0.0127699
737.746	0.0131727
737.825	0.0133061
737.903	0.0133924
737.981	0.0137981
738.059	0.0142606
738.137	0.0146245
738.215	0.0148751
738.293	0.0151702
738.371	0.0153635
738.450	0.0153893
738.528	0.0156052
738.606	0.0156100
738.684	0.0153597
738.762	0.0153938
738.840	0.0150521
738.918	0.0147985
738.996	0.0145837
739.075	0.0142214
739.153	0.0139756
739.231	0.0135318
739.309	0.0133098
739.387	0.0131372
739.465	0.0130443
739.543	0.0128769
739.621	0.0129030
739.700	0.0130750
739.778	0.0129765
739.856	0.0130276
739.934	0.0133896
740.012	0.0136314
740.090	0.0136384
740.168	0.0139817
740.246	0.0143162
740.325	0.0143286
740.403	0.0146070
740.481	0.0147919
740.559	0.0148225
740.637	0.0149126
740.715	0.0152887
740.793	0.0151137
740.871	0.0150985
740.950	0.0149074
741.028	0.0149229
741.106	0.0148674
741.184	0.0146561
741.262	0.0143395
741.340	0.0141057
741.418	0.0137443
741.496	0.0135663
741.575	0.0134963
741.653	0.0132105
741.731	0.0130465
741.809	0.0128551
741.887	0.0130944
741.965	0.0129585
742.043	0.0130650
742.121	0.0132638
742.200	0.0135062
742.278	0.0137270
742.356	0.0141664
742.434	0.0142849
742.512	0.0143056
742.590	0.0147348
742.668	0.0149393
742.746	0.0150257
742.825	0.0150784
742.903	0.0152296
742.981	0.0150538
743.059	0.0150317
743.137	0.0148856
743.215	0.0148998
743.293	0.0147478
743.371	0.0144537
743.450	0.0143005
743.528	0.0140205
743.606	0.0138733
743.684	0.0138513
743.762	0.0137487
743.840	0.0135417
743.918	0.0134068
743.996	0.0134772
744.075	0.0136479
744.153	0.0135546
744.231	0.0138107
744.309	0.0139820
744.387	0.0141545
744.465	0.0140848
744.543	0.0141514
744.621	0.0142020
744.700	0.0143288
744.778	0.0143634
744.856	0.0144164
744.934	0.0143411
745.012	0.0142917
745.090	0.0142858
745.168	0.0140289
745.246	0.0141534
745.325	0.0142926
745.403	0.0141406
745.481	0.0141513
745.559	0.0142275
745.637	0.0141830
745.715	0.0142598
745.793	0.0144263
745.871	0.0142387
745.950	0.0143227
746.028	0.0145457
746.106	0.0144788
746.184	0.0144263
746.262	0.0142216
746.340	0.0142934
746.418	0.0141435
746.496	0.0140866
746.575	0.0140347
746.653	0.0137039
746.731	0.0136958
746.809	0.0136715
746.887	0.0136364
746.965	0.0134942
747.043	0.0134481
747.121	0.0134892
747.200	0.0136741
747.278	0.0135374
747.356	0.0135771
747.434	0.0140335
747.512	0.0141187
747.590	0.0141444
747.668	0.0142981
747.746	0.0146284
747.825	0.0146319
747.903	0.0144901
747.981	0.0146364
748.059	0.0147359
748.137	0.0146702
748.215	0.0145661
748.293	0.0144312
748.371	0.0144328
748.450	0.0142805
748.528	0.0141639
748.606	0.0140851
748.684	0.0141286
748.762	0.0139063
748.840	0.0138743
748.918	0.0136800
748.996	0.0136642
749.075	0.0134921
749.153	0.0136437
749.231	0.0135932
749.309	0.0136604
749.387	0.0135479
749.465	0.0136342
749.543	0.0137547
749.621	0.0136143
749.700	0.0139339
749.778	0.0141323
749.856	0.0141988
749.934	0.0144035
750.012	0.0145078
750.090	0.0146815
750.168	0.0149786
750.246	0.0150403
750.325	0.0148741
750.403	0.0149027
750.481	0.0148795
750.559	0.0148903
750.637	0.0147352
750.715	0.0145777
750.793	0.0143567
750.871	0.0141573
750.950	0.0138715
751.028	0.0138488
751.106	0.0136786
751.184	0.0134231
751.262	0.0133712
751.340	0.0133176
751.418	0.0133131
751.496	0.0132360
751.575	0.0134138
751.653	0.0134090
751.731	0.0136466
751.809	0.0137520
751.887	0.0138186
751.965	0.0141999
752.043	0.0142450
752.121	0.0143683
752.200	0.0145523
752.278	0.0146769
752.356	0.0147357
752.434	0.0146851
752.512	0.0145816
752.590	0.0145956
752.668	0.0144226
752.746	0.0144415
752.825	0.0142415
752.903	0.0142272
752.981	0.0141562
753.059	0.0139651
753.137	0.0141281
753.215	0.0139040
753.293	0.0138022
753.371	0.0138406
753.450	0.0138271
753.528	0.0137090
753.606	0.0135777
753.684	0.0135583
753.762	0.0138528
753.840	0.0137079
753.918	0.0136703
753.996	0.0138747
754.075	0.0137417
754.153	0.0138833
754.231	0.0138854
754.309	0.0139088
754.387	0.0139673
754.465	0.0140318
754.543	0.0141444
754.621	0.0141526
754.700	0.0143037
754.778	0.0143137
754.856	0.0143140
754.934	0.0143414
755.012	0.0142943
755.090	0.0143572
755.168	0.0145876
755.246	0.0144985
755.325	0.0142122
755.403	0.0142840
755.481	0.0142542
755.559	0.0141608
755.637	0.0141782
755.715	0.0138637
755.793	0.0139179
755.871	0.0137380
755.950	0.0138308
756.028	0.0137301
756.106	0.0137229
756.184	0.0137596
756.262	0.0138388
756.340	0.0138490
756.418	0.0140388
756.496	0.0140281
756.575	0.0140183
756.653	0.0141448
756.731	0.0141777
756.809	0.0143115
756.887	0.0143399
756.965	0.0140965
757.043	0.0143590
757.121	0.0141895
757.200	0.0143076
757.278	0.0143301
757.356	0.0142764
757.434	0.0142411
757.512	0.0142361
757.590	0.0143023
757.668	0.0142788
757.746	0.0141472
757.825	0.0141990
757.903	0.0141011
757.981	0.0142376
758.059	0.0142108
758.137	0.0142475
758.215	0.0141550
758.293	0.0140511
758.371	0.0141840
758.450	0.0141242
758.528	0.0139918
758.606	0.0139440
758.684	0.0139239
758.762	0.0138960
758.840	0.0138833
758.918	0.0137867
758.996	0.0137666
759.075	0.0138824
759.153	0.0138825
759.231	0.0138899
759.309	0.0138528
759.387	0.0138474
759.465	0.0140160
759.543	0.0140611
759.621	0.0140914
759.700	0.0142418
759.778	0.0142828
759.856	0.0141515
759.934	0.0142968
760.012	0.0144619
760.090	0.0145453
760.168	0.0144440
760.246	0.0144004
760.325	0.0143323
760.403	0.0143524
760.481	0.0143671
760.559	0.0142322
760.637	0.0142379
760.715	0.0141094
760.793	0.0141175
760.871	0.0142097
760.950	0.0139960
761.028	0.0140462
761.106	0.0139683
761.184	0.0138422
761.262	0.0137063
761.340	0.0138843
761.418	0.0138541
761.496	0.0138216
761.575	0.0138342
761.653	0.0136973
761.731	0.0138354
761.809	0.0139801
761.887	0.0140434
761.965	0.0141277
762.043	0.0142553
762.121	0.0143352
762.200	0.0144476
762.278	0.0143008
762.356	0.0144896
762.434	0.0143327
762.512	0.0146295
762.590	0.0144002
762.668	0.0144344
762.746	0.0144949
762.825	0.0143248
762.903	0.0143954
762.981	0.0142481
763.059	0.0142651
763.137	0.0141308
763.215	0.0141182
763.293	0.0138754
763.371	0.0140507
763.450	0.0138196
763.528	0.0136598
763.606	0.0137300
763.684	0.0138947
763.762	0.0138950
763.840	0.0139075
763.918	0.0140028
763.996	0.0140011
764.075	0.0139671
764.153	0.0141476
764.231	0.0143719
764.309	0.0143227
764.387	0.0143351
764.465	0.0143687
764.543	0.0145386
764.621	0.0144179
764.700	0.0144912
764.778	0.0143764
764.856	0.0144527
764.934	0.0143259
765.012	0.0142689
765.090	0.0140875
765.168	0.0141293
765.246	0.0141315
765.325	0.0141631
765.403	0.0140585
765.481	0.0140508
765.559	0.0140431
765.637	0.0140398
765.715	0.0142246
765.793	0.0141502
765.871	0.0140873
765.950	0.0140168
766.028	0.0141225
766.106	0.0141619
766.184	0.0141893
766.262	0.0140726
766.340	0.0141473
766.418	0.0142381
766.496	0.0140968
766.575	0.0140259
766.653	0.0139234
766.731	0.0142397
766.809	0.0141793
766.887	0.0141155
766.965	0.0140672
767.043	0.0140405
767.121	0.0141241
767.200	0.0142049
767.278	0.0144457
767.356	0.0141391
767.434	0.0141988
767.512	0.0142734
767.590	0.0142742
767.668	0.0142518
767.746	0.0141651
767.825	0.0143008
767.903	0.0142094
767.981	0.0142961
768.059	0.0143012
768.137	0.0142559
768.215	0.0140839
768.293	0.0141342
768.371	0.0141414
768.450	0.0140592
768.528	0.0140754
768.606	0.0141617
768.684	0.0140164
768.762	0.0140179
768.840	0.0140195
768.918	0.0140927
768.996	0.0141071
769.075	0.0141693
769.153	0.0141352
769.231	0.0141631
769.309	0.0142064
769.387	0.0142711
769.465	0.0141633
769.543	0.0141984
769.621	0.0142323
769.700	0.0142746
769.778	0.0142748
769.856	0.0142167
769.934	0.0142262
770.012	0.0142681
770.090	0.0141314
770.168	0.0141953
770.246	0.0141725
770.325	0.0142762
770.403	0.0141325
770.481	0.0140322
770.559	0.0141739
770.637	0.0141121
770.715	0.0141476
770.793	0.0140869
770.871	0.0140326
770.950	0.0141225
771.028	0.0141650
771.106	0.0140577
771.184	0.0140994
771.262	0.0142325
771.340	0.0142535
771.418	0.0141402
771.496	0.0142434
771.575	0.0142067
771.653	0.0142441
771.731	0.0142577
771.809	0.0142095
771.887	0.0141652
771.965	0.0142160
772.043	0.0142359
772.121	0.0141302
772.200	0.0141274
772.278	0.0141776
772.356	0.0141943
772.434	0.0142082
772.512	0.0142813
772.590	0.0142044
772.668	0.0142483
772.746	0.0140800
772.825	0.0141478
772.903	0.0142492
772.981	0.0142402
773.059	0.0142300
773.137	0.0141067
773.215	0.0141198
773.293	0.0142165
773.371	0.0141966
773.450	0.0140881
773.528	0.0140896
773.606	0.0141095
773.684	0.0139909
773.762	0.0141258
773.840	0.0141251
773.918	0.0140939
773.996	0.0141137
774.075	0.0140719
774.153	0.0141796
774.231	0.0139848
774.309	0.0140364
774.387	0.0140573
774.465	0.0140623
774.543	0.0141025
774.621	0.0141942
774.700	0.0142250
774.778	0.0141692
774.856	0.0142211
774.934	0.0143454
775.012	0.0143629
775.090	0.0143505
775.168	0.0142332
775.246	0.0145377
775.325	0.0143864
775.403	0.0141952
775.481	0.0141962
775.559	0.0142912
775.637	0.0140628
775.715	0.0142280
775.793	0.0141197
775.871	0.0141006
775.950	0.0140408
776.028	0.0139423
776.106	0.0140834
776.184	0.0140250
776.262	0.0139045
776.340	0.0139925
776.418	0.0141940
776.496	0.0141483
776.575	0.0140359
776.653	0.0140549
776.731	0.0140894
776.809	0.0142422
776.887	0.0141273
776.965	0.0141927
777.043	0.0142952
777.121	0.0143252
777.200	0.0142992
777.278	0.0142131
777.356	0.0142818
777.434	0.0142193
777.512	0.0141422
777.590	0.0142959
777.668	0.0141039
777.746	0.0141312
777.825	0.0141417
777.903	0.0140262
777.981	0.0139965
778.059	0.0140650
778.137	0.0140291
778.215	0.0140167
778.293	0.0142350
778.371	0.0142330
778.450	0.0141068
778.528	0.0141671
778.606	0.0141877
778.684	0.0141327
778.762	0.0141889
778.840	0.0140556
778.918	0.0139174
778.996	0.0140366
779.075	0.0141341
779.153	0.0140998
779.231	0.0141800
779.309	0.0141261
779.387	0.0140056
779.465	0.0140263
779.543	0.0141075
779.621	0.0140708
779.700	0.0141621
779.778	0.0142077
779.856	0.0142181
779.934	0.0142619
780.012	0.0142130
780.090	0.0142265
780.168	0.0140951
780.246	0.0141947
780.325	0.0142971
780.403	0.0143733
780.481	0.0141729
780.559	0.0141222
780.637	0.0141240
780.715	0.0140567
780.793	0.0140975
780.871	0.0142140
780.950	0.0141174
781.028	0.0139965
781.106	0.0141272
781.184	0.0139963
781.262	0.0139721
781.340	0.0140372
781.418	0.0139756
781.496	0.0140616
781.575	0.0140633
781.653	0.0139936
781.731	0.0140671
781.809	0.0139883
781.887	0.0141554
781.965	0.0141462
782.043	0.0140656
782.121	0.0141249
782.200	0.0141357
782.278	0.0141153
782.356	0.0142191
782.434	0.0141835
782.512	0.0139969
782.590	0.0140532
782.668	0.0142506
782.746	0.0141268
782.825	0.0141960
782.903	0.0140471
782.981	0.0140156
783.059	0.0140234
783.137	0.0140702
783.215	0.0141017
783.293	0.0141200
783.371	0.0141755
783.450	0.0141389
783.528	0.0141280
783.606	0.0141448
783.684	0.0141032
783.762	0.0140405
783.840	0.0141321
783.918	0.0140256
783.996	0.0140302
784.075	0.0140911
784.153	0.0140446
784.231	0.0139598
784.309	0.0139152
784.387	0.0139275
784.465	0.0140575
784.543	0.0141387
784.621	0.0141243
784.700	0.0141918
784.778	0.0141298
784.856	0.0140738
784.934	0.0141911
785.012	0.0139861
785.090	0.0141620
785.168	0.0140917
785.246	0.0142039
785.325	0.0141574
785.403	0.0143422
785.481	0.0142013
785.559	0.0140639
785.637	0.0141531
785.715	0.0142830
785.793	0.0140366
785.871	0.0141692
785.950	0.0140858
786.028	0.0141323
786.106	0.0141901
786.184	0.0140211
786.262	0.0140450
786.340	0.0139656
786.418	0.0140076
786.496	0.0140618
786.575	0.0140669
786.653	0.0140439
786.731	0.0141044
786.809	0.0141535
786.887	0.0139650
786.965	0.0141412
787.043	0.0142699
787.121	0.0142034
787.200	0.0141551
787.278	0.0142149
787.356	0.0142114
787.434	0.0142923
787.512	0.0142181
787.590	0.0140412
787.668	0.0143465
787.746	0.0143063
787.825	0.0142811
787.903	0.0141165
787.981	0.0140719
788.059	0.0141880
788.137	0.0141650
788.215	0.0140960
788.293	0.0141784
788.371	0.0141284
788.450	0.0140256
788.528	0.0140560
788.606	0.0142274
788.684	0.0139411
788.762	0.0139302
788.840	0.0141080
788.918	0.0140637
788.996	0.0141041
789.075	0.0141958
789.153	0.0141140
789.231	0.0140623
789.309	0.0141326
789.387	0.0140922
789.465	0.0142094
789.543	0.0141444
789.621	0.0141644
789.700	0.0142644
789.778	0.0140796
789.856	0.0141740
789.934	0.0141925
790.012	0.0141695
790.090	0.0141470
790.168	0.0140480
790.246	0.0140995
790.325	0.0140760
790.403	0.0141077
790.481	0.0140703
790.559	0.0140133
790.637	0.0140698
790.715	0.0140369
790.793	0.0141358
790.871	0.0141944
790.950	0.0139999
791.028	0.0140968
791.106	0.0140932
791.184	0.0141394
791.262	0.0142287
791.340	0.0142734
791.418	0.0141532
791.496	0.0141767
791.575	0.0141860
791.653	0.0141697
791.731	0.0143111
791.809	0.0141463
791.887	0.0141212
791.965	0.0139979
792.043	0.0141235
792.121	0.0140917
792.200	0.0140262
792.278	0.0140260
792.356	0.0140923
792.434	0.0141373
792.512	0.0141431
792.590	0.0141434
792.668	0.0142035
792.746	0.0142760
792.825	0.0142165
792.903	0.0140757
792.981	0.0140895
793.059	0.0142368
793.137	0.0141689
793.215	0.0142617
793.293	0.0140689
793.371	0.0141194
793.450	0.0141037
793.528	0.0141372
793.606	0.0141631
793.684	0.0140335
793.762	0.0140018
793.840	0.0140601
793.918	0.0141149
793.996	0.0140308
794.075	0.0140509
794.153	0.0140685
794.231	0.0141465
794.309	0.0141001
794.387	0.0140350
794.465	0.0141138
794.543	0.0140779
794.621	0.0142583
794.700	0.0140984
794.778	0.0140943
794.856	0.0142149
794.934	0.0142791
795.012	0.0140498
795.090	0.0141698
795.168	0.0141374
795.246	0.0141209
795.325	0.0141344
795.403	0.0142025
795.481	0.0141029
795.559	0.0141087
795.637	0.0141721
795.715	0.0143184
795.793	0.0140526
795.871	0.0141293
795.950	0.0143067
796.028	0.0141127
796.106	0.0140393
796.184	0.0140231
796.262	0.0142203
796.340	0.0141920
796.418	0.0140896
796.496	0.0139940
796.575	0.0140755
796.653	0.0141188
796.731	0.0141967
796.809	0.0142474
796.887	0.0141307
796.965	0.0141096
797.043	0.0140468
797.121	0.0141238
797.200	0.0141173
797.278	0.0141217
797.356	0.0141227
797.434	0.0141194
797.512	0.0140962
797.590	0.0141109
797.668	0.0141589
797.746	0.0141207
797.825	0.0139774
797.903	0.0140426
797.981	0.0141549
798.059	0.0139949
798.137	0.0141648
798.215	0.0141799
798.293	0.0141126
798.371	0.0140559
798.450	0.0140795
798.528	0.0140405
798.606	0.0139745
798.684	0.0141182
798.762	0.0141892
798.840	0.0141130
798.918	0.0141232
798.996	0.0140995
799.075	0.0141230
799.153	0.0140601
799.231	0.0140015
799.309	0.0141161
799.387	0.0140260
799.465	0.0140089
799.543	0.0140710
799.621	0.0140205
799.700	0.0141145
799.778	0.0139915
799.856	0.0140311
799.934	0.0139423
800.012	0.0140715
800.090	0.0141418
800.168	0.0139257
800.246	0.0141869
800.325	0.0140802
800.403	0.0141267
800.481	0.0141792
800.559	0.0141653
800.637	0.0141958
800.715	0.0141798
800.793	0.0141307
800.871	0.0141103
800.950	0.0143801
801.028	0.0142567
801.106	0.0141485
801.184	0.0140189
801.262	0.0140302
801.340	0.0140762
801.418	0.0139590
801.496	0.0140601
801.575	0.0142177
801.653	0.0140495
801.731	0.0140854
801.809	0.0140549
801.887	0.0140925
801.965	0.0140907
802.043	0.0142107
802.121	0.0141852
802.200	0.0141381
802.278	0.0139690
802.356	0.0141803
802.434	0.0141389
802.512	0.0139997
802.590	0.0141847
802.668	0.0142577
802.746	0.0141482
802.825	0.0141399
802.903	0.0140327
802.981	0.0142268
803.059	0.0141294
803.137	0.0140825
803.215	0.0140459
803.293	0.0141580
803.371	0.0141892
803.450	0.0141293
803.528	0.0142429
803.606	0.0140450
803.684	0.0141750
803.762	0.0141518
803.840	0.0140707
803.918	0.0140682
803.996	0.0140491
804.075	0.0143018
804.153	0.0140089
804.231	0.0140886
804.309	0.0140170
804.387	0.0140892
804.465	0.0140676
804.543	0.0140831
804.621	0.0141462
804.700	0.0141480
804.778	0.0141569
804.856	0.0142278
804.934	0.0140884
805.012	0.0141280
805.090	0.0141174
805.168	0.0141956
805.246	0.0142012
805.325	0.0140340
805.403	0.0142400
805.481	0.0141109
805.559	0.0139951
805.637	0.0140887
805.715	0.0140932
805.793	0.0140648
805.871	0.0140166
805.950	0.0141264
806.028	0.0140742
806.106	0.0139867
806.184	0.0140987
806.262	0.0139464
806.340	0.0140839
806.418	0.0140437
806.496	0.0139982
806.575	0.0140913
806.653	0.0139590
806.731	0.0142012
806.809	0.0141497
806.887	0.0141281
806.965	0.0140544
807.043	0.0141557
807.121	0.0140285
807.200	0.0141148
807.278	0.0142837
807.356	0.0140969
807.434	0.0140771
807.512	0.0141975
807.590	0.0141753
807.668	0.0142272
807.746	0.0141438
807.825	0.0142131
807.903	0.0141763
807.981	0.0140895
808.059	0.0140154
808.137	0.0140946
808.215	0.0139557
808.293	0.0140575
808.371	0.0141960
808.450	0.0140945
808.528	0.0141051
808.606	0.0140675
808.684	0.0140822
808.762	0.0140189
808.840	0.0141132
808.918	0.0139951
808.996	0.0140777
809.075	0.0142315
809.153	0.0141778
809.231	0.0141144
809.309	0.0140164
809.387	0.0139661
809.465	0.0141349
809.543	0.0141474
809.621	0.0139907
809.700	0.0139780
809.778	0.0139722
809.856	0.0140138
809.934	0.0139911
810.012	0.0141338
810.090	0.0140010
810.168	0.0139352
810.246	0.0140298
810.325	0.0139717
810.403	0.0140055
810.481	0.0141358
810.559	0.0139455
810.637	0.0139171
810.715	0.0140787
810.793	0.0140949
810.871	0.0140546
810.950	0.0142297
811.028	0.0141816
811.106	0.0141974
811.184	0.0141378
811.262	0.0141354
811.340	0.0141003
811.418	0.0141753
811.496	0.0141208
811.575	0.0142039
811.653	0.0140511
811.731	0.0140826
811.809	0.0142085
811.887	0.0143454
811.965	0.0141914
812.043	0.0139407
812.121	0.0140543
812.200	0.0139816
812.278	0.0139273
812.356	0.0139069
812.434	0.0139787
812.512	0.0140711
812.590	0.0139986
812.668	0.0141425
812.746	0.0140729
812.825	0.0142551
812.903	0.0138890
812.981	0.0139390
813.059	0.0141353
813.137	0.0141285
813.215	0.0141939
813.293	0.0140791
813.371	0.0140266
813.450	0.0140694
813.528	0.0140337
813.606	0.0139902
813.684	0.0140658
813.762	0.0140070
813.840	0.0140120
813.918	0.0140163
813.996	0.0140003
814.075	0.0140591
814.153	0.0139658
814.231	0.0139725
814.309	0.0141100
814.387	0.0141364
814.465	0.0141189
814.543	0.0140306
814.621	0.0139844
814.700	0.0139420
814.778	0.0140939
814.856	0.0141741
814.934	0.0141037
815.012	0.0140989
815.090	0.0140712
815.168	0.0140556
815.246	0.0141235
815.325	0.0141589
815.403	0.0140531
815.481	0.0139280
815.559	0.0139882
815.637	0.0140069
815.715	0.0140673
815.793	0.0140578
815.871	0.0139435
815.950	0.0140760
816.028	0.0139325
816.106	0.0140578
816.184	0.0142063
816.262	0.0140086
816.340	0.0140602
816.418	0.0140636
816.496	0.0141837
816.575	0.0140232
816.653	0.0140460
816.731	0.0141864
816.809	0.0142285
816.887	0.0142564
816.965	0.0140941
817.043	0.0140517
817.121	0.0141312
817.200	0.0141687
817.278	0.0141843
817.356	0.0141956
817.434	0.0140721
817.512	0.0140946
817.590	0.0141164
817.668	0.0142583
817.746	0.0140036
817.825	0.0140787
817.903	0.0140844
817.981	0.0140135
818.059	0.0140337
818.137	0.0141585
818.215	0.0141397
818.293	0.0141219
818.371	0.0141168
818.450	0.0140903
818.528	0.0142522
818.606	0.0141047
818.684	0.0141645
818.762	0.0141687
818.840	0.0140697
818.918	0.0140748
818.996	0.0141652
819.075	0.0141571
819.153	0.0140951
819.231	0.0140335
819.309	0.0141042
819.387	0.0140614
819.465	0.0141988
819.543	0.0141444
819.621	0.0141186
819.700	0.0141112
819.778	0.0141421
819.856	0.0140403
819.934	0.0140358
820.012	0.0140418
820.090	0.0140874
820.168	0.0141767
820.246	0.0140758
820.325	0.0140205
820.403	0.0140613
820.481	0.0140430
820.559	0.0138883
820.637	0.0141999
820.715	0.0140381
820.793	0.0141064
820.871	0.0140464
820.950	0.0141610
821.028	0.0142046
821.106	0.0139734
821.184	0.0139809
821.262	0.0140536
821.340	0.0140759
821.418	0.0140939
821.496	0.0140086
821.575	0.0138887
821.653	0.0140427
821.731	0.0140394
821.809	0.0139725
821.887	0.0140541
821.965	0.0142659
822.043	0.0142149
822.121	0.0141294
822.200	0.0141266
822.278	0.0141278
822.356	0.0139763
822.434	0.0140439
822.512	0.0141426
822.590	0.0140880
822.668	0.0142351
822.746	0.0140926
822.825	0.0141671
822.903	0.0141802
822.981	0.0140865
823.059	0.0141010
823.137	0.0141831
823.215	0.0141700
823.293	0.0140547
823.371	0.0139668
823.450	0.0140137
823.528	0.0139452
823.606	0.0140472
823.684	0.0139196
823.762	0.0138960
823.840	0.0139353
823.918	0.0138995
823.996	0.0141100
824.075	0.0140435
824.153	0.0141623
824.231	0.0141811
824.309	0.0140398
824.387	0.0142066
824.465	0.0142731
824.543	0.0143521
824.621	0.0142839
824.700	0.0143380
824.778	0.0141792
824.856	0.0141719
824.934	0.0141618
825.012	0.0143074
825.090	0.0142268
825.168	0.0141968
825.246	0.0141301
825.325	0.0141660
825.403	0.0142793
825.481	0.0141278
825.559	0.0141308
825.637	0.0139386
825.715	0.0140864
825.793	0.0140693
825.871	0.0140226
825.950	0.0141134
826.028	0.0140740
826.106	0.0140749
826.184	0.0141011
826.262	0.0141132
826.340	0.0141702
826.418	0.0142886
826.496	0.0141991
826.575	0.0141364
826.653	0.0141907
826.731	0.0143720
826.809	0.0141180
826.887	0.0141806
826.965	0.0140919
827.043	0.0142398
827.121	0.0142155
827.200	0.0140736
827.278	0.0141486
827.356	0.0141286
827.434	0.0141402
827.512	0.0140607
827.590	0.0140689
827.668	0.0140823
827.746	0.0140893
827.825	0.0140034
827.903	0.0140222
827.981	0.0139494
828.059	0.0140706
828.137	0.0140930
828.215	0.0141143
828.293	0.0141212
828.371	0.0141281
828.450	0.0140865
828.528	0.0142321
828.606	0.0141505
828.684	0.0141489
828.762	0.0141830
828.840	0.0141019
828.918	0.0141898
828.996	0.0140378
829.075	0.0140515
829.153	0.0140405
829.231	0.0140231
829.309	0.0140275
829.387	0.0140373
829.465	0.0141606
829.543	0.0140622
829.621	0.0140331
829.700	0.0139502
829.778	0.0141379
829.856	0.0141801
829.934	0.0140474
830.012	0.0142188
830.090	0.0141671
830.168	0.0140942
830.246	0.0142148
830.325	0.0141824
830.403	0.0141035
830.481	0.0141155
830.559	0.0141392
830.637	0.0142320
830.715	0.0141972
830.793	0.0141372
830.871	0.0140084
830.950	0.0141773
831.028	0.0141991
831.106	0.0140652
831.184	0.0139758
831.262	0.0141288
831.340	0.0141286
831.418	0.0141129
831.496	0.0140732
831.575	0.0141429
831.653	0.0140412
831.731	0.0141032
831.809	0.0139624
831.887	0.0139168
831.965	0.0141408
832.043	0.0141132
832.121	0.0139337
832.200	0.0140139
832.278	0.0140533
832.356	0.0141959
832.434	0.0140762
832.512	0.0140538
832.590	0.0140434
832.668	0.0141550
832.746	0.0141445
832.825	0.0140936
832.903	0.0140123
832.981	0.0141060
833.059	0.0142194
833.137	0.0141908
833.215	0.0141345
833.293	0.0139799
833.371	0.0140682
833.450	0.0140472
833.528	0.0141680
833.606	0.0142442
833.684	0.0141993
833.762	0.0140525
833.840	0.0142006
833.918	0.0140881
833.996	0.0140381
834.075	0.0140546
834.153	0.0141132
834.231	0.0140679
834.309	0.0140766
834.387	0.0139404
834.465	0.0141053
834.543	0.0140393
834.621	0.0141180
834.700	0.0140858
834.778	0.0142085
834.856	0.0140850
834.934	0.0140366
835.012	0.0142093
835.090	0.0141061
835.168	0.0141046
835.246	0.0140409
835.325	0.0142354
835.403	0.0139813
835.481	0.0140088
835.559	0.0142091
835.637	0.0139918
835.715	0.0142605
835.793	0.0141613
835.871	0.0141664
835.950	0.0141912
836.028	0.0141493
836.106	0.0141713
836.184	0.0141457
836.262	0.0141389
836.340	0.0141146
836.418	0.0140442
836.496	0.0140289
836.575	0.0140469
836.653	0.0140813
836.731	0.0141030
836.809	0.0140581
836.887	0.0140496
836.965	0.0140749
837.043	0.0142064
837.121	0.0140958
837.200	0.0139382
837.278	0.0140229
837.356	0.0139918
837.434	0.0140246
837.512	0.0140153
837.590	0.0140235
837.668	0.0140712
837.746	0.0141364
837.825	0.0142075
837.903	0.0141075
837.981	0.0139253
838.059	0.0141354
838.137	0.0140862
838.215	0.0142861
838.293	0.0142598
838.371	0.0141417
838.450	0.0140995
838.528	0.0140861
838.606	0.0141485
838.684	0.0141657
838.762	0.0141280
838.840	0.0141383
838.918	0.0141700
838.996	0.0144177
839.075	0.0141278
839.153	0.0142371
839.231	0.0142243
839.309	0.0142037
839.387	0.0142572
839.465	0.0141705
839.543	0.0142591
839.621	0.0142561
839.700	0.0142469
839.778	0.0142631
839.856	0.0141886
839.934	0.0142381
840.012	0.0141142
840.090	0.0141194
840.168	0.0142461
840.246	0.0141156
840.325	0.0141353
840.403	0.0142680
840.481	0.0141709
840.559	0.0142336
840.637	0.0141766
840.715	0.0141541
840.793	0.0141375
840.871	0.0141760
840.950	0.0142991
841.028	0.0141174
841.106	0.0142178
841.184	0.0142082
841.262	0.0141879
841.340	0.0140768
841.418	0.0141980
841.496	0.0141553
841.575	0.0140482
841.653	0.0140517
841.731	0.0141573
841.809	0.0140340
841.887	0.0140521
841.965	0.0140728
842.043	0.0140974
842.121	0.0140459
842.200	0.0139735
842.278	0.0140159
842.356	0.0141165
842.434	0.0141565
842.512	0.0141198
842.590	0.0140147
842.668	0.0139078
842.746	0.0141000
842.825	0.0142583
842.903	0.0141565
842.981	0.0142541
843.059	0.0141534
843.137	0.0140759
843.215	0.0143973
843.293	0.0142908
843.371	0.0143253
843.450	0.0143047
843.528	0.0141437
843.606	0.0143317
843.684	0.0141911
843.762	0.0141705
843.840	0.0141385
843.918	0.0141473
843.996	0.0140520
844.075	0.0141169
844.153	0.0141176
844.231	0.0141116
844.309	0.0139552
844.387	0.0140987
844.465	0.0142074
844.543	0.0140970
844.621	0.0141074
844.700	0.0139622
844.778	0.0140086
844.856	0.0140853
844.934	0.0141930
845.012	0.0142323
845.090	0.0142106
845.168	0.0140946
845.246	0.0141992
845.325	0.0142470
845.403	0.0141480
845.481	0.0142525
845.559	0.0141296
845.637	0.0140433
845.715	0.0139655
845.793	0.0139907
845.871	0.0140609
845.950	0.0141621
846.028	0.0139497
846.106	0.0140005
846.184	0.0140326
846.262	0.0140311
846.340	0.0139694
846.418	0.0139433
846.496	0.0141862
846.575	0.0141193
846.653	0.0140736
846.731	0.0139886
846.809	0.0140114
846.887	0.0140902
846.965	0.0141537
847.043	0.0140187
847.121	0.0141425
847.200	0.0142233
847.278	0.0140711
847.356	0.0140687
847.434	0.0141444
847.512	0.0141397
847.590	0.0141742
847.668	0.0141698
847.746	0.0142035
847.825	0.0140870
847.903	0.0141732
847.981	0.0141218
848.059	0.0141910
848.137	0.0141562
848.215	0.0141347
848.293	0.0141540
848.371	0.0141150
848.450	0.0141530
848.528	0.0141994
848.606	0.0142903
848.684	0.0142042
848.762	0.0141126
848.840	0.0140987
848.918	0.0140961
848.996	0.0141588
849.075	0.0139838
849.153	0.0139880
849.231	0.0139660
849.309	0.0140598
849.387	0.0140623
849.465	0.0141485
849.543	0.0139494
849.621	0.0139128
849.700	0.0140337
849.778	0.0141237
849.856	0.0142448
849.934	0.0140775
850.012	0.0140961
850.090	0.0141847
850.168	0.0142548
850.246	0.0142038
850.325	0.0141512
850.403	0.0141216
850.481	0.0140983
850.559	0.0142061
850.637	0.0142994
850.715	0.0142191
850.793	0.0140974
850.871	0.0141029
850.950	0.0141687
851.028	0.0142054
851.106	0.0141778
851.184	0.0141230
851.262	0.0140215
851.340	0.0139377
851.418	0.0142587
851.496	0.0141279
851.575	0.0139352
851.653	0.0140578
851.731	0.0139792
851.809	0.0141721
851.887	0.0141917
851.965	0.0140255
852.043	0.0140765
852.121	0.0141538
852.200	0.0141626
852.278	0.0139768
852.356	0.0141785
852.434	0.0141953
852.512	0.0141222
852.590	0.0141369
852.668	0.0142091
852.746	0.0143235
852.825	0.0140624
852.903	0.0141235
852.981	0.0142892
853.059	0.0143226
853.137	0.0141002
853.215	0.0141781
853.293	0.0140279
853.371	0.0140855
853.450	0.0141082
853.528	0.0139830
853.606	0.0140894
853.684	0.0141644
853.762	0.0139775
853.840	0.0139535
853.918	0.0140799
853.996	0.0141173
854.075	0.0140970
854.153	0.0140385
854.231	0.0142323
854.309	0.0141023
854.387	0.0142289
854.465	0.0140453
854.543	0.0140648
854.621	0.0140948
854.700	0.0142309
854.778	0.0141432
854.856	0.0141189
854.934	0.0142500
855.012	0.0140828
855.090	0.0142051
855.168	0.0141956
855.246	0.0141218
855.325	0.0141321
855.403	0.0142685
855.481	0.0141030
855.559	0.0140411
855.637	0.0141214
855.715	0.0141338
855.793	0.0140128
855.871	0.0140855
855.950	0.0139986
856.028	0.0140449
856.106	0.0140308
856.184	0.0140528
856.262	0.0139857
856.340	0.0139604
856.418	0.0139776
856.496	0.0140088
856.575	0.0139676
856.653	0.0141595
856.731	0.0141045
856.809	0.0140042
856.887	0.0140126
856.965	0.0139857
857.043	0.0140292
857.121	0.0140497
857.200	0.0140553
857.278	0.0142111
857.356	0.0139903
857.434	0.0140521
857.512	0.0142195
857.590	0.0142242
857.668	0.0142525
857.746	0.0142521
857.825	0.0141305
857.903	0.0141486
857.981	0.0138466
858.059	0.0139623
858.137	0.0141031
858.215	0.0141613
858.293	0.0140600
858.371	0.0140762
858.450	0.0139844
858.528	0.0140065
858.606	0.0140186
858.684	0.0140426
858.762	0.0139268
858.840	0.0139472
858.918	0.0139028
858.996	0.0140075
859.075	0.0140815
859.153	0.0140638
859.231	0.0141107
859.309	0.0140641
859.387	0.0141413
859.465	0.0142165
859.543	0.0142586
859.621	0.0140897
859.700	0.0142168
859.778	0.0142163
859.856	0.0142548
859.934	0.0142236
860.012	0.0142633
860.090	0.0143481
860.168	0.0141313
860.246	0.0142333
860.325	0.0142926
860.403	0.0143096
860.481	0.0140884
860.559	0.0139819
860.637	0.0140288
860.715	0.0139803
860.793	0.0141135
860.871	0.0142216
860.950	0.0139562
861.028	0.0138972
861.106	0.0139706
861.184	0.0139568
861.262	0.0140103
861.340	0.0141706
861.418	0.0138284
861.496	0.0139764
861.575	0.0141491
861.653	0.0141022
861.731	0.0141219
861.809	0.0141845
861.887	0.0140826
861.965	0.0140476
862.043	0.0141226
862.121	0.0142242
862.200	0.0141751
862.278	0.0141607
862.356	0.0141631
862.434	0.0142397
862.512	0.0140735
862.590	0.0141389
862.668	0.0140859
862.746	0.0141212
862.825	0.0140633
862.903	0.0142262
862.981	0.0140723
863.059	0.0141248
863.137	0.0139809
863.215	0.0139816
863.293	0.0141043
863.371	0.0140543
863.450	0.0138905
863.528	0.0140945
863.606	0.0141515
863.684	0.0139189
863.762	0.0140016
863.840	0.0140546
863.918	0.0141611
863.996	0.0141123
864.075	0.0142014
864.153	0.0140797
864.231	0.0142094
864.309	0.0142369
864.387	0.0141627
864.465	0.0141895
864.543	0.0141643
864.621	0.0142507
864.700	0.0142082
864.778	0.0142567
864.856	0.0142988
864.934	0.0142635
865.012	0.0143393
865.090	0.0142754
865.168	0.0140759
865.246	0.0140958
865.325	0.0141162
865.403	0.0141004
865.481	0.0140746
865.559	0.0141772
865.637	0.0140395
865.715	0.0139651
865.793	0.0140812
865.871	0.0140629
865.950	0.0140060
866.028	0.0140345
866.106	0.0141543
866.184	0.0140767
866.262	0.0140695
866.340	0.0141450
866.418	0.0141360
866.496	0.0142146
866.575	0.0141898
866.653	0.0140454
866.731	0.0141915
866.809	0.0141972
866.887	0.0139768
866.965	0.0139953
867.043	0.0141380
867.121	0.0141854
867.200	0.0142055
867.278	0.0140829
867.356	0.0140163
867.434	0.0141102
867.512	0.0142121
867.590	0.0140591
867.668	0.0140385
867.746	0.0141439
867.825	0.0139822
867.903	0.0140857
867.981	0.0140701
868.059	0.0140574
868.137	0.0140862
868.215	0.0139880
868.293	0.0140002
868.371	0.0141608
868.450	0.0142053
868.528	0.0139286
868.606	0.0141228
868.684	0.0141619
868.762	0.0139956
868.840	0.0140034
868.918	0.0141309
868.996	0.0141522
869.075	0.0140672
869.153	0.0142019
869.231	0.0141431
869.309	0.0141866
869.387	0.0141183
869.465	0.0142818
869.543	0.0141008
869.621	0.0141958
869.700	0.0140997
869.778	0.0141562
869.856	0.0141026
869.934	0.0141903
870.012	0.0140915
870.090	0.0140597
870.168	0.0140478
870.246	0.0140492
870.325	0.0140909
870.403	0.0140124
870.481	0.0140540
870.559	0.0141827
870.637	0.0140970
870.715	0.0140303
870.793	0.0140448
870.871	0.0140451
870.950	0.0140141
871.028	0.0140224
871.106	0.0140478
871.184	0.0140686
871.262	0.0140478
871.340	0.0141495
871.418	0.0141682
871.496	0.0140629
871.575	0.0140249
871.653	0.0142352
871.731	0.0142680
871.809	0.0141714
871.887	0.0141091
871.965	0.0141809
872.043	0.0142525
872.121	0.0141898
872.200	0.0141614
872.278	0.0140458
872.356	0.0141463
872.434	0.0141625
872.512	0.0141553
872.590	0.0141383
872.668	0.0139497
872.746	0.0140540
872.825	0.0141643
872.903	0.0139780
872.981	0.0139656
873.059	0.0141039
873.137	0.0139910
873.215	0.0140461
873.293	0.0141765
873.371	0.0140083
873.450	0.0140810
873.528	0.0140501
873.606	0.0140866
873.684	0.0141738
873.762	0.0139942
873.840	0.0139765
873.918	0.0140863
873.996	0.0142741
874.075	0.0141343
874.153	0.0141484
874.231	0.0142017
874.309	0.0141737
874.387	0.0142539
874.465	0.0141470
874.543	0.0141802
874.621	0.0140491
874.700	0.0140462
874.778	0.0139838
874.856	0.0139568
874.934	0.0141362
875.012	0.0141290
875.090	0.0140715
875.168	0.0140549
875.246	0.0141586
875.325	0.0140186
875.403	0.0140646
875.481	0.0140968
875.559	0.0139008
875.637	0.0140878
875.715	0.0139991
875.793	0.0140754
875.871	0.0141061
875.950	0.0139906
876.028	0.0140735
876.106	0.0142078
876.184	0.0141740
876.262	0.0141854
876.340	0.0140447
876.418	0.0139815
876.496	0.0140128
876.575	0.0141867
876.653	0.0141930
876.731	0.0142238
876.809	0.0141610
876.887	0.0143197
876.965	0.0142287
877.043	0.0140186
877.121	0.0140540
877.200	0.0141397
877.278	0.0141467
877.356	0.0139977
877.434	0.0140408
877.512	0.0141763
877.590	0.0142095
877.668	0.0141354
877.746	0.0141493
877.825	0.0142728
877.903	0.0141618
877.981	0.0141386
878.059	0.0141212
878.137	0.0141201
878.215	0.0141437
878.293	0.0143107
878.371	0.0140174
878.450	0.0142338
878.528	0.0141142
878.606	0.0139874
878.684	0.0139867
878.762	0.0141106
878.840	0.0140796
878.918	0.0140434
878.996	0.0140285
879.075	0.0141184
879.153	0.0141023
879.231	0.0139828
879.309	0.0141380
879.387	0.0139583
879.465	0.0140916
879.543	0.0140128
879.621	0.0141090
879.700	0.0141369
879.778	0.0141585
879.856	0.0140440
879.934	0.0141264
880.012	0.0140975
880.090	0.0141685
880.168	0.0141821
880.246	0.0141142
880.325	0.0141461
880.403	0.0142271
880.481	0.0141796
880.559	0.0140638
880.637	0.0141390
880.715	0.0140981
880.793	0.0141010
880.871	0.0141069
880.950	0.0139211
881.028	0.0141566
881.106	0.0140585
881.184	0.0140707
881.262	0.0140310
881.340	0.0141589
881.418	0.0141171
881.496	0.0140981
881.575	0.0140500
881.653	0.0141177
881.731	0.0141357
881.809	0.0141344
881.887	0.0140018
881.965	0.0138927
882.043	0.0140618
882.121	0.0141051
882.200	0.0141634
882.278	0.0141756
882.356	0.0140905
882.434	0.0142690
882.512	0.0141308
882.590	0.0140791
882.668	0.0140636
882.746	0.0140929
882.825	0.0139960
882.903	0.0140046
882.981	0.0140634
883.059	0.0140244
883.137	0.0139908
883.215	0.0140575
883.293	0.0140008
883.371	0.0140149
883.450	0.0142098
883.528	0.0140198
883.606	0.0139842
883.684	0.0140237
883.762	0.0140897
883.840	0.0140904
883.918	0.0142547
883.996	0.0141448
884.075	0.0142014
884.153	0.0140371
884.231	0.0140595
884.309	0.0140742
884.387	0.0140892
884.465	0.0140693
884.543	0.0140440
884.621	0.0141732
884.700	0.0139996
884.778	0.0139743
884.856	0.0141914
884.934	0.0140803
885.012	0.0139154
885.090	0.0141068
885.168	0.0140903
885.246	0.0140450
885.325	0.0140494
885.403	0.0140881
885.481	0.0140388
885.559	0.0140025
885.637	0.0139857
885.715	0.0141934
885.793	0.0142024
885.871	0.0141016
885.950	0.0141166
886.028	0.0140464
886.106	0.0141489
886.184	0.0140440
886.262	0.0139818
886.340	0.0140043
886.418	0.0140356
886.496	0.0141032
886.575	0.0140417
886.653	0.0139864
886.731	0.0139729
886.809	0.0140289
886.887	0.0140202
886.965	0.0140051
887.043	0.0141073
887.121	0.0140249
887.200	0.0140872
887.278	0.0140601
887.356	0.0140385
887.434	0.0140778
887.512	0.0141042
887.590	0.0140612
887.668	0.0140385
887.746	0.0142178
887.825	0.0141738
887.903	0.0140639
887.981	0.0141827
888.059	0.0141437
888.137	0.0142811
888.215	0.0142825
888.293	0.0143326
888.371	0.0142622
888.450	0.0140993
888.528	0.0141762
888.606	0.0142223
888.684	0.0142484
888.762	0.0140882
888.840	0.0141830
888.918	0.0142297
888.996	0.0142365
889.075	0.0140318
889.153	0.0141058
889.231	0.0140224
889.309	0.0140450
889.387	0.0142171
889.465	0.0139445
889.543	0.0140596
889.621	0.0141158
889.700	0.0141576
889.778	0.0141115
889.856	0.0142216
889.934	0.0141258
890.012	0.0141015
890.090	0.0142337
890.168	0.0140781
890.246	0.0140446
890.325	0.0140912
890.403	0.0141006
890.481	0.0140923
890.559	0.0140854
890.637	0.0141138
890.715	0.0141442
890.793	0.0140733
890.871	0.0140797
890.950	0.0140475
891.028	0.0141566
891.106	0.0140713
891.184	0.0140254
891.262	0.0139817
891.340	0.0140417
891.418	0.0139953
891.496	0.0139540
891.575	0.0140224
891.653	0.0140292
891.731	0.0140649
891.809	0.0139718
891.887	0.0140028
891.965	0.0140490
892.043	0.0140607
892.121	0.0141461
892.200	0.0141685
892.278	0.0140298
892.356	0.0141021
892.434	0.0140372
892.512	0.0140999
892.590	0.0141317
892.668	0.0141304
892.746	0.0141264
892.825	0.0140602
892.903	0.0140665
892.981	0.0140363
893.059	0.0140933
893.137	0.0140215
893.215	0.0140135
893.293	0.0141066
893.371	0.0137819
893.450	0.0139404
893.528	0.0140142
893.606	0.0139560
893.684	0.0140221
893.762	0.0140987
893.840	0.0140005
893.918	0.0140881
893.996	0.0139764
894.075	0.0140602
894.153	0.0140072
894.231	0.0140021
894.309	0.0140337
894.387	0.0140675
894.465	0.0140888
894.543	0.0141100
894.621	0.0140147
894.700	0.0140302
894.778	0.0140490
894.856	0.0140299
894.934	0.0140201
895.012	0.0141728
895.090	0.0141325
895.168	0.0139654
895.246	0.0140247
895.325	0.0140549
895.403	0.0141951
895.481	0.0141161
895.559	0.0139706
895.637	0.0140975
895.715	0.0141516
895.793	0.0140495
895.871	0.0139417
895.950	0.0138846
896.028	0.0140181
896.106	0.0140685
896.184	0.0140946
896.262	0.0141271
896.340	0.0141158
896.418	0.0140134
896.496	0.0141409
896.575	0.0140795
896.653	0.0140495
896.731	0.0142575
896.809	0.0141370
896.887	0.0140836
896.965	0.0141850
897.043	0.0140440
897.121	0.0141004
897.200	0.0140758
897.278	0.0140854
897.356	0.0139454
897.434	0.0141045
897.512	0.0140556
897.590	0.0141360
897.668	0.0139824
897.746	0.0140221
897.825	0.0141051
897.903	0.0139497
897.981	0.0141229
898.059	0.0141190
898.137	0.0139986
898.215	0.0140936
898.293	0.0140804
898.371	0.0141951
898.450	0.0141582
898.528	0.0140824
898.606	0.0141169
898.684	0.0141393
898.762	0.0141470
898.840	0.0140545
898.918	0.0140816
898.996	0.0140110
899.075	0.0141270
899.153	0.0141061
899.231	0.0140717
899.309	0.0141415
899.387	0.0140568
899.465	0.0140234
899.543	0.0140950
899.621	0.0141228
899.700	0.0140568
899.778	0.0140272
899.856	0.0141390
899.934	0.0140746
900.012	0.0139600
900.090	0.0142020
900.168	0.0141936
900.246	0.0141595
900.325	0.0141056
900.403	0.0140829
900.481	0.0140409
900.559	0.0141212
900.637	0.0142133
900.715	0.0141697
900.793	0.0141544
900.871	0.0141287
900.950	0.0140919
901.028	0.0142518
901.106	0.0141270
901.184	0.0141376
901.262	0.0141239
901.340	0.0140844
901.418	0.0140889
901.496	0.0141537
901.575	0.0140228
901.653	0.0140575
901.731	0.0141546
901.809	0.0141027
901.887	0.0140740
901.965	0.0141687
902.043	0.0141073
902.121	0.0141101
902.200	0.0142257
902.278	0.0140608
902.356	0.0140858
902.434	0.0140244
902.512	0.0140656
902.590	0.0139730
902.668	0.0140139
902.746	0.0141083
902.825	0.0140652
902.903	0.0139955
902.981	0.0139030
903.059	0.0139164
903.137	0.0138829
903.215	0.0138880
903.293	0.0139256
903.371	0.0140128
903.450	0.0140006
903.528	0.0140775
903.606	0.0139836
903.684	0.0141502
903.762	0.0141432
903.840	0.0141116
903.918	0.0141184
903.996	0.0140318
904.075	0.0141920
904.153	0.0141013
904.231	0.0141398
904.309	0.0138992
904.387	0.0140545
904.465	0.0141201
904.543	0.0139783
904.621	0.0140926
904.700	0.0140883
904.778	0.0139626
904.856	0.0139764
904.934	0.0140368
905.012	0.0141095
905.090	0.0141242
905.168	0.0141677
905.246	0.0140933
905.325	0.0141917
905.403	0.0141750
905.481	0.0140021
905.559	0.0139688
905.637	0.0141132
905.715	0.0140469
905.793	0.0140950
905.871	0.0139357
905.950	0.0139530
906.028	0.0140997
906.106	0.0140635
906.184	0.0140905
906.262	0.0140742
906.340	0.0141483
906.418	0.0141251
906.496	0.0142386
906.575	0.0142706
906.653	0.0142883
906.731	0.0142112
906.809	0.0142955
906.887	0.0142698
906.965	0.0142344
907.043	0.0142116
907.121	0.0141385
907.200	0.0140873
907.278	0.0141751
907.356	0.0140783
907.434	0.0139507
907.512	0.0140627
907.590	0.0140196
907.668	0.0139053
907.746	0.0139554
907.825	0.0140368
907.903	0.0139540
907.981	0.0139833
908.059	0.0139969
908.137	0.0139845
908.215	0.0140474
908.293	0.0142603
908.371	0.0141582
908.450	0.0143359
908.528	0.0142069
908.606	0.0141245
908.684	0.0142984
908.762	0.0142982
908.840	0.0141399
908.918	0.0141974
908.996	0.0142740
909.075	0.0142383
909.153	0.0141670
909.231	0.0141234
909.309	0.0143032
909.387	0.0141866
909.465	0.0141283
909.543	0.0140811
909.621	0.0140574
909.700	0.0140869
909.778	0.0142519
909.856	0.0139737
909.934	0.0141199
910.012	0.0140485
910.090	0.0141344
910.168	0.0140560
910.246	0.0140784
910.325	0.0140334
910.403	0.0141280
910.481	0.0142315
910.559	0.0140009
910.637	0.0141150
910.715	0.0140880
910.793	0.0140805
910.871	0.0140954
910.950	0.0142339
911.028	0.0141766
911.106	0.0140891
911.184	0.0141216
911.262	0.0142046
911.340	0.0141602
911.418	0.0141996
911.496	0.0142563
911.575	0.0142756
911.653	0.0143239
911.731	0.0143288
911.809	0.0141112
911.887	0.0142849
911.965	0.0142130
912.043	0.0141341
912.121	0.0140425
912.200	0.0140621
912.278	0.0140551
912.356	0.0140113
912.434	0.0140331
912.512	0.0139939
912.590	0.0138164
912.668	0.0140208
912.746	0.0140111
912.825	0.0140517
912.903	0.0140498
912.981	0.0141138
913.059	0.0140825
913.137	0.0140338
913.215	0.0141586
913.293	0.0142891
913.371	0.0142792
913.450	0.0143500
913.528	0.0143161
913.606	0.0143553
913.684	0.0143029
913.762	0.0143085
913.840	0.0142919
913.918	0.0142358
913.996	0.0140948
914.075	0.0140520
914.153	0.0139136
914.231	0.0138564
914.309	0.0139264
914.387	0.0138445
914.465	0.0137592
914.543	0.0139157
914.621	0.0139282
914.700	0.0138410
914.778	0.0139950
914.856	0.0139542
914.934	0.0141327
915.012	0.0141320
915.090	0.0142032
915.168	0.0143500
915.246	0.0143150
915.325	0.0143363
915.403	0.0143834
915.481	0.0144461
915.559	0.0143973
915.637	0.0142561
915.715	0.0145206
915.793	0.0142889
915.871	0.0142265
915.950	0.0142228
916.028	0.0140980
916.106	0.0140171
916.184	0.0139494
916.262	0.0140148
916.340	0.0139836
916.418	0.0138534
916.496	0.0139110
916.575	0.0140875
916.653	0.0139375
916.731	0.0139733
916.809	0.0140255
916.887	0.0141268
916.965	0.0140926
917.043	0.0141377
917.121	0.0141002
917.200	0.0141129
917.278	0.0140940
917.356	0.0142484
917.434	0.0143292
917.512	0.0142684
917.590	0.0142468
917.668	0.0141965
917.746	0.0141378
917.825	0.0141869
917.903	0.0140223
917.981	0.0140707
918.059	0.0140331
918.137	0.0141963
918.215	0.0140456
918.293	0.0139021
918.371	0.0140756
918.450	0.0140656
918.528	0.0141091
918.606	0.0141364
918.684	0.0141122
918.762	0.0140903
918.840	0.0139755
918.918	0.0141193
918.996	0.0141998
919.075	0.0141766
919.153	0.0140458
919.231	0.0142223
919.309	0.0144530
919.387	0.0143992
919.465	0.0143623
919.543	0.0142516
919.621	0.0143250
919.700	0.0142221
919.778	0.0141512
919.856	0.0142080
919.934	0.0141264
920.012	0.0142321
920.090	0.0139008
920.168	0.0140225
920.246	0.0139977
920.325	0.0140603
920.403	0.0141069
920.481	0.0138602
920.559	0.0140021
920.637	0.0139343
920.715	0.0138940
920.793	0.0140979
920.871	0.0140855
920.950	0.0141277
921.028	0.0142612
921.106	0.0143470
921.184	0.0143236
921.262	0.0142464
921.340	0.0143279
921.418	0.0142982
921.496	0.0143111
921.575	0.0143048
921.653	0.0142645
921.731	0.0142662
921.809	0.0142294
921.887	0.0140378
921.965	0.0141087
922.043	0.0140702
922.121	0.0139925
922.200	0.0140395
922.278	0.0139377
922.356	0.0141280
922.434	0.0139085
922.512	0.0139607
922.590	0.0140675
922.668	0.0139713
922.746	0.0141420
922.825	0.0140549
922.903	0.0140849
922.981	0.0141093
923.059	0.0141930
923.137	0.0141556
923.215	0.0142167
923.293	0.0142930
923.371	0.0142342
923.450	0.0142242
923.528	0.0142985
923.606	0.0143935
923.684	0.0142211
923.762	0.0141277
923.840	0.0139862
923.918	0.0139366
923.996	0.0140667
924.075	0.0141435
924.153	0.0140320
924.231	0.0141862
924.309	0.0140954
924.387	0.0140742
924.465	0.0141688
924.543	0.0140497
924.621	0.0140016
924.700	0.0139748
924.778	0.0140578
924.856	0.0140219
924.934	0.0140855
925.012	0.0141842
925.090	0.0141776
925.168	0.0141222
925.246	0.0141094
925.325	0.0140945
925.403	0.0142336
925.481	0.0140701
925.559	0.0140302
925.637	0.0141686
925.715	0.0140707
925.793	0.0140678
925.871	0.0141061
925.950	0.0141070
926.028	0.0140447
926.106	0.0140636
926.184	0.0140967
926.262	0.0138836
926.340	0.0138264
926.418	0.0140069
926.496	0.0139483
926.575	0.0141212
926.653	0.0140206
926.731	0.0140425
926.809	0.0139736
926.887	0.0140646
926.965	0.0139654
927.043	0.0139198
927.121	0.0140467
927.200	0.0140778
927.278	0.0141267
927.356	0.0141190
927.434	0.0141482
927.512	0.0140741
927.590	0.0140085
927.668	0.0142339
927.746	0.0143359
927.825	0.0141692
927.903	0.0142387
927.981	0.0142233
928.059	0.0141906
928.137	0.0141019
928.215	0.0142524
928.293	0.0140688
928.371	0.0141364
928.450	0.0141602
928.528	0.0141534
928.606	0.0140319
928.684	0.0140456
928.762	0.0141256
928.840	0.0140880
928.918	0.0141095
928.996	0.0141132
929.075	0.0140019
929.153	0.0141073
929.231	0.0141320
929.309	0.0140391
929.387	0.0142553
929.465	0.0141504
929.543	0.0142719
929.621	0.0144042
929.700	0.0142810
929.778	0.0142345
929.856	0.0143510
929.934	0.0142854
930.012	0.0143664
930.090	0.0143403
930.168	0.0142139
930.246	0.0144472
930.325	0.0142598
930.403	0.0141764
930.481	0.0141312
930.559	0.0141827
930.637	0.0142371
930.715	0.0141397
930.793	0.0141463
930.871	0.0141251
930.950	0.0140680
931.028	0.0139863
931.106	0.0141827
931.184	0.0138837
931.262	0.0139876
931.340	0.0139977
931.418	0.0141256
931.496	0.0139958
931.575	0.0141204
931.653	0.0140720
931.731	0.0141074
931.809	0.0140012
931.887	0.0141373
931.965	0.0141262
932.043	0.0141285
932.121	0.0140737
932.200	0.0141944
932.278	0.0141613
932.356	0.0141586
932.434	0.0142223
932.512	0.0142607
932.590	0.0141688
932.668	0.0141908
932.746	0.0142667
932.825	0.0141539
932.903	0.0141611
932.981	0.0142142
933.059	0.0141338
933.137	0.0141280
933.215	0.0141905
933.293	0.0141618
933.371	0.0141135
933.450	0.0140794
933.528	0.0142157
933.606	0.0141534
933.684	0.0141542
933.762	0.0141903
933.840	0.0141885
933.918	0.0142015
933.996	0.0142482
934.075	0.0141588
934.153	0.0142594
934.231	0.0140445
934.309	0.0142816
934.387	0.0143142
934.465	0.0141469
934.543	0.0141228
934.621	0.0141788
934.700	0.0141766
934.778	0.0141129
934.856	0.0142153
934.934	0.0140203
935.012	0.0141667
935.090	0.0140921
935.168	0.0141540
935.246	0.0141393
935.325	0.0141725
935.403	0.0140641
935.481	0.0141172
935.559	0.0140601
935.637	0.0139950
935.715	0.0142299
935.793	0.0141780
935.871	0.0141860
935.950	0.0140885
936.028	0.0139646
936.106	0.0142182
936.184	0.0142315
936.262	0.0141827
936.340	0.0140877
936.418	0.0141317
936.496	0.0143082
936.575	0.0143604
936.653	0.0141991
936.731	0.0142444
936.809	0.0139578
936.887	0.0141695
936.965	0.0142046
937.043	0.0140118
937.121	0.0142767
937.200	0.0142657
937.278	0.0140856
937.356	0.0140773
937.434	0.0141972
937.512	0.0140448
937.590	0.0140758
937.668	0.0140500
937.746	0.0141087
937.825	0.0141803
937.903	0.0140678
937.981	0.0141361
938.059	0.0141078
938.137	0.0140177
938.215	0.0140973
938.293	0.0141277
938.371	0.0142706
938.450	0.0141572
938.528	0.0139818
938.606	0.0139995
938.684	0.0141776
938.762	0.0140782
938.840	0.0140175
938.918	0.0140553
938.996	0.0141849
939.075	0.0141556
939.153	0.0141436
939.231	0.0141415
939.309	0.0142090
939.387	0.0141348
939.465	0.0140668
939.543	0.0142377
939.621	0.0142451
939.700	0.0141473
939.778	0.0141846
939.856	0.0141282
939.934	0.0140971
940.012	0.0141885
940.090	0.0141668
940.168	0.0140748
940.246	0.0140222
940.325	0.0140066
940.403	0.0141212
940.481	0.0140600
940.559	0.0140078
940.637	0.0141249
940.715	0.0139906
940.793	0.0139574
940.871	0.0139949
940.950	0.0139372
941.028	0.0139185
941.106	0.0140962
941.184	0.0141237
941.262	0.0140641
941.340	0.0139484
941.418	0.0140464
941.496	0.0140660
941.575	0.0141380
941.653	0.0141615
941.731	0.0141805
941.809	0.0142551
941.887	0.0142133
941.965	0.0141854
942.043	0.0141286
942.121	0.0141476
942.200	0.0141669
942.278	0.0141309
942.356	0.0140588
942.434	0.0140957
942.512	0.0139585
942.590	0.0140436
942.668	0.0140594
942.746	0.0138807
942.825	0.0139404
942.903	0.0141182
942.981	0.0141026
943.059	0.0139835
943.137	0.0140875
943.215	0.0139928
943.293	0.0140128
943.371	0.0140897
943.450	0.0142007
943.528	0.0142248
943.606	0.0141855
943.684	0.0141673
943.762	0.0141817
943.840	0.0140900
943.918	0.0142351
943.996	0.0141228
944.075	0.0141306
944.153	0.0140978
944.231	0.0140952
944.309	0.0139760
944.387	0.0139553
944.465	0.0140913
944.543	0.0139883
944.621	0.0140086
944.700	0.0141573
944.778	0.0141193
944.856	0.0141321
944.934	0.0141771
945.012	0.0140901
945.090	0.0141389
945.168	0.0140508
945.246	0.0142011
945.325	0.0141799
945.403	0.0142870
945.481	0.0140861
945.559	0.0142507
945.637	0.0141534
945.715	0.0140884
945.793	0.0140821
945.871	0.0142364
945.950	0.0141428
946.028	0.0141179
946.106	0.0141823
946.184	0.0141834
946.262	0.0140063
946.340	0.0141417
946.418	0.0141913
946.496	0.0143312
946.575	0.0140890
946.653	0.0141142
946.731	0.0140384
946.809	0.0142301
946.887	0.0140962
946.965	0.0141299
947.043	0.0141326
947.121	0.0140196
947.200	0.0140414
947.278	0.0140674
947.356	0.0141679
947.434	0.0141327
947.512	0.0140977
947.590	0.0140077
947.668	0.0142112
947.746	0.0140633
947.825	0.0141023
947.903	0.0140794
947.981	0.0140371
948.059	0.0140016
948.137	0.0141429
948.215	0.0142185
948.293	0.0141470
948.371	0.0141979
948.450	0.0141683
948.528	0.0140816
948.606	0.0143164
948.684	0.0142322
948.762	0.0143036
948.840	0.0142205
948.918	0.0140704
948.996	0.0141151
949.075	0.0142725
949.153	0.0141383
949.231	0.0141332
949.309	0.0141804
949.387	0.0140443
949.465	0.0140910
949.543	0.0141656
949.621	0.0141116
949.700	0.0141771
949.778	0.0141700
949.856	0.0140677
949.934	0.0141007
950.012	0.0139834
950.090	0.0139642
950.168	0.0140852
950.246	0.0138914
950.325	0.0139047
950.403	0.0141106
950.481	0.0140901
950.559	0.0141771
950.637	0.0140182
950.715	0.0140765
950.793	0.0141592
950.871	0.0141467
950.950	0.0140728
951.028	0.0140907
951.106	0.0140026
951.184	0.0140582
951.262	0.0139993
951.340	0.0140598
951.418	0.0142674
951.496	0.0140138
951.575	0.0142190
951.653	0.0142057
951.731	0.0140491
951.809	0.0141611
951.887	0.0141458
951.965	0.0140905
952.043	0.0141282
952.121	0.0140777
952.200	0.0140490
952.278	0.0139870
952.356	0.0140324
952.434	0.0140701
952.512	0.0141108
952.590	0.0139437
952.668	0.0140774
952.746	0.0140158
952.825	0.0138448
952.903	0.0139331
952.981	0.0140295
953.059	0.0140400
953.137	0.0140464
953.215	0.0140871
953.293	0.0140530
953.371	0.0139107
953.450	0.0141134
953.528	0.0141167
953.606	0.0141927
953.684	0.0141554
953.762	0.0141043
953.840	0.0141763
953.918	0.0141412
953.996	0.0142128
954.075	0.0139777
954.153	0.0140472
954.231	0.0139789
954.309	0.0140359
954.387	0.0140758
954.465	0.0139873
954.543	0.0141480
954.621	0.0142538
954.700	0.0141386
954.778	0.0141030
954.856	0.0139059
954.934	0.0140747
955.012	0.0141586
955.090	0.0142128
955.168	0.0142298
955.246	0.0142377
955.325	0.0141813
955.403	0.0140939
955.481	0.0141341
955.559	0.0141447
955.637	0.0139945
955.715	0.0141514
955.793	0.0141982
955.871	0.0142680
955.950	0.0141392
956.028	0.0140829
956.106	0.0140229
956.184	0.0140913
956.262	0.0142412
956.340	0.0141638
956.418	0.0139809
956.496	0.0140238
956.575	0.0141187
956.653	0.0141070
956.731	0.0140768
956.809	0.0141111
956.887	0.0142033
956.965	0.0141302
957.043	0.0140937
957.121	0.0141080
957.200	0.0140681
957.278	0.0139780
957.356	0.0141723
957.434	0.0141918
957.512	0.0139876
957.590	0.0141427
957.668	0.0141775
957.746	0.0142221
957.825	0.0141079
957.903	0.0141083
957.981	0.0140900
958.059	0.0140504
958.137	0.0139397
958.215	0.0140670
958.293	0.0141727
958.371	0.0141745
958.450	0.0141526
958.528	0.0142080
958.606	0.0140465
958.684	0.0140456
958.762	0.0140904
958.840	0.0141916
958.918	0.0141229
958.996	0.0141463
959.075	0.0141024
959.153	0.0141573
959.231	0.0142405
959.309	0.0143541
959.387	0.0141634
959.465	0.0141590
959.543	0.0140459
959.621	0.0142393
959.700	0.0142175
959.778	0.0140679
959.856	0.0142400
959.934	0.0141361
960.012	0.0141017
960.090	0.0141158
960.168	0.0140302
960.246	0.0140585
960.325	0.0139910
960.403	0.0138838
960.481	0.0140702
960.559	0.0141354
960.637	0.0140440
960.715	0.0141397
960.793	0.0141454
960.871	0.0141393
960.950	0.0140797
961.028	0.0139889
961.106	0.0141127
961.184	0.0141068
961.262	0.0139896
961.340	0.0141299
961.418	0.0141114
961.496	0.0140317
961.575	0.0139957
961.653	0.0141532
961.731	0.0142327
961.809	0.0139373
961.887	0.0139502
961.965	0.0140724
962.043	0.0140450
962.121	0.0139539
962.200	0.0140706
962.278	0.0141592
962.356	0.0141428
962.434	0.0140630
962.512	0.0142786
962.590	0.0140857
962.668	0.0140278
962.746	0.0141329
962.825	0.0140089
962.903	0.0141862
962.981	0.0141927
963.059	0.0140376
963.137	0.0140337
963.215	0.0141538
963.293	0.0140993
963.371	0.0140804
963.450	0.0140543
963.528	0.0140424
963.606	0.0139674
963.684	0.0140955
963.762	0.0141840
963.840	0.0140423
963.918	0.0141447
963.996	0.0140443
964.075	0.0140015
964.153	0.0141802
964.231	0.0141284
964.309	0.0140808
964.387	0.0140188
964.465	0.0141305
964.543	0.0141599
964.621	0.0141005
964.700	0.0141670
964.778	0.0141515
964.856	0.0142055
964.934	0.0142525
965.012	0.0140436
965.090	0.0140987
965.168	0.0141325
965.246	0.0141301
965.325	0.0140747
965.403	0.0141337
965.481	0.0142179
965.559	0.0140830
965.637	0.0141451
965.715	0.0141808
965.793	0.0140852
965.871	0.0142160
965.950	0.0142284
966.028	0.0140332
966.106	0.0141911
966.184	0.0142465
966.262	0.0142230
966.340	0.0141792
966.418	0.0140687
966.496	0.0141359
966.575	0.0142101
966.653	0.0140813
966.731	0.0140635
966.809	0.0141798
966.887	0.0140922
966.965	0.0141338
967.043	0.0140417
967.121	0.0141325
967.200	0.0139910
967.278	0.0139892
967.356	0.0139735
967.434	0.0139454
967.512	0.0140970
967.590	0.0141064
967.668	0.0141333
967.746	0.0140470
967.825	0.0141348
967.903	0.0142339
967.981	0.0142249
968.059	0.0142147
968.137	0.0142052
968.215	0.0142355
968.293	0.0142064
968.371	0.0141839
968.450	0.0141324
968.528	0.0141447
968.606	0.0142329
968.684	0.0140807
968.762	0.0141229
968.840	0.0141203
968.918	0.0138318
968.996	0.0141787
969.075	0.0140559
969.153	0.0139415
969.231	0.0139032
969.309	0.0139548
969.387	0.0140285
969.465	0.0139816
969.543	0.0140877
969.621	0.0142140
969.700	0.0139422
969.778	0.0141515
969.856	0.0142039
969.934	0.0141917
970.012	0.0141852
970.090	0.0142972
970.168	0.0143117
970.246	0.0143361
970.325	0.0141966
970.403	0.0141535
970.481	0.0142354
970.559	0.0142387
970.637	0.0141856
970.715	0.0141778
970.793	0.0139974
970.871	0.0140926
970.950	0.0141114
971.028	0.0141486
971.106	0.0140034
971.184	0.0141353
971.262	0.0140396
971.340	0.0140952
971.418	0.0141742
971.496	0.0140199
971.575	0.0141201
971.653	0.0138691
971.731	0.0141280
971.809	0.0140240
971.887	0.0139680
971.965	0.0140301
972.043	0.0140897
972.121	0.0141014
972.200	0.0141541
972.278	0.0140408
972.356	0.0141069
972.434	0.0140923
972.512	0.0141309
972.590	0.0141640
972.668	0.0141604
972.746	0.0140597
972.825	0.0141015
972.903	0.0140430
972.981	0.0139783
973.059	0.0141604
973.137	0.0140344
973.215	0.0141226
973.293	0.0140667
973.371	0.0140395
973.450	0.0140425
973.528	0.0139605
973.606	0.0139614
973.684	0.0142243
973.762	0.0140744
973.840	0.0141357
973.918	0.0140920
973.996	0.0140673
974.075	0.0140932
974.153	0.0141017
974.231	0.0142548
974.309	0.0141176
974.387	0.0139544
974.465	0.0139648
974.543	0.0141520
974.621	0.0140659
974.700	0.0140393
974.778	0.0140691
974.856	0.0140984
974.934	0.0140047
975.012	0.0140701
975.090	0.0140105
975.168	0.0141447
975.246	0.0140359
975.325	0.0141308
975.403	0.0141373
975.481	0.0140932
975.559	0.0141454
975.637	0.0140279
975.715	0.0139783
975.793	0.0141065
975.871	0.0142075
975.950	0.0141265
976.028	0.0140060
976.106	0.0141180
976.184	0.0141765
976.262	0.0141366
976.340	0.0141286
976.418	0.0140397
976.496	0.0141638
976.575	0.0142265
976.653	0.0141741
976.731	0.0140871
976.809	0.0142346
976.887	0.0141151
976.965	0.0140916
977.043	0.0141326
977.121	0.0141032
977.200	0.0141203
977.278	0.0141072
977.356	0.0141421
977.434	0.0140556
977.512	0.0141100
977.590	0.0141513
977.668	0.0141135
977.746	0.0140662
977.825	0.0141486
977.903	0.0139494
977.981	0.0139500
978.059	0.0140578
978.137	0.0141203
978.215	0.0141891
978.293	0.0141042
978.371	0.0142788
978.450	0.0142539
978.528	0.0141702
978.606	0.0141049
978.684	0.0142368
978.762	0.0141669
978.840	0.0140385
978.918	0.0141239
978.996	0.0141265
979.075	0.0141123
979.153	0.0139739
979.231	0.0141045
979.309	0.0140965
979.387	0.0140732
979.465	0.0140569
979.543	0.0139750
979.621	0.0140908
979.700	0.0140541
979.778	0.0139570
979.856	0.0139887
979.934	0.0140440
980.012	0.0140729
980.090	0.0139719
980.168	0.0140296
980.246	0.0140302
980.325	0.0140201
980.403	0.0140685
980.481	0.0140993
980.559	0.0139931
980.637	0.0141071
980.715	0.0141113
980.793	0.0141329
980.871	0.0139617
980.950	0.0139763
981.028	0.0141587
981.106	0.0140080
981.184	0.0139431
981.262	0.0140977
981.340	0.0140796
981.418	0.0139880
981.496	0.0139052
981.575	0.0141466
981.653	0.0141457
981.731	0.0141165
981.809	0.0139916
981.887	0.0140361
981.965	0.0140918
982.043	0.0141662
982.121	0.0139993
982.200	0.0140028
982.278	0.0140376
982.356	0.0141350
982.434	0.0141181
982.512	0.0140904
982.590	0.0142030
982.668	0.0141745
982.746	0.0140765
982.825	0.0140230
982.903	0.0140944
982.981	0.0138926
983.059	0.0140649
983.137	0.0142448
983.215	0.0139623
983.293	0.0140179
983.371	0.0141489
983.450	0.0141549
983.528	0.0140852
983.606	0.0138900
983.684	0.0140438
983.762	0.0139997
983.840	0.0140954
983.918	0.0142600
983.996	0.0140504
984.075	0.0139636
984.153	0.0141102
984.231	0.0140750
984.309	0.0139542
984.387	0.0139654
984.465	0.0142374
984.543	0.0140665
984.621	0.0139961
984.700	0.0140650
984.778	0.0141235
984.856	0.0141708
984.934	0.0141767
985.012	0.0141554
985.090	0.0141975
985.168	0.0141991
985.246	0.0141831
985.325	0.0141465
985.403	0.0141862
985.481	0.0138612
985.559	0.0141589
985.637	0.0141410
985.715	0.0140876
985.793	0.0140858
985.871	0.0141171
985.950	0.0139724
986.028	0.0139583
986.106	0.0139468
986.184	0.0141918
986.262	0.0141368
986.340	0.0139829
986.418	0.0141408
986.496	0.0140670
986.575	0.0141245
986.653	0.0140770
986.731	0.0141139
986.809	0.0141106
986.887	0.0142482
986.965	0.0141941
987.043	0.0140548
987.121	0.0141670
987.200	0.0141886
987.278	0.0140913
987.356	0.0140615
987.434	0.0140298
987.512	0.0140266
987.590	0.0140350
987.668	0.0141095
987.746	0.0140295
987.825	0.0139482
987.903	0.0140398
987.981	0.0140113
988.059	0.0139301
988.137	0.0140172
988.215	0.0140656
988.293	0.0139675
988.371	0.0139085
988.450	0.0140051
988.528	0.0140649
988.606	0.0140427
988.684	0.0142138
988.762	0.0141570
988.840	0.0140810
988.918	0.0140937
988.996	0.0141607
989.075	0.0141782
989.153	0.0142151
989.231	0.0140910
989.309	0.0140155
989.387	0.0140091
989.465	0.0141753
989.543	0.0140495
989.621	0.0139758
989.700	0.0139505
989.778	0.0139387
989.856	0.0140678
989.934	0.0140939
990.012	0.0139282
990.090	0.0141084
990.168	0.0141587
990.246	0.0142201
990.325	0.0141162
990.403	0.0140644
990.481	0.0141433
990.559	0.0142011
990.637	0.0142091
990.715	0.0140161
990.793	0.0140944
990.871	0.0142655
990.950	0.0141392
991.028	0.0140985
991.106	0.0141027
991.184	0.0140487
991.262	0.0141173
991.340	0.0141769
991.418	0.0140987
991.496	0.0141561
991.575	0.0140690
991.653	0.0141352
991.731	0.0141463
991.809	0.0141565
991.887	0.0140856
991.965	0.0142248
992.043	0.0141914
992.121	0.0142500
992.200	0.0141016
992.278	0.0143707
992.356	0.0140495
992.434	0.0140661
992.512	0.0139888
992.590	0.0140839
992.668	0.0139929
992.746	0.0141264
992.825	0.0140134
992.903	0.0140403
992.981	0.0141010
993.059	0.0139570
993.137	0.0140054
993.215	0.0141685
993.293	0.0141442
993.371	0.0140823
993.450	0.0140326
993.528	0.0141369
993.606	0.0141335
993.684	0.0141231
993.762	0.0140956
993.840	0.0141337
993.918	0.0142937
993.996	0.0141605
994.075	0.0140484
994.153	0.0141208
994.231	0.0142240
994.309	0.0140649
994.387	0.0140976
994.465	0.0140134
994.543	0.0140660
994.621	0.0141161
994.700	0.0141927
994.778	0.0142079
994.856	0.0141615
994.934	0.0138898
995.012	0.0140836
995.090	0.0141451
995.168	0.0140932
995.246	0.0140800
995.325	0.0142146
995.403	0.0141387
995.481	0.0139930
995.559	0.0141367
995.637	0.0140173
995.715	0.0138863
995.793	0.0141626
995.871	0.0140493
995.950	0.0141621
996.028	0.0141866
996.106	0.0139612
996.184	0.0139963
996.262	0.0140015
996.340	0.0141525
996.418	0.0141945
996.496	0.0139228
996.575	0.0140400
996.653	0.0141264
996.731	0.0141352
996.809	0.0141315
996.887	0.0140803
996.965	0.0142704
997.043	0.0141727
997.121	0.0140489
997.200	0.0139723
997.278	0.0140907
997.356	0.0140707
997.434	0.0141208
997.512	0.0141105
997.590	0.0140640
997.668	0.0140211
997.746	0.0139574
997.825	0.0139067
997.903	0.0139948
997.981	0.0140391
998.059	0.0140245
998.137	0.0140782
998.215	0.0141262
998.293	0.0140977
998.371	0.0139160
998.450	0.0140506
998.528	0.0140955
998.606	0.0140123
998.684	0.0142368
998.762	0.0142263
998.840	0.0141431
998.918	0.0141507
