05/04/2022	20:59:47	Ver.	4.1	UNKNOWN
Optical Delay	678.996401	Delta X		0.078125	Sweeps	1	Scan Rate	0/0
Coordinates	Axis 1	NaN	Axis 2	NaN	Axis 3	NaN	Axis 4	NaN	Axis 5	NaN	Axis 6	0.000000
TX Power	0.000000	RX Power	0.000000

678.996	0.0142577
679.075	0.0143050
679.153	0.0143415
679.231	0.0141023
679.309	0.0142159
679.387	0.0143745
679.465	0.0141822
679.543	0.0143292
679.621	0.0142716
679.700	0.0141064
679.778	0.0141935
679.856	0.0143300
679.934	0.0141656
680.012	0.0142279
680.090	0.0142058
680.168	0.0141747
680.246	0.0141953
680.325	0.0142386
680.403	0.0144540
680.481	0.0141771
680.559	0.0140770
680.637	0.0142809
680.715	0.0142345
680.793	0.0142085
680.871	0.0142687
680.950	0.0142926
681.028	0.0143349
681.106	0.0142587
681.184	0.0141461
681.262	0.0142491
681.340	0.0142168
681.418	0.0143480
681.496	0.0143613
681.575	0.0141892
681.653	0.0142501
681.731	0.0143271
681.809	0.0143047
681.887	0.0142448
681.965	0.0143234
682.043	0.0142248
682.121	0.0142236
682.200	0.0140874
682.278	0.0141366
682.356	0.0141409
682.434	0.0141959
682.512	0.0141363
682.590	0.0143429
682.668	0.0141910
682.746	0.0142130
682.825	0.0143444
682.903	0.0142520
682.981	0.0142450
683.059	0.0141904
683.137	0.0141782
683.215	0.0142496
683.293	0.0143764
683.371	0.0142580
683.450	0.0142284
683.528	0.0143064
683.606	0.0142699
683.684	0.0141832
683.762	0.0142226
683.840	0.0142594
683.918	0.0141719
683.996	0.0141709
684.075	0.0141749
684.153	0.0142216
684.231	0.0141528
684.309	0.0143092
684.387	0.0141447
684.465	0.0142879
684.543	0.0143203
684.621	0.0142050
684.700	0.0142401
684.778	0.0141551
684.856	0.0142679
684.934	0.0144176
685.012	0.0142798
685.090	0.0142709
685.168	0.0142301
685.246	0.0142735
685.325	0.0142511
685.403	0.0141860
685.481	0.0143510
685.559	0.0143314
685.637	0.0141930
685.715	0.0142684
685.793	0.0142103
685.871	0.0142971
685.950	0.0143090
686.028	0.0141944
686.106	0.0142493
686.184	0.0141767
686.262	0.0140965
686.340	0.0142386
686.418	0.0142064
686.496	0.0142207
686.575	0.0142848
686.653	0.0142466
686.731	0.0141919
686.809	0.0140274
686.887	0.0141492
686.965	0.0142112
687.043	0.0141886
687.121	0.0141863
687.200	0.0142416
687.278	0.0141177
687.356	0.0141322
687.434	0.0141712
687.512	0.0142104
687.590	0.0142451
687.668	0.0142464
687.746	0.0141963
687.825	0.0141966
687.903	0.0142248
687.981	0.0142694
688.059	0.0143753
688.137	0.0140123
688.215	0.0143285
688.293	0.0142794
688.371	0.0142495
688.450	0.0143192
688.528	0.0141283
688.606	0.0142534
688.684	0.0142534
688.762	0.0142666
688.840	0.0141864
688.918	0.0141396
688.996	0.0142911
689.075	0.0143367
689.153	0.0142332
689.231	0.0143436
689.309	0.0141807
689.387	0.0141495
689.465	0.0142326
689.543	0.0141660
689.621	0.0142786
689.700	0.0142347
689.778	0.0142984
689.856	0.0143580
689.934	0.0142192
690.012	0.0141750
690.090	0.0142386
690.168	0.0143101
690.246	0.0141900
690.325	0.0143006
690.403	0.0142247
690.481	0.0141080
690.559	0.0143510
690.637	0.0143044
690.715	0.0141685
690.793	0.0142747
690.871	0.0141841
690.950	0.0142132
691.028	0.0143127
691.106	0.0141735
691.184	0.0140765
691.262	0.0143272
691.340	0.0142251
691.418	0.0142001
691.496	0.0142094
691.575	0.0143856
691.653	0.0143439
691.731	0.0141730
691.809	0.0141415
691.887	0.0141615
691.965	0.0143282
692.043	0.0144214
692.121	0.0142828
692.200	0.0142348
692.278	0.0141042
692.356	0.0143223
692.434	0.0142321
692.512	0.0143067
692.590	0.0142593
692.668	0.0142392
692.746	0.0143047
692.825	0.0141998
692.903	0.0141506
692.981	0.0142045
693.059	0.0141788
693.137	0.0142071
693.215	0.0142277
693.293	0.0144476
693.371	0.0142303
693.450	0.0142612
693.528	0.0143328
693.606	0.0141914
693.684	0.0141399
693.762	0.0142641
693.840	0.0143541
693.918	0.0141460
693.996	0.0143095
694.075	0.0142290
694.153	0.0141906
694.231	0.0143142
694.309	0.0142185
694.387	0.0142487
694.465	0.0143609
694.543	0.0143764
694.621	0.0142393
694.700	0.0142783
694.778	0.0141659
694.856	0.0142201
694.934	0.0141306
695.012	0.0142549
695.090	0.0142256
695.168	0.0143436
695.246	0.0143241
695.325	0.0143122
695.403	0.0142741
695.481	0.0142639
695.559	0.0143457
695.637	0.0143432
695.715	0.0142213
695.793	0.0141768
695.871	0.0142570
695.950	0.0142411
696.028	0.0142436
696.106	0.0142989
696.184	0.0142999
696.262	0.0143403
696.340	0.0142751
696.418	0.0141275
696.496	0.0142575
696.575	0.0142241
696.653	0.0142460
696.731	0.0142597
696.809	0.0142182
696.887	0.0142034
696.965	0.0141708
697.043	0.0142828
697.121	0.0142809
697.200	0.0142892
697.278	0.0142710
697.356	0.0143429
697.434	0.0143379
697.512	0.0143252
697.590	0.0141811
697.668	0.0141764
697.746	0.0143854
697.825	0.0142821
697.903	0.0142238
697.981	0.0142470
698.059	0.0141469
698.137	0.0142985
698.215	0.0143748
698.293	0.0143175
698.371	0.0142019
698.450	0.0142873
698.528	0.0142163
698.606	0.0141777
698.684	0.0143503
698.762	0.0142311
698.840	0.0142337
698.918	0.0142769
698.996	0.0141433
699.075	0.0141318
699.153	0.0142398
699.231	0.0143179
699.309	0.0143297
699.387	0.0142250
699.465	0.0142838
699.543	0.0142492
699.621	0.0142861
699.700	0.0143273
699.778	0.0141861
699.856	0.0141364
699.934	0.0143327
700.012	0.0142952
700.090	0.0141877
700.168	0.0143932
700.246	0.0143653
700.325	0.0142192
700.403	0.0141809
700.481	0.0141782
700.559	0.0142083
700.637	0.0142607
700.715	0.0144117
700.793	0.0140827
700.871	0.0143184
700.950	0.0143507
701.028	0.0143320
701.106	0.0142703
701.184	0.0142194
701.262	0.0142381
701.340	0.0142184
701.418	0.0143283
701.496	0.0142694
701.575	0.0142303
701.653	0.0140885
701.731	0.0142643
701.809	0.0142712
701.887	0.0142175
701.965	0.0143599
702.043	0.0141031
702.121	0.0142480
702.200	0.0141879
702.278	0.0142630
702.356	0.0141833
702.434	0.0142301
702.512	0.0142216
702.590	0.0143860
702.668	0.0143323
702.746	0.0142714
702.825	0.0142950
702.903	0.0142651
702.981	0.0142377
703.059	0.0142256
703.137	0.0141856
703.215	0.0143104
703.293	0.0143607
703.371	0.0142766
703.450	0.0141792
703.528	0.0142509
703.606	0.0141731
703.684	0.0141187
703.762	0.0142021
703.840	0.0142287
703.918	0.0142215
703.996	0.0142337
704.075	0.0141560
704.153	0.0143738
704.231	0.0143040
704.309	0.0140852
704.387	0.0141161
704.465	0.0141550
704.543	0.0143002
704.621	0.0143700
704.700	0.0142090
704.778	0.0143401
704.856	0.0143700
704.934	0.0142395
705.012	0.0143396
705.090	0.0141917
705.168	0.0141819
705.246	0.0141285
705.325	0.0141534
705.403	0.0143373
705.481	0.0141915
705.559	0.0141914
705.637	0.0142688
705.715	0.0142016
705.793	0.0143604
705.871	0.0143480
705.950	0.0143443
706.028	0.0143987
706.106	0.0143467
706.184	0.0142495
706.262	0.0142709
706.340	0.0142625
706.418	0.0142042
706.496	0.0141619
706.575	0.0142083
706.653	0.0143181
706.731	0.0142707
706.809	0.0142081
706.887	0.0143424
706.965	0.0143263
707.043	0.0143755
707.121	0.0144820
707.200	0.0144009
707.278	0.0143900
707.356	0.0142152
707.434	0.0142226
707.512	0.0141324
707.590	0.0141050
707.668	0.0138621
707.746	0.0138294
707.825	0.0138141
707.903	0.0139916
707.981	0.0141441
708.059	0.0142255
708.137	0.0145304
708.215	0.0146991
708.293	0.0146819
708.371	0.0146989
708.450	0.0147694
708.528	0.0145851
708.606	0.0143877
708.684	0.0142782
708.762	0.0141736
708.840	0.0140170
708.918	0.0138108
708.996	0.0137485
709.075	0.0135767
709.153	0.0135094
709.231	0.0135696
709.309	0.0135100
709.387	0.0135873
709.465	0.0137003
709.543	0.0140994
709.621	0.0144447
709.700	0.0146985
709.778	0.0150557
709.856	0.0152319
709.934	0.0153371
710.012	0.0153520
710.090	0.0151447
710.168	0.0149030
710.246	0.0146188
710.325	0.0143644
710.403	0.0139289
710.481	0.0135383
710.559	0.0131985
710.637	0.0128021
710.715	0.0126786
710.793	0.0127725
710.871	0.0127654
710.950	0.0130756
711.028	0.0136609
711.106	0.0143279
711.184	0.0149689
711.262	0.0155791
711.340	0.0159616
711.418	0.0164766
711.496	0.0165320
711.575	0.0166197
711.653	0.0163293
711.731	0.0157441
711.809	0.0150517
711.887	0.0144920
711.965	0.0137534
712.043	0.0130488
712.121	0.0126805
712.200	0.0122333
712.278	0.0119679
712.356	0.0118501
712.434	0.0119458
712.512	0.0123697
712.590	0.0126680
712.668	0.0132875
712.746	0.0138757
712.825	0.0144347
712.903	0.0150220
712.981	0.0155340
713.059	0.0157128
713.137	0.0157108
713.215	0.0157718
713.293	0.0154376
713.371	0.0149672
713.450	0.0145781
713.528	0.0140975
713.606	0.0135385
713.684	0.0131349
713.762	0.0129800
713.840	0.0126729
713.918	0.0125136
713.996	0.0127475
714.075	0.0132088
714.153	0.0135551
714.231	0.0139901
714.309	0.0146877
714.387	0.0154018
714.465	0.0158695
714.543	0.0161954
714.621	0.0162920
714.700	0.0163922
714.778	0.0160099
714.856	0.0155861
714.934	0.0149004
715.012	0.0145467
715.090	0.0141891
715.168	0.0135234
715.246	0.0132172
715.325	0.0127261
715.403	0.0125554
715.481	0.0124988
715.559	0.0125325
715.637	0.0129775
715.715	0.0132978
715.793	0.0136835
715.871	0.0143603
715.950	0.0149199
716.028	0.0152079
716.106	0.0155073
716.184	0.0156593
716.262	0.0155569
716.340	0.0155756
716.418	0.0152684
716.496	0.0149670
716.575	0.0146828
716.653	0.0143658
716.731	0.0139430
716.809	0.0135339
716.887	0.0134101
716.965	0.0134216
717.043	0.0133259
717.121	0.0133925
717.200	0.0136800
717.278	0.0139045
717.356	0.0140874
717.434	0.0143960
717.512	0.0148528
717.590	0.0150510
717.668	0.0151267
717.746	0.0151882
717.825	0.0152795
717.903	0.0150163
717.981	0.0150069
718.059	0.0147204
718.137	0.0145243
718.215	0.0141380
718.293	0.0135732
718.371	0.0132279
718.450	0.0128607
718.528	0.0124844
718.606	0.0123302
718.684	0.0121651
718.762	0.0122871
718.840	0.0124202
718.918	0.0129042
718.996	0.0133123
719.075	0.0138737
719.153	0.0143813
719.231	0.0149854
719.309	0.0154840
719.387	0.0159278
719.465	0.0165904
719.543	0.0167298
719.621	0.0168487
719.700	0.0167791
719.778	0.0167457
719.856	0.0163234
719.934	0.0157842
720.012	0.0152010
720.090	0.0146069
720.168	0.0139691
720.246	0.0133923
720.325	0.0128172
720.403	0.0123576
720.481	0.0121042
720.559	0.0118932
720.637	0.0117365
720.715	0.0118642
720.793	0.0122810
720.871	0.0125467
720.950	0.0127912
721.028	0.0136019
721.106	0.0143382
721.184	0.0148610
721.262	0.0155815
721.340	0.0162062
721.418	0.0165839
721.496	0.0167596
721.575	0.0168672
721.653	0.0166695
721.731	0.0166709
721.809	0.0163707
721.887	0.0159695
721.965	0.0154480
722.043	0.0148348
722.121	0.0142429
722.200	0.0136324
722.278	0.0130099
722.356	0.0126772
722.434	0.0121345
722.512	0.0119646
722.590	0.0120116
722.668	0.0119481
722.746	0.0120235
722.825	0.0121804
722.903	0.0127871
722.981	0.0131568
723.059	0.0136365
723.137	0.0140973
723.215	0.0145528
723.293	0.0149216
723.371	0.0154135
723.450	0.0156621
723.528	0.0159011
723.606	0.0159799
723.684	0.0159956
723.762	0.0157520
723.840	0.0156749
723.918	0.0152378
723.996	0.0149281
724.075	0.0146561
724.153	0.0142570
724.231	0.0138139
724.309	0.0135715
724.387	0.0132932
724.465	0.0130019
724.543	0.0130016
724.621	0.0130127
724.700	0.0129202
724.778	0.0129839
724.856	0.0131651
724.934	0.0132227
725.012	0.0135331
725.090	0.0138548
725.168	0.0138937
725.246	0.0141959
725.325	0.0143970
725.403	0.0146127
725.481	0.0148006
725.559	0.0149056
725.637	0.0149539
725.715	0.0150686
725.793	0.0151064
725.871	0.0151951
725.950	0.0152379
726.028	0.0150435
726.106	0.0149754
726.184	0.0148094
726.262	0.0147358
726.340	0.0145535
726.418	0.0143011
726.496	0.0143480
726.575	0.0141670
726.653	0.0137778
726.731	0.0136484
726.809	0.0135683
726.887	0.0134783
726.965	0.0134866
727.043	0.0133405
727.121	0.0132896
727.200	0.0135123
727.278	0.0137449
727.356	0.0139066
727.434	0.0140742
727.512	0.0143512
727.590	0.0144717
727.668	0.0145979
727.746	0.0147436
727.825	0.0149395
727.903	0.0150584
727.981	0.0150132
728.059	0.0148469
728.137	0.0147268
728.215	0.0145280
728.293	0.0145421
728.371	0.0143832
728.450	0.0141438
728.528	0.0141026
728.606	0.0138004
728.684	0.0138533
728.762	0.0137475
728.840	0.0138137
728.918	0.0138070
728.996	0.0139771
729.075	0.0140958
729.153	0.0143254
729.231	0.0142220
729.309	0.0141875
729.387	0.0142125
729.465	0.0141211
729.543	0.0140004
729.621	0.0141255
729.700	0.0140745
729.778	0.0140135
729.856	0.0140420
729.934	0.0139400
730.012	0.0140427
730.090	0.0141249
730.168	0.0140762
730.246	0.0142345
730.325	0.0142175
730.403	0.0143379
730.481	0.0142455
730.559	0.0143510
730.637	0.0143034
730.715	0.0143606
730.793	0.0142177
730.871	0.0142303
730.950	0.0141821
731.028	0.0141022
731.106	0.0141295
731.184	0.0140416
731.262	0.0141534
731.340	0.0143079
731.418	0.0144028
731.496	0.0144441
731.575	0.0147519
731.653	0.0148416
731.731	0.0148743
731.809	0.0149053
731.887	0.0149100
731.965	0.0149022
732.043	0.0147140
732.121	0.0145483
732.200	0.0142915
732.278	0.0139004
732.356	0.0137556
732.434	0.0134850
732.512	0.0132983
732.590	0.0130360
732.668	0.0130124
732.746	0.0129161
732.825	0.0128893
732.903	0.0131750
732.981	0.0132924
733.059	0.0137302
733.137	0.0139890
733.215	0.0142757
733.293	0.0145231
733.371	0.0148515
733.450	0.0150982
733.528	0.0152828
733.606	0.0153671
733.684	0.0154125
733.762	0.0154113
733.840	0.0152799
733.918	0.0152021
733.996	0.0151900
734.075	0.0149691
734.153	0.0147973
734.231	0.0146255
734.309	0.0143872
734.387	0.0142191
734.465	0.0142277
734.543	0.0140627
734.621	0.0138012
734.700	0.0138647
734.778	0.0138072
734.856	0.0136419
734.934	0.0136790
735.012	0.0136607
735.090	0.0135503
735.168	0.0136376
735.246	0.0136433
735.325	0.0134865
735.403	0.0135468
735.481	0.0137135
735.559	0.0137196
735.637	0.0138615
735.715	0.0140803
735.793	0.0142822
735.871	0.0145468
735.950	0.0148091
736.028	0.0151267
736.106	0.0152504
736.184	0.0154344
736.262	0.0155194
736.340	0.0153873
736.418	0.0151360
736.496	0.0150717
736.575	0.0147565
736.653	0.0143569
736.731	0.0140295
736.809	0.0137806
736.887	0.0135462
736.965	0.0132591
737.043	0.0130049
737.121	0.0129102
737.200	0.0126450
737.278	0.0126299
737.356	0.0128574
737.434	0.0129630
737.512	0.0131747
737.590	0.0134330
737.668	0.0135691
737.746	0.0139221
737.825	0.0143597
737.903	0.0145887
737.981	0.0150270
738.059	0.0150743
738.137	0.0153207
738.215	0.0154168
738.293	0.0156628
738.371	0.0156722
738.450	0.0157156
738.528	0.0155443
738.606	0.0154716
738.684	0.0153854
738.762	0.0151964
738.840	0.0149497
738.918	0.0147334
738.996	0.0144234
739.075	0.0143259
739.153	0.0139062
739.231	0.0136937
739.309	0.0134069
739.387	0.0134559
739.465	0.0130782
739.543	0.0128773
739.621	0.0127744
739.700	0.0127945
739.778	0.0129836
739.856	0.0129903
739.934	0.0134262
740.012	0.0136686
740.090	0.0139280
740.168	0.0143813
740.246	0.0146270
740.325	0.0150459
740.403	0.0154933
740.481	0.0155901
740.559	0.0155524
740.637	0.0157468
740.715	0.0156947
740.793	0.0155786
740.871	0.0154050
740.950	0.0151185
741.028	0.0148368
741.106	0.0146208
741.184	0.0143189
741.262	0.0139811
741.340	0.0138442
741.418	0.0135833
741.496	0.0133659
741.575	0.0132608
741.653	0.0131683
741.731	0.0130821
741.809	0.0131786
741.887	0.0131467
741.965	0.0134662
742.043	0.0136423
742.121	0.0137920
742.200	0.0140820
742.278	0.0143395
742.356	0.0143684
742.434	0.0147179
742.512	0.0149419
742.590	0.0148775
742.668	0.0150540
742.746	0.0151376
742.825	0.0150887
742.903	0.0149426
742.981	0.0148834
743.059	0.0147743
743.137	0.0147685
743.215	0.0146397
743.293	0.0145239
743.371	0.0144448
743.450	0.0144063
743.528	0.0142587
743.606	0.0141860
743.684	0.0140579
743.762	0.0138909
743.840	0.0139918
743.918	0.0140387
743.996	0.0139187
744.075	0.0139633
744.153	0.0140678
744.231	0.0140357
744.309	0.0137649
744.387	0.0138705
744.465	0.0136710
744.543	0.0136618
744.621	0.0137202
744.700	0.0136199
744.778	0.0137338
744.856	0.0139217
744.934	0.0140024
745.012	0.0140708
745.090	0.0141121
745.168	0.0143027
745.246	0.0145354
745.325	0.0147545
745.403	0.0149049
745.481	0.0150282
745.559	0.0152158
745.637	0.0150239
745.715	0.0151586
745.793	0.0151131
745.871	0.0151926
745.950	0.0149067
746.028	0.0146323
746.106	0.0144626
746.184	0.0142670
746.262	0.0140511
746.340	0.0138599
746.418	0.0136620
746.496	0.0135050
746.575	0.0133390
746.653	0.0134197
746.731	0.0134077
746.809	0.0134637
746.887	0.0133993
746.965	0.0134932
747.043	0.0135192
747.121	0.0136356
747.200	0.0137594
747.278	0.0140218
747.356	0.0141486
747.434	0.0142212
747.512	0.0144907
747.590	0.0144923
747.668	0.0145554
747.746	0.0146266
747.825	0.0149970
747.903	0.0151981
747.981	0.0151050
748.059	0.0150819
748.137	0.0150953
748.215	0.0152750
748.293	0.0150474
748.371	0.0149749
748.450	0.0148148
748.528	0.0145438
748.606	0.0143683
748.684	0.0139925
748.762	0.0136937
748.840	0.0135099
748.918	0.0133107
748.996	0.0132624
749.075	0.0130006
749.153	0.0129955
749.231	0.0130608
749.309	0.0129597
749.387	0.0131555
749.465	0.0134402
749.543	0.0134657
749.621	0.0138973
749.700	0.0142032
749.778	0.0144299
749.856	0.0147404
749.934	0.0150076
750.012	0.0152698
750.090	0.0152375
750.168	0.0153444
750.246	0.0154010
750.325	0.0154328
750.403	0.0153135
750.481	0.0151898
750.559	0.0149070
750.637	0.0147698
750.715	0.0145914
750.793	0.0143060
750.871	0.0140899
750.950	0.0138651
751.028	0.0137677
751.106	0.0135905
751.184	0.0134995
751.262	0.0134953
751.340	0.0134230
751.418	0.0133168
751.496	0.0134205
751.575	0.0134521
751.653	0.0136052
751.731	0.0135589
751.809	0.0135812
751.887	0.0139310
751.965	0.0139541
752.043	0.0139771
752.121	0.0144843
752.200	0.0145176
752.278	0.0145365
752.356	0.0147688
752.434	0.0150342
752.512	0.0150263
752.590	0.0149068
752.668	0.0150838
752.746	0.0149945
752.825	0.0150874
752.903	0.0149612
752.981	0.0148286
753.059	0.0148634
753.137	0.0145548
753.215	0.0144294
753.293	0.0143752
753.371	0.0141906
753.450	0.0137952
753.528	0.0136765
753.606	0.0135837
753.684	0.0134483
753.762	0.0133447
753.840	0.0134454
753.918	0.0134650
753.996	0.0134815
754.075	0.0134637
754.153	0.0135374
754.231	0.0137827
754.309	0.0140723
754.387	0.0141763
754.465	0.0144102
754.543	0.0144852
754.621	0.0146224
754.700	0.0147349
754.778	0.0147576
754.856	0.0147983
754.934	0.0148100
755.012	0.0149094
755.090	0.0148503
755.168	0.0148681
755.246	0.0146971
755.325	0.0146658
755.403	0.0144998
755.481	0.0144604
755.559	0.0145383
755.637	0.0142646
755.715	0.0143102
755.793	0.0142775
755.871	0.0141666
755.950	0.0140908
756.028	0.0140653
756.106	0.0140543
756.184	0.0139328
756.262	0.0138323
756.340	0.0139330
756.418	0.0139100
756.496	0.0139331
756.575	0.0138268
756.653	0.0136646
756.731	0.0138619
756.809	0.0139183
756.887	0.0138891
756.965	0.0139841
757.043	0.0140650
757.121	0.0141798
757.200	0.0143316
757.278	0.0142321
757.356	0.0143188
757.434	0.0145063
757.512	0.0145099
757.590	0.0146438
757.668	0.0147128
757.746	0.0148563
757.825	0.0145964
757.903	0.0149100
757.981	0.0146834
758.059	0.0144649
758.137	0.0146150
758.215	0.0144707
758.293	0.0143462
758.371	0.0141681
758.450	0.0139973
758.528	0.0140494
758.606	0.0137912
758.684	0.0137632
758.762	0.0137552
758.840	0.0137817
758.918	0.0136871
758.996	0.0136394
759.075	0.0135590
759.153	0.0137412
759.231	0.0136991
759.309	0.0138040
759.387	0.0137656
759.465	0.0139606
759.543	0.0141538
759.621	0.0141541
759.700	0.0144120
759.778	0.0145060
759.856	0.0144051
759.934	0.0146404
760.012	0.0147766
760.090	0.0147800
760.168	0.0147105
760.246	0.0147581
760.325	0.0148030
760.403	0.0149763
760.481	0.0146624
760.559	0.0146608
760.637	0.0145760
760.715	0.0145155
760.793	0.0142152
760.871	0.0143799
760.950	0.0140981
761.028	0.0139229
761.106	0.0137226
761.184	0.0138483
761.262	0.0137401
761.340	0.0137290
761.418	0.0136746
761.496	0.0137003
761.575	0.0138514
761.653	0.0137598
761.731	0.0138506
761.809	0.0141058
761.887	0.0141624
761.965	0.0141953
762.043	0.0144030
762.121	0.0145608
762.200	0.0146218
762.278	0.0147536
762.356	0.0147976
762.434	0.0146976
762.512	0.0147388
762.590	0.0147460
762.668	0.0147022
762.746	0.0146726
762.825	0.0146085
762.903	0.0146051
762.981	0.0144783
763.059	0.0144051
763.137	0.0144097
763.215	0.0141321
763.293	0.0140024
763.371	0.0141062
763.450	0.0141463
763.528	0.0139752
763.606	0.0140046
763.684	0.0139519
763.762	0.0140524
763.840	0.0139888
763.918	0.0139487
763.996	0.0138548
764.075	0.0141424
764.153	0.0140852
764.231	0.0142414
764.309	0.0141785
764.387	0.0141324
764.465	0.0141650
764.543	0.0142381
764.621	0.0142685
764.700	0.0143669
764.778	0.0143871
764.856	0.0144428
764.934	0.0143919
765.012	0.0144446
765.090	0.0143798
765.168	0.0144349
765.246	0.0145890
765.325	0.0145271
765.403	0.0144523
765.481	0.0144647
765.559	0.0144526
765.637	0.0144248
765.715	0.0144339
765.793	0.0142413
765.871	0.0141827
765.950	0.0141668
766.028	0.0139701
766.106	0.0140303
766.184	0.0139817
766.262	0.0139355
766.340	0.0140742
766.418	0.0138451
766.496	0.0138121
766.575	0.0139876
766.653	0.0139744
766.731	0.0139685
766.809	0.0141376
766.887	0.0141832
766.965	0.0142393
767.043	0.0142030
767.121	0.0144102
767.200	0.0144260
767.278	0.0143972
767.356	0.0144041
767.434	0.0145569
767.512	0.0144170
767.590	0.0145531
767.668	0.0146708
767.746	0.0145356
767.825	0.0144715
767.903	0.0145437
767.981	0.0145032
768.059	0.0142068
768.137	0.0144707
768.215	0.0142635
768.293	0.0142255
768.371	0.0142056
768.450	0.0141575
768.528	0.0142004
768.606	0.0141993
768.684	0.0139753
768.762	0.0140458
768.840	0.0140439
768.918	0.0140298
768.996	0.0140944
769.075	0.0140944
769.153	0.0141512
769.231	0.0142643
769.309	0.0141354
769.387	0.0143287
769.465	0.0142744
769.543	0.0143185
769.621	0.0144684
769.700	0.0143169
769.778	0.0143285
769.856	0.0143068
769.934	0.0144041
770.012	0.0145190
770.090	0.0144552
770.168	0.0143892
770.246	0.0143568
770.325	0.0145092
770.403	0.0144285
770.481	0.0143226
770.559	0.0145424
770.637	0.0144035
770.715	0.0143552
770.793	0.0142960
770.871	0.0144604
770.950	0.0143082
771.028	0.0142175
771.106	0.0142522
771.184	0.0141162
771.262	0.0141077
771.340	0.0140484
771.418	0.0140769
771.496	0.0141283
771.575	0.0142021
771.653	0.0140095
771.731	0.0140195
771.809	0.0141563
771.887	0.0141174
771.965	0.0140702
772.043	0.0139767
772.121	0.0142725
772.200	0.0141990
772.278	0.0141536
772.356	0.0142198
772.434	0.0142726
772.512	0.0145232
772.590	0.0145122
772.668	0.0145350
772.746	0.0144443
772.825	0.0144421
772.903	0.0145715
772.981	0.0144956
773.059	0.0144226
773.137	0.0144630
773.215	0.0143439
773.293	0.0141860
773.371	0.0142120
773.450	0.0142996
773.528	0.0142211
773.606	0.0140520
773.684	0.0141229
773.762	0.0141470
773.840	0.0140713
773.918	0.0140041
773.996	0.0139853
774.075	0.0141573
774.153	0.0141810
774.231	0.0140325
774.309	0.0141319
774.387	0.0142964
774.465	0.0140765
774.543	0.0142165
774.621	0.0143222
774.700	0.0144103
774.778	0.0143667
774.856	0.0142912
774.934	0.0143129
775.012	0.0143248
775.090	0.0143285
775.168	0.0144711
775.246	0.0143537
775.325	0.0143447
775.403	0.0142487
775.481	0.0142250
775.559	0.0142040
775.637	0.0142574
775.715	0.0142854
775.793	0.0142713
775.871	0.0142430
775.950	0.0141963
776.028	0.0142618
776.106	0.0143171
776.184	0.0144515
776.262	0.0141637
776.340	0.0143017
776.418	0.0142653
776.496	0.0141618
776.575	0.0141319
776.653	0.0140498
776.731	0.0141689
776.809	0.0142756
776.887	0.0143396
776.965	0.0141192
777.043	0.0140826
777.121	0.0140922
777.200	0.0141097
777.278	0.0140469
777.356	0.0141109
777.434	0.0141464
777.512	0.0142499
777.590	0.0142656
777.668	0.0142685
777.746	0.0143100
777.825	0.0142936
777.903	0.0144115
777.981	0.0144012
778.059	0.0143410
778.137	0.0144350
778.215	0.0143226
778.293	0.0143018
778.371	0.0142348
778.450	0.0142485
778.528	0.0143642
778.606	0.0141350
778.684	0.0140385
778.762	0.0141080
778.840	0.0141923
778.918	0.0140702
778.996	0.0141075
779.075	0.0141241
779.153	0.0140841
779.231	0.0140769
779.309	0.0140559
779.387	0.0140496
779.465	0.0140922
779.543	0.0141696
779.621	0.0142133
779.700	0.0142079
779.778	0.0141930
779.856	0.0142212
779.934	0.0142168
780.012	0.0141822
780.090	0.0142812
780.168	0.0142901
780.246	0.0142937
780.325	0.0143546
780.403	0.0142505
780.481	0.0142365
780.559	0.0142411
780.637	0.0142445
780.715	0.0142967
780.793	0.0141666
780.871	0.0142880
780.950	0.0143185
781.028	0.0141932
781.106	0.0142630
781.184	0.0141033
781.262	0.0142242
781.340	0.0142168
781.418	0.0140997
781.496	0.0141541
781.575	0.0142254
781.653	0.0141106
781.731	0.0141517
781.809	0.0140884
781.887	0.0141569
781.965	0.0141390
782.043	0.0139713
782.121	0.0141283
782.200	0.0141130
782.278	0.0142052
782.356	0.0142175
782.434	0.0141756
782.512	0.0142245
782.590	0.0142429
782.668	0.0142092
782.746	0.0141494
782.825	0.0143983
782.903	0.0144104
782.981	0.0142791
783.059	0.0143557
783.137	0.0143962
783.215	0.0143858
783.293	0.0143163
783.371	0.0144193
783.450	0.0142356
783.528	0.0142992
783.606	0.0143451
783.684	0.0142590
783.762	0.0142567
783.840	0.0142308
783.918	0.0142277
783.996	0.0141535
784.075	0.0141112
784.153	0.0141992
784.231	0.0141528
784.309	0.0141676
784.387	0.0140729
784.465	0.0140517
784.543	0.0140672
784.621	0.0142704
784.700	0.0141098
784.778	0.0141606
784.856	0.0141417
784.934	0.0143247
785.012	0.0142932
785.090	0.0141196
785.168	0.0144312
785.246	0.0143458
785.325	0.0143420
785.403	0.0143280
785.481	0.0143317
785.559	0.0142941
785.637	0.0144245
785.715	0.0142909
785.793	0.0142494
785.871	0.0144894
785.950	0.0142151
786.028	0.0142267
786.106	0.0142168
786.184	0.0141225
786.262	0.0141435
786.340	0.0141434
786.418	0.0142609
786.496	0.0141645
786.575	0.0141222
786.653	0.0140671
786.731	0.0142313
786.809	0.0142155
786.887	0.0141489
786.965	0.0143277
787.043	0.0141571
787.121	0.0142937
787.200	0.0142091
787.278	0.0142687
787.356	0.0143385
787.434	0.0142113
787.512	0.0141988
787.590	0.0144559
787.668	0.0142467
787.746	0.0142083
787.825	0.0142843
787.903	0.0143903
787.981	0.0142599
788.059	0.0141190
788.137	0.0142145
788.215	0.0141856
788.293	0.0141431
788.371	0.0142331
788.450	0.0141985
788.528	0.0140771
788.606	0.0141457
788.684	0.0144123
788.762	0.0143888
788.840	0.0142352
788.918	0.0141986
788.996	0.0143908
789.075	0.0143478
789.153	0.0142724
789.231	0.0142215
789.309	0.0142935
789.387	0.0142290
789.465	0.0141534
789.543	0.0142089
789.621	0.0141875
789.700	0.0142621
789.778	0.0140531
789.856	0.0141591
789.934	0.0140588
790.012	0.0142210
790.090	0.0142865
790.168	0.0142284
790.246	0.0141319
790.325	0.0141824
790.403	0.0142622
790.481	0.0144100
790.559	0.0145091
790.637	0.0143153
790.715	0.0144221
790.793	0.0145857
790.871	0.0142202
790.950	0.0142872
791.028	0.0142538
791.106	0.0143370
791.184	0.0144565
791.262	0.0143207
791.340	0.0142716
791.418	0.0141333
791.496	0.0141051
791.575	0.0142239
791.653	0.0142800
791.731	0.0141380
791.809	0.0140987
791.887	0.0142030
791.965	0.0143008
792.043	0.0141530
792.121	0.0141872
792.200	0.0141837
792.278	0.0141454
792.356	0.0142379
792.434	0.0142509
792.512	0.0141190
792.590	0.0141648
792.668	0.0142838
792.746	0.0141541
792.825	0.0142323
792.903	0.0142656
792.981	0.0141814
793.059	0.0142031
793.137	0.0143017
793.215	0.0142840
793.293	0.0141796
793.371	0.0142315
793.450	0.0141828
793.528	0.0142915
793.606	0.0142715
793.684	0.0141209
793.762	0.0142062
793.840	0.0141376
793.918	0.0141894
793.996	0.0143890
794.075	0.0141788
794.153	0.0142421
794.231	0.0142288
794.309	0.0142176
794.387	0.0142478
794.465	0.0141191
794.543	0.0142902
794.621	0.0142439
794.700	0.0141395
794.778	0.0139582
794.856	0.0142072
794.934	0.0143642
795.012	0.0143092
795.090	0.0142995
795.168	0.0143037
795.246	0.0143169
795.325	0.0143014
795.403	0.0143757
795.481	0.0143013
795.559	0.0143499
795.637	0.0143301
795.715	0.0144209
795.793	0.0143611
795.871	0.0142275
795.950	0.0143626
796.028	0.0143340
796.106	0.0142557
796.184	0.0143123
796.262	0.0141396
796.340	0.0143208
796.418	0.0143547
796.496	0.0142889
796.575	0.0143724
796.653	0.0141822
796.731	0.0141857
796.809	0.0141245
796.887	0.0141854
796.965	0.0141897
797.043	0.0141949
797.121	0.0140607
797.200	0.0141872
797.278	0.0141206
797.356	0.0141948
797.434	0.0141242
797.512	0.0143242
797.590	0.0143205
797.668	0.0141646
797.746	0.0142924
797.825	0.0142700
797.903	0.0142207
797.981	0.0142641
798.059	0.0142931
798.137	0.0143858
798.215	0.0143963
798.293	0.0142319
798.371	0.0142368
798.450	0.0142649
798.528	0.0143158
798.606	0.0144130
798.684	0.0143316
798.762	0.0143835
798.840	0.0141733
798.918	0.0143319
798.996	0.0142813
799.075	0.0141902
799.153	0.0143271
799.231	0.0142329
799.309	0.0141495
799.387	0.0140373
799.465	0.0141242
799.543	0.0141490
799.621	0.0142781
799.700	0.0142207
799.778	0.0141955
799.856	0.0141432
799.934	0.0142231
800.012	0.0142971
800.090	0.0142762
800.168	0.0142716
800.246	0.0142139
800.325	0.0142782
800.403	0.0142017
800.481	0.0141828
800.559	0.0142252
800.637	0.0141940
800.715	0.0143465
800.793	0.0142734
800.871	0.0142322
800.950	0.0142914
801.028	0.0142782
801.106	0.0142416
801.184	0.0143233
801.262	0.0143516
801.340	0.0144112
801.418	0.0143320
801.496	0.0144156
801.575	0.0142840
801.653	0.0143376
801.731	0.0143532
801.809	0.0141273
801.887	0.0142986
801.965	0.0142927
802.043	0.0142393
802.121	0.0141838
802.200	0.0140749
802.278	0.0142363
802.356	0.0142607
802.434	0.0142224
802.512	0.0141914
802.590	0.0142013
802.668	0.0141882
802.746	0.0141716
802.825	0.0141276
802.903	0.0142680
802.981	0.0143379
803.059	0.0143642
803.137	0.0143234
803.215	0.0142313
803.293	0.0144838
803.371	0.0143525
803.450	0.0141715
803.528	0.0141882
803.606	0.0142203
803.684	0.0142326
803.762	0.0141843
803.840	0.0141340
803.918	0.0141400
803.996	0.0142140
804.075	0.0141936
804.153	0.0142115
804.231	0.0142943
804.309	0.0142706
804.387	0.0142965
804.465	0.0142496
804.543	0.0142088
804.621	0.0144495
804.700	0.0141983
804.778	0.0142843
804.856	0.0142321
804.934	0.0143363
805.012	0.0142419
805.090	0.0141958
805.168	0.0142537
805.246	0.0141216
805.325	0.0142153
805.403	0.0142483
805.481	0.0142177
805.559	0.0141772
805.637	0.0140770
805.715	0.0142184
805.793	0.0141377
805.871	0.0142049
805.950	0.0142306
806.028	0.0142056
806.106	0.0143462
806.184	0.0143454
806.262	0.0142097
806.340	0.0141717
806.418	0.0142978
806.496	0.0143792
806.575	0.0144202
806.653	0.0143024
806.731	0.0142921
806.809	0.0143691
806.887	0.0143142
806.965	0.0142953
807.043	0.0142960
807.121	0.0142365
807.200	0.0142057
807.278	0.0142100
807.356	0.0142471
807.434	0.0142690
807.512	0.0140787
807.590	0.0142470
807.668	0.0142189
807.746	0.0143323
807.825	0.0143188
807.903	0.0142166
807.981	0.0142370
808.059	0.0142410
808.137	0.0141983
808.215	0.0142533
808.293	0.0141969
808.371	0.0140584
808.450	0.0140693
808.528	0.0142100
808.606	0.0141283
808.684	0.0142430
808.762	0.0141421
808.840	0.0140962
808.918	0.0141449
808.996	0.0142478
809.075	0.0143041
809.153	0.0141469
809.231	0.0142198
809.309	0.0141331
809.387	0.0141770
809.465	0.0143524
809.543	0.0141637
809.621	0.0142010
809.700	0.0140850
809.778	0.0141249
809.856	0.0140847
809.934	0.0139891
810.012	0.0141620
810.090	0.0140700
810.168	0.0140489
810.246	0.0141805
810.325	0.0141402
810.403	0.0142558
810.481	0.0142760
810.559	0.0141961
810.637	0.0142194
810.715	0.0143418
810.793	0.0144080
810.871	0.0142331
810.950	0.0143024
811.028	0.0143436
811.106	0.0141845
811.184	0.0144323
811.262	0.0143709
811.340	0.0142182
811.418	0.0143384
811.496	0.0142239
811.575	0.0141322
811.653	0.0142403
811.731	0.0142219
811.809	0.0141432
811.887	0.0143125
811.965	0.0143118
812.043	0.0140856
812.121	0.0141678
812.200	0.0142913
812.278	0.0143874
812.356	0.0141926
812.434	0.0144018
812.512	0.0142844
812.590	0.0142930
812.668	0.0142538
812.746	0.0143658
812.825	0.0143587
812.903	0.0142987
812.981	0.0142168
813.059	0.0142596
813.137	0.0143038
813.215	0.0142551
813.293	0.0141928
813.371	0.0142893
813.450	0.0142898
813.528	0.0142765
813.606	0.0142962
813.684	0.0141035
813.762	0.0142317
813.840	0.0142254
813.918	0.0141766
813.996	0.0141169
814.075	0.0140101
814.153	0.0142378
814.231	0.0141380
814.309	0.0141191
814.387	0.0141215
814.465	0.0142385
814.543	0.0142094
814.621	0.0142373
814.700	0.0141496
814.778	0.0142179
814.856	0.0143262
814.934	0.0141632
815.012	0.0141838
815.090	0.0142866
815.168	0.0142087
815.246	0.0142233
815.325	0.0143167
815.403	0.0143604
815.481	0.0142219
815.559	0.0143466
815.637	0.0143005
815.715	0.0142142
815.793	0.0144346
815.871	0.0143280
815.950	0.0143579
816.028	0.0143377
816.106	0.0144111
816.184	0.0142930
816.262	0.0143078
816.340	0.0143702
816.418	0.0141763
816.496	0.0142056
816.575	0.0143562
816.653	0.0142812
816.731	0.0141523
816.809	0.0143719
816.887	0.0142915
816.965	0.0143558
817.043	0.0142510
817.121	0.0143947
817.200	0.0142385
817.278	0.0144319
817.356	0.0143085
817.434	0.0144355
817.512	0.0143587
817.590	0.0143830
817.668	0.0142331
817.746	0.0143406
817.825	0.0142444
817.903	0.0142030
817.981	0.0143128
818.059	0.0142780
818.137	0.0142550
818.215	0.0142702
818.293	0.0141901
818.371	0.0141865
818.450	0.0142309
818.528	0.0142598
818.606	0.0141606
818.684	0.0142262
818.762	0.0143245
818.840	0.0139954
818.918	0.0141807
818.996	0.0142281
819.075	0.0141586
819.153	0.0142990
819.231	0.0140611
819.309	0.0143135
819.387	0.0142940
819.465	0.0141421
819.543	0.0143096
819.621	0.0142995
819.700	0.0142912
819.778	0.0142586
819.856	0.0142903
819.934	0.0143438
820.012	0.0142427
820.090	0.0142403
820.168	0.0142160
820.246	0.0141576
820.325	0.0143639
820.403	0.0142021
820.481	0.0142934
820.559	0.0142449
820.637	0.0142519
820.715	0.0142719
820.793	0.0143337
820.871	0.0144476
820.950	0.0143457
821.028	0.0142571
821.106	0.0142985
821.184	0.0142900
821.262	0.0142695
821.340	0.0143299
821.418	0.0141669
821.496	0.0143783
821.575	0.0141919
821.653	0.0142332
821.731	0.0142963
821.809	0.0142055
821.887	0.0142029
821.965	0.0142802
822.043	0.0142548
822.121	0.0142722
822.200	0.0143222
822.278	0.0143530
822.356	0.0143373
822.434	0.0143394
822.512	0.0143531
822.590	0.0143248
822.668	0.0142056
822.746	0.0143761
822.825	0.0142689
822.903	0.0142878
822.981	0.0142310
823.059	0.0142773
823.137	0.0142694
823.215	0.0142170
823.293	0.0141202
823.371	0.0141850
823.450	0.0140311
823.528	0.0141741
823.606	0.0143149
823.684	0.0142569
823.762	0.0142173
823.840	0.0141389
823.918	0.0142072
823.996	0.0142461
824.075	0.0142285
824.153	0.0142744
824.231	0.0142615
824.309	0.0142895
824.387	0.0142618
824.465	0.0143149
824.543	0.0142208
824.621	0.0144250
824.700	0.0142812
824.778	0.0144227
824.856	0.0144720
824.934	0.0143774
825.012	0.0142324
825.090	0.0143239
825.168	0.0143784
825.246	0.0145536
825.325	0.0144490
825.403	0.0143841
825.481	0.0142967
825.559	0.0143652
825.637	0.0144094
825.715	0.0143197
825.793	0.0142488
825.871	0.0141984
825.950	0.0141453
826.028	0.0142234
826.106	0.0143235
826.184	0.0141448
826.262	0.0141882
826.340	0.0141866
826.418	0.0142529
826.496	0.0142560
826.575	0.0142957
826.653	0.0142390
826.731	0.0142432
826.809	0.0142764
826.887	0.0142907
826.965	0.0143836
827.043	0.0143426
827.121	0.0143388
827.200	0.0143382
827.278	0.0143497
827.356	0.0144451
827.434	0.0142819
827.512	0.0143988
827.590	0.0143048
827.668	0.0143774
827.746	0.0143019
827.825	0.0143081
827.903	0.0143288
827.981	0.0143735
828.059	0.0143755
828.137	0.0143626
828.215	0.0142455
828.293	0.0141792
828.371	0.0143520
828.450	0.0143222
828.528	0.0143688
828.606	0.0142958
828.684	0.0141356
828.762	0.0141553
828.840	0.0141850
828.918	0.0141656
828.996	0.0141422
829.075	0.0140895
829.153	0.0141794
829.231	0.0142004
829.309	0.0140295
829.387	0.0141933
829.465	0.0142053
829.543	0.0144447
829.621	0.0143090
829.700	0.0143584
829.778	0.0142336
829.856	0.0143373
829.934	0.0143130
830.012	0.0142762
830.090	0.0143999
830.168	0.0143359
830.246	0.0143044
830.325	0.0143470
830.403	0.0144571
830.481	0.0144930
830.559	0.0142614
830.637	0.0142883
830.715	0.0142939
830.793	0.0142669
830.871	0.0142353
830.950	0.0143011
831.028	0.0142830
831.106	0.0141341
831.184	0.0141649
831.262	0.0142603
831.340	0.0142520
831.418	0.0141886
831.496	0.0140429
831.575	0.0143884
831.653	0.0141979
831.731	0.0141396
831.809	0.0142525
831.887	0.0141972
831.965	0.0142313
832.043	0.0142351
832.121	0.0143331
832.200	0.0143189
832.278	0.0143615
832.356	0.0142528
832.434	0.0144469
832.512	0.0144033
832.590	0.0142677
832.668	0.0142905
832.746	0.0142908
832.825	0.0141970
832.903	0.0142529
832.981	0.0142305
833.059	0.0142122
833.137	0.0142773
833.215	0.0142209
833.293	0.0142218
833.371	0.0141110
833.450	0.0142171
833.528	0.0141395
833.606	0.0141561
833.684	0.0141751
833.762	0.0142543
833.840	0.0142925
833.918	0.0143227
833.996	0.0142455
834.075	0.0142180
834.153	0.0143459
834.231	0.0142618
834.309	0.0142942
834.387	0.0143535
834.465	0.0143289
834.543	0.0142672
834.621	0.0143027
834.700	0.0143378
834.778	0.0143710
834.856	0.0143987
834.934	0.0142609
835.012	0.0143586
835.090	0.0144767
835.168	0.0144458
835.246	0.0144105
835.325	0.0142921
835.403	0.0143063
835.481	0.0144066
835.559	0.0145391
835.637	0.0143030
835.715	0.0142821
835.793	0.0142439
835.871	0.0141503
835.950	0.0141136
836.028	0.0141474
836.106	0.0139768
836.184	0.0141209
836.262	0.0141487
836.340	0.0140601
836.418	0.0142139
836.496	0.0140848
836.575	0.0139650
836.653	0.0142534
836.731	0.0142825
836.809	0.0142229
836.887	0.0143739
836.965	0.0143378
837.043	0.0143599
837.121	0.0143274
837.200	0.0143431
837.278	0.0142368
837.356	0.0144051
837.434	0.0143430
837.512	0.0143459
837.590	0.0143493
837.668	0.0143002
837.746	0.0143229
837.825	0.0143369
837.903	0.0141045
837.981	0.0141673
838.059	0.0142754
838.137	0.0142255
838.215	0.0141162
838.293	0.0142190
838.371	0.0142654
838.450	0.0143419
838.528	0.0143357
838.606	0.0143826
838.684	0.0143739
838.762	0.0142883
838.840	0.0144732
838.918	0.0144092
838.996	0.0144074
839.075	0.0144181
839.153	0.0143643
839.231	0.0144444
839.309	0.0142834
839.387	0.0142527
839.465	0.0141885
839.543	0.0142189
839.621	0.0143553
839.700	0.0142931
839.778	0.0143529
839.856	0.0142766
839.934	0.0142987
840.012	0.0143173
840.090	0.0143008
840.168	0.0141661
840.246	0.0143302
840.325	0.0143046
840.403	0.0142127
840.481	0.0142286
840.559	0.0143751
840.637	0.0142390
840.715	0.0141035
840.793	0.0141589
840.871	0.0142814
840.950	0.0142250
841.028	0.0142258
841.106	0.0143557
841.184	0.0142951
841.262	0.0143430
841.340	0.0141459
841.418	0.0143195
841.496	0.0143504
841.575	0.0142704
841.653	0.0142879
841.731	0.0143289
841.809	0.0144009
841.887	0.0143575
841.965	0.0142810
842.043	0.0142554
842.121	0.0141969
842.200	0.0141686
842.278	0.0141473
842.356	0.0142209
842.434	0.0143514
842.512	0.0142670
842.590	0.0142086
842.668	0.0145217
842.746	0.0144862
842.825	0.0144134
842.903	0.0144213
842.981	0.0144480
843.059	0.0143636
843.137	0.0144213
843.215	0.0144753
843.293	0.0144313
843.371	0.0144031
843.450	0.0144493
843.528	0.0143351
843.606	0.0141640
843.684	0.0143527
843.762	0.0143853
843.840	0.0141341
843.918	0.0142687
843.996	0.0143344
844.075	0.0141899
844.153	0.0140940
844.231	0.0140601
844.309	0.0141470
844.387	0.0143476
844.465	0.0142474
844.543	0.0142169
844.621	0.0141601
844.700	0.0143321
844.778	0.0143893
844.856	0.0143777
844.934	0.0144586
845.012	0.0144395
845.090	0.0143824
845.168	0.0143329
845.246	0.0142732
845.325	0.0145547
845.403	0.0144366
845.481	0.0143294
845.559	0.0143192
845.637	0.0143254
845.715	0.0143122
845.793	0.0142537
845.871	0.0140435
845.950	0.0141541
846.028	0.0141412
846.106	0.0142021
846.184	0.0142973
846.262	0.0141998
846.340	0.0141537
846.418	0.0141362
846.496	0.0141586
846.575	0.0141625
846.653	0.0142531
846.731	0.0141883
846.809	0.0142146
846.887	0.0143972
846.965	0.0145184
847.043	0.0143037
847.121	0.0143790
847.200	0.0144814
847.278	0.0144261
847.356	0.0143772
847.434	0.0143331
847.512	0.0144366
847.590	0.0143228
847.668	0.0142397
847.746	0.0144032
847.825	0.0142626
847.903	0.0144112
847.981	0.0142544
848.059	0.0142203
848.137	0.0142811
848.215	0.0142927
848.293	0.0142728
848.371	0.0141589
848.450	0.0141046
848.528	0.0143333
848.606	0.0142229
848.684	0.0142804
848.762	0.0141671
848.840	0.0143104
848.918	0.0143010
848.996	0.0142702
849.075	0.0142365
849.153	0.0143120
849.231	0.0142435
849.309	0.0142230
849.387	0.0141580
849.465	0.0143701
849.543	0.0142693
849.621	0.0142553
849.700	0.0142455
849.778	0.0143876
849.856	0.0142619
849.934	0.0141819
850.012	0.0143277
850.090	0.0144514
850.168	0.0143383
850.246	0.0143035
850.325	0.0142055
850.403	0.0144331
850.481	0.0141676
850.559	0.0142216
850.637	0.0143498
850.715	0.0143414
850.793	0.0142396
850.871	0.0141647
850.950	0.0142728
851.028	0.0143269
851.106	0.0143483
851.184	0.0143048
851.262	0.0142431
851.340	0.0142813
851.418	0.0142531
851.496	0.0142409
851.575	0.0141938
851.653	0.0141352
851.731	0.0143736
851.809	0.0141397
851.887	0.0140757
851.965	0.0142350
852.043	0.0141926
852.121	0.0141547
852.200	0.0144032
852.278	0.0143102
852.356	0.0142163
852.434	0.0143125
852.512	0.0143292
852.590	0.0142633
852.668	0.0142536
852.746	0.0142869
852.825	0.0142664
852.903	0.0142062
852.981	0.0142085
853.059	0.0142142
853.137	0.0142209
853.215	0.0142538
853.293	0.0141534
853.371	0.0140820
853.450	0.0141381
853.528	0.0141457
853.606	0.0142246
853.684	0.0142531
853.762	0.0141847
853.840	0.0141293
853.918	0.0141087
853.996	0.0141299
854.075	0.0142406
854.153	0.0142699
854.231	0.0141534
854.309	0.0142292
854.387	0.0142971
854.465	0.0142635
854.543	0.0141861
854.621	0.0143422
854.700	0.0141811
854.778	0.0143101
854.856	0.0144568
854.934	0.0143156
855.012	0.0141506
855.090	0.0143197
855.168	0.0143020
855.246	0.0143324
855.325	0.0142227
855.403	0.0143825
855.481	0.0142818
855.559	0.0144859
855.637	0.0142612
855.715	0.0142797
855.793	0.0142846
855.871	0.0142094
855.950	0.0144233
856.028	0.0142315
856.106	0.0142155
856.184	0.0142280
856.262	0.0141723
856.340	0.0141240
856.418	0.0142072
856.496	0.0142326
856.575	0.0142187
856.653	0.0143066
856.731	0.0143621
856.809	0.0142096
856.887	0.0143257
856.965	0.0142769
857.043	0.0143130
857.121	0.0142405
857.200	0.0143102
857.278	0.0144228
857.356	0.0142505
857.434	0.0143261
857.512	0.0143357
857.590	0.0143874
857.668	0.0142083
857.746	0.0141666
857.825	0.0141778
857.903	0.0142741
857.981	0.0142970
858.059	0.0141219
858.137	0.0141393
858.215	0.0141897
858.293	0.0141034
858.371	0.0140463
858.450	0.0140308
858.528	0.0141836
858.606	0.0140983
858.684	0.0141946
858.762	0.0142775
858.840	0.0142577
858.918	0.0142329
858.996	0.0143685
859.075	0.0141599
859.153	0.0143258
859.231	0.0141716
859.309	0.0143057
859.387	0.0143035
859.465	0.0141285
859.543	0.0144028
859.621	0.0142176
859.700	0.0143181
859.778	0.0142957
859.856	0.0143346
859.934	0.0141338
860.012	0.0143124
860.090	0.0141811
860.168	0.0142232
860.246	0.0143148
860.325	0.0142268
860.403	0.0141700
860.481	0.0141496
860.559	0.0141082
860.637	0.0143174
860.715	0.0141535
860.793	0.0140114
860.871	0.0141049
860.950	0.0142405
861.028	0.0141991
861.106	0.0141985
861.184	0.0142352
861.262	0.0141302
861.340	0.0142309
861.418	0.0142748
861.496	0.0143545
861.575	0.0143491
861.653	0.0143262
861.731	0.0143609
861.809	0.0142238
861.887	0.0143543
861.965	0.0142560
862.043	0.0142236
862.121	0.0143526
862.200	0.0143985
862.278	0.0142964
862.356	0.0142872
862.434	0.0144109
862.512	0.0142125
862.590	0.0143224
862.668	0.0143581
862.746	0.0142213
862.825	0.0141966
862.903	0.0142622
862.981	0.0141934
863.059	0.0142374
863.137	0.0141261
863.215	0.0140243
863.293	0.0141665
863.371	0.0142215
863.450	0.0141911
863.528	0.0141439
863.606	0.0143308
863.684	0.0142756
863.762	0.0141969
863.840	0.0142537
863.918	0.0142711
863.996	0.0143112
864.075	0.0143966
864.153	0.0144662
864.231	0.0143720
864.309	0.0143630
864.387	0.0143475
864.465	0.0143667
864.543	0.0143660
864.621	0.0143364
864.700	0.0142055
864.778	0.0143439
864.856	0.0143076
864.934	0.0142702
865.012	0.0142302
865.090	0.0141726
865.168	0.0141292
865.246	0.0141577
865.325	0.0142680
865.403	0.0143351
865.481	0.0141106
865.559	0.0140814
865.637	0.0142232
865.715	0.0142979
865.793	0.0142766
865.871	0.0141959
865.950	0.0140093
866.028	0.0141663
866.106	0.0142199
866.184	0.0142731
866.262	0.0142981
866.340	0.0142842
866.418	0.0143230
866.496	0.0142484
866.575	0.0142254
866.653	0.0142065
866.731	0.0142655
866.809	0.0142050
866.887	0.0140830
866.965	0.0143495
867.043	0.0141272
867.121	0.0141533
867.200	0.0141193
867.278	0.0141624
867.356	0.0140678
867.434	0.0141460
867.512	0.0141359
867.590	0.0143153
867.668	0.0143001
867.746	0.0142590
867.825	0.0141225
867.903	0.0140755
867.981	0.0141061
868.059	0.0142196
868.137	0.0142171
868.215	0.0142714
868.293	0.0142496
868.371	0.0142795
868.450	0.0142353
868.528	0.0143755
868.606	0.0143414
868.684	0.0143267
868.762	0.0141756
868.840	0.0142900
868.918	0.0143576
868.996	0.0144023
869.075	0.0142060
869.153	0.0142992
869.231	0.0142293
869.309	0.0142382
869.387	0.0143642
869.465	0.0143674
869.543	0.0143161
869.621	0.0143551
869.700	0.0142228
869.778	0.0142563
869.856	0.0141877
869.934	0.0141164
870.012	0.0141661
870.090	0.0141888
870.168	0.0141571
870.246	0.0142854
870.325	0.0141180
870.403	0.0142484
870.481	0.0143782
870.559	0.0142757
870.637	0.0142768
870.715	0.0142804
870.793	0.0142161
870.871	0.0144155
870.950	0.0144524
871.028	0.0144083
871.106	0.0142164
871.184	0.0142500
871.262	0.0143126
871.340	0.0144660
871.418	0.0143523
871.496	0.0144904
871.575	0.0143031
871.653	0.0142294
871.731	0.0142323
871.809	0.0142435
871.887	0.0141685
871.965	0.0142946
872.043	0.0142493
872.121	0.0141923
872.200	0.0142116
872.278	0.0143840
872.356	0.0142111
872.434	0.0142418
872.512	0.0141830
872.590	0.0141808
872.668	0.0143190
872.746	0.0142509
872.825	0.0142329
872.903	0.0143105
872.981	0.0142871
873.059	0.0142002
873.137	0.0142439
873.215	0.0143004
873.293	0.0143126
873.371	0.0141910
873.450	0.0140952
873.528	0.0142165
873.606	0.0142365
873.684	0.0143303
873.762	0.0143867
873.840	0.0142059
873.918	0.0142110
873.996	0.0144083
874.075	0.0143005
874.153	0.0142161
874.231	0.0143105
874.309	0.0141913
874.387	0.0141472
874.465	0.0141982
874.543	0.0142565
874.621	0.0141619
874.700	0.0141842
874.778	0.0143360
874.856	0.0141405
874.934	0.0142291
875.012	0.0142538
875.090	0.0141625
875.168	0.0141705
875.246	0.0142315
875.325	0.0141570
875.403	0.0143105
875.481	0.0142892
875.559	0.0142892
875.637	0.0142245
875.715	0.0141557
875.793	0.0141696
875.871	0.0142264
875.950	0.0141735
876.028	0.0142139
876.106	0.0141729
876.184	0.0141589
876.262	0.0142207
876.340	0.0143054
876.418	0.0143546
876.496	0.0142705
876.575	0.0140706
876.653	0.0141994
876.731	0.0144392
876.809	0.0143645
876.887	0.0143087
876.965	0.0144693
877.043	0.0141954
877.121	0.0143111
877.200	0.0143708
877.278	0.0143147
877.356	0.0143346
877.434	0.0142539
877.512	0.0141777
877.590	0.0142801
877.668	0.0143798
877.746	0.0142609
877.825	0.0141883
877.903	0.0141953
877.981	0.0141578
878.059	0.0141565
878.137	0.0141926
878.215	0.0141759
878.293	0.0140401
878.371	0.0141479
878.450	0.0139870
878.528	0.0141959
878.606	0.0141627
878.684	0.0142175
878.762	0.0141173
878.840	0.0142711
878.918	0.0142495
878.996	0.0141471
879.075	0.0142213
879.153	0.0143924
879.231	0.0142461
879.309	0.0143285
879.387	0.0143572
879.465	0.0143419
879.543	0.0143508
879.621	0.0142757
879.700	0.0142107
879.778	0.0141793
879.856	0.0141655
879.934	0.0142964
880.012	0.0142992
880.090	0.0142801
880.168	0.0142072
880.246	0.0141829
880.325	0.0141348
880.403	0.0141013
880.481	0.0141550
880.559	0.0142207
880.637	0.0141129
880.715	0.0142388
880.793	0.0141322
880.871	0.0140034
880.950	0.0141462
881.028	0.0142027
881.106	0.0143041
881.184	0.0141322
881.262	0.0143018
881.340	0.0142893
881.418	0.0142912
881.496	0.0143424
881.575	0.0142439
881.653	0.0143330
881.731	0.0142258
881.809	0.0143513
881.887	0.0142113
881.965	0.0142500
882.043	0.0141948
882.121	0.0142599
882.200	0.0142941
882.278	0.0141680
882.356	0.0142126
882.434	0.0141486
882.512	0.0141649
882.590	0.0140529
882.668	0.0142272
882.746	0.0141906
882.825	0.0142287
882.903	0.0141463
882.981	0.0141839
883.059	0.0141573
883.137	0.0142224
883.215	0.0140413
883.293	0.0142660
883.371	0.0141750
883.450	0.0141643
883.528	0.0142473
883.606	0.0142030
883.684	0.0142163
883.762	0.0140276
883.840	0.0142719
883.918	0.0142795
883.996	0.0141188
884.075	0.0141048
884.153	0.0142967
884.231	0.0142871
884.309	0.0142067
884.387	0.0143204
884.465	0.0143872
884.543	0.0142411
884.621	0.0142879
884.700	0.0141439
884.778	0.0142733
884.856	0.0141216
884.934	0.0142499
885.012	0.0141692
885.090	0.0141776
885.168	0.0141553
885.246	0.0141415
885.325	0.0143165
885.403	0.0142920
885.481	0.0141230
885.559	0.0141673
885.637	0.0142159
885.715	0.0142316
885.793	0.0142797
885.871	0.0141920
885.950	0.0142343
886.028	0.0142568
886.106	0.0142704
886.184	0.0141019
886.262	0.0141555
886.340	0.0142136
886.418	0.0141946
886.496	0.0141980
886.575	0.0143172
886.653	0.0141399
886.731	0.0142059
886.809	0.0141782
886.887	0.0141515
886.965	0.0141901
887.043	0.0143858
887.121	0.0141830
887.200	0.0142389
887.278	0.0141970
887.356	0.0143275
887.434	0.0142202
887.512	0.0143322
887.590	0.0142540
887.668	0.0143433
887.746	0.0142598
887.825	0.0142873
887.903	0.0143226
887.981	0.0142709
888.059	0.0142339
888.137	0.0141233
888.215	0.0143311
888.293	0.0141874
888.371	0.0142772
888.450	0.0142254
888.528	0.0141360
888.606	0.0142906
888.684	0.0143349
888.762	0.0141582
888.840	0.0142297
888.918	0.0141895
888.996	0.0142393
889.075	0.0142970
889.153	0.0142291
889.231	0.0142394
889.309	0.0143024
889.387	0.0143636
889.465	0.0142104
889.543	0.0142431
889.621	0.0143564
889.700	0.0143649
889.778	0.0142139
889.856	0.0142735
889.934	0.0143138
890.012	0.0142083
890.090	0.0143124
890.168	0.0142251
890.246	0.0140977
890.325	0.0141335
890.403	0.0141629
890.481	0.0143063
890.559	0.0141208
890.637	0.0141233
890.715	0.0142095
890.793	0.0142683
890.871	0.0141568
890.950	0.0142399
891.028	0.0140524
891.106	0.0140434
891.184	0.0141407
891.262	0.0142598
891.340	0.0142374
891.418	0.0142113
891.496	0.0141391
891.575	0.0142928
891.653	0.0144036
891.731	0.0143948
891.809	0.0143623
891.887	0.0143010
891.965	0.0142545
892.043	0.0144536
892.121	0.0143585
892.200	0.0139922
892.278	0.0140991
892.356	0.0142111
892.434	0.0141812
892.512	0.0142245
892.590	0.0141872
892.668	0.0140292
892.746	0.0140891
892.825	0.0141912
892.903	0.0142265
892.981	0.0142052
893.059	0.0141789
893.137	0.0142203
893.215	0.0141341
893.293	0.0140984
893.371	0.0141305
893.450	0.0142823
893.528	0.0143417
893.606	0.0142957
893.684	0.0143195
893.762	0.0142199
893.840	0.0142863
893.918	0.0142751
893.996	0.0141879
894.075	0.0141738
894.153	0.0141553
894.231	0.0142567
894.309	0.0142986
894.387	0.0143224
894.465	0.0141878
894.543	0.0142562
894.621	0.0142638
894.700	0.0142806
894.778	0.0142583
894.856	0.0142022
894.934	0.0142368
895.012	0.0142834
895.090	0.0142088
895.168	0.0141490
895.246	0.0141172
895.325	0.0143245
895.403	0.0140897
895.481	0.0141801
895.559	0.0142371
895.637	0.0141810
895.715	0.0142081
895.793	0.0142502
895.871	0.0141895
895.950	0.0143909
896.028	0.0143081
896.106	0.0141774
896.184	0.0142756
896.262	0.0143053
896.340	0.0142997
896.418	0.0142895
896.496	0.0141867
896.575	0.0143216
896.653	0.0143023
896.731	0.0142872
896.809	0.0141812
896.887	0.0142291
896.965	0.0142474
897.043	0.0143118
897.121	0.0142846
897.200	0.0141731
897.278	0.0142731
897.356	0.0142198
897.434	0.0142539
897.512	0.0142601
897.590	0.0142254
897.668	0.0142236
897.746	0.0142506
897.825	0.0143322
897.903	0.0142094
897.981	0.0141821
898.059	0.0143307
898.137	0.0142672
898.215	0.0142038
898.293	0.0142389
898.371	0.0142219
898.450	0.0141362
898.528	0.0141682
898.606	0.0140495
898.684	0.0142210
898.762	0.0142397
898.840	0.0141450
898.918	0.0143987
898.996	0.0142772
899.075	0.0142673
899.153	0.0143231
899.231	0.0142957
899.309	0.0142339
899.387	0.0140926
899.465	0.0142797
899.543	0.0142324
899.621	0.0142223
899.700	0.0143336
899.778	0.0142241
899.856	0.0142208
899.934	0.0143736
900.012	0.0143227
900.090	0.0142997
900.168	0.0142531
900.246	0.0141199
900.325	0.0142597
900.403	0.0142033
900.481	0.0141968
900.559	0.0142564
900.637	0.0141312
900.715	0.0140520
900.793	0.0140405
900.871	0.0141000
900.950	0.0142340
901.028	0.0141035
901.106	0.0142103
901.184	0.0142793
901.262	0.0142097
901.340	0.0143589
901.418	0.0144692
901.496	0.0143665
901.575	0.0143282
901.653	0.0144588
901.731	0.0144601
901.809	0.0143559
901.887	0.0142676
901.965	0.0142442
902.043	0.0141324
902.121	0.0143686
902.200	0.0142161
902.278	0.0140388
902.356	0.0140202
902.434	0.0141174
902.512	0.0140902
902.590	0.0140556
902.668	0.0140806
902.746	0.0139681
902.825	0.0139888
902.903	0.0141071
902.981	0.0144008
903.059	0.0143778
903.137	0.0144342
903.215	0.0145545
903.293	0.0144587
903.371	0.0145152
903.450	0.0143550
903.528	0.0143388
903.606	0.0141264
903.684	0.0142305
903.762	0.0142011
903.840	0.0141140
903.918	0.0141000
903.996	0.0141828
904.075	0.0140702
904.153	0.0140939
904.231	0.0142347
904.309	0.0141876
904.387	0.0142252
904.465	0.0143561
904.543	0.0143131
904.621	0.0143526
904.700	0.0143678
904.778	0.0145132
904.856	0.0143995
904.934	0.0143382
905.012	0.0142688
905.090	0.0143096
905.168	0.0142972
905.246	0.0142796
905.325	0.0142999
905.403	0.0140961
905.481	0.0140944
905.559	0.0143400
905.637	0.0143254
905.715	0.0143217
905.793	0.0142051
905.871	0.0143323
905.950	0.0143668
906.028	0.0143585
906.106	0.0144167
906.184	0.0144387
906.262	0.0144180
906.340	0.0144921
906.418	0.0144550
906.496	0.0144582
906.575	0.0144672
906.653	0.0142889
906.731	0.0143203
906.809	0.0140842
906.887	0.0140613
906.965	0.0139382
907.043	0.0140091
907.121	0.0140955
907.200	0.0141782
907.278	0.0142345
907.356	0.0141652
907.434	0.0141997
907.512	0.0142863
907.590	0.0144064
907.668	0.0143996
907.746	0.0145102
907.825	0.0145159
907.903	0.0145773
907.981	0.0145235
908.059	0.0145423
908.137	0.0144963
908.215	0.0143925
908.293	0.0143903
908.371	0.0142981
908.450	0.0142657
908.528	0.0142005
908.606	0.0142007
908.684	0.0139771
908.762	0.0140388
908.840	0.0139777
908.918	0.0138837
908.996	0.0140789
909.075	0.0139940
909.153	0.0142214
909.231	0.0142744
909.309	0.0142749
909.387	0.0142787
909.465	0.0143613
909.543	0.0144447
909.621	0.0146178
909.700	0.0144809
909.778	0.0145243
909.856	0.0144534
909.934	0.0143606
910.012	0.0143855
910.090	0.0145351
910.168	0.0143081
910.246	0.0142037
910.325	0.0142193
910.403	0.0140987
910.481	0.0141698
910.559	0.0140549
910.637	0.0141479
910.715	0.0140296
910.793	0.0142324
910.871	0.0142239
910.950	0.0141573
911.028	0.0143404
911.106	0.0142843
911.184	0.0144837
911.262	0.0144727
911.340	0.0144300
911.418	0.0144417
911.496	0.0144764
911.575	0.0145974
911.653	0.0144182
911.731	0.0144927
911.809	0.0143201
911.887	0.0144543
911.965	0.0141097
912.043	0.0143192
912.121	0.0141200
912.200	0.0140382
912.278	0.0142078
912.356	0.0140054
912.434	0.0140324
912.512	0.0141601
912.590	0.0141342
912.668	0.0142038
912.746	0.0140533
912.825	0.0140735
912.903	0.0141553
912.981	0.0142719
913.059	0.0143982
913.137	0.0143452
913.215	0.0144586
913.293	0.0143852
913.371	0.0142823
913.450	0.0143965
913.528	0.0145721
913.606	0.0144029
913.684	0.0142673
913.762	0.0141705
913.840	0.0143130
913.918	0.0141985
913.996	0.0141395
914.075	0.0143145
914.153	0.0140619
914.231	0.0140190
914.309	0.0139937
914.387	0.0141895
914.465	0.0141248
914.543	0.0141477
914.621	0.0141622
914.700	0.0142243
914.778	0.0142176
914.856	0.0143114
914.934	0.0143774
915.012	0.0144157
915.090	0.0143463
915.168	0.0143949
915.246	0.0144595
915.325	0.0145737
915.403	0.0144377
915.481	0.0144637
915.559	0.0145805
915.637	0.0145861
915.715	0.0145689
915.793	0.0144755
915.871	0.0143213
915.950	0.0145364
916.028	0.0144730
916.106	0.0143387
916.184	0.0141630
916.262	0.0140697
916.340	0.0140832
916.418	0.0140238
916.496	0.0140635
916.575	0.0141531
916.653	0.0141602
916.731	0.0140573
916.809	0.0139905
916.887	0.0140173
916.965	0.0140537
917.043	0.0140910
917.121	0.0142159
917.200	0.0142103
917.278	0.0142061
917.356	0.0142956
917.434	0.0144089
917.512	0.0142249
917.590	0.0144162
917.668	0.0144209
917.746	0.0143034
917.825	0.0143481
917.903	0.0142400
917.981	0.0143553
918.059	0.0144151
918.137	0.0142143
918.215	0.0142324
918.293	0.0142751
918.371	0.0143227
918.450	0.0142573
918.528	0.0141656
918.606	0.0142202
918.684	0.0142170
918.762	0.0141624
918.840	0.0142246
918.918	0.0141422
918.996	0.0141761
919.075	0.0142699
919.153	0.0143905
919.231	0.0144310
919.309	0.0143894
919.387	0.0143748
919.465	0.0142850
919.543	0.0142149
919.621	0.0142936
919.700	0.0141836
919.778	0.0141763
919.856	0.0140260
919.934	0.0142938
920.012	0.0142693
920.090	0.0142196
920.168	0.0141063
920.246	0.0140850
920.325	0.0141853
920.403	0.0141803
920.481	0.0142339
920.559	0.0142481
920.637	0.0141580
920.715	0.0143570
920.793	0.0143958
920.871	0.0142149
920.950	0.0143575
921.028	0.0143462
921.106	0.0144119
921.184	0.0142637
921.262	0.0142386
921.340	0.0143468
921.418	0.0143819
921.496	0.0143324
921.575	0.0143001
921.653	0.0142882
921.731	0.0143135
921.809	0.0142572
921.887	0.0142382
921.965	0.0141686
922.043	0.0143900
922.121	0.0142966
922.200	0.0142670
922.278	0.0142741
922.356	0.0141160
922.434	0.0143328
922.512	0.0142107
922.590	0.0141845
922.668	0.0141250
922.746	0.0142535
922.825	0.0141862
922.903	0.0141848
922.981	0.0141308
923.059	0.0142648
923.137	0.0142219
923.215	0.0141257
923.293	0.0144092
923.371	0.0143950
923.450	0.0144633
923.528	0.0142818
923.606	0.0144004
923.684	0.0143589
923.762	0.0143941
923.840	0.0143781
923.918	0.0143422
923.996	0.0142916
924.075	0.0142205
924.153	0.0142574
924.231	0.0142006
924.309	0.0140808
924.387	0.0141874
924.465	0.0141942
924.543	0.0141071
924.621	0.0141162
924.700	0.0142484
924.778	0.0143317
924.856	0.0143410
924.934	0.0142766
925.012	0.0143031
925.090	0.0143707
925.168	0.0143790
925.246	0.0144276
925.325	0.0142140
925.403	0.0143224
925.481	0.0142062
925.559	0.0143117
925.637	0.0141991
925.715	0.0140978
925.793	0.0141903
925.871	0.0143446
925.950	0.0141771
926.028	0.0142056
926.106	0.0141232
926.184	0.0141829
926.262	0.0143234
926.340	0.0143111
926.418	0.0142487
926.496	0.0142451
926.575	0.0142994
926.653	0.0141513
926.731	0.0141438
926.809	0.0142403
926.887	0.0142963
926.965	0.0141723
927.043	0.0142647
927.121	0.0143085
927.200	0.0142009
927.278	0.0142831
927.356	0.0142632
927.434	0.0142385
927.512	0.0143011
927.590	0.0143243
927.668	0.0143181
927.746	0.0144511
927.825	0.0143645
927.903	0.0143518
927.981	0.0144432
928.059	0.0143832
928.137	0.0142539
928.215	0.0144778
928.293	0.0143317
928.371	0.0144535
928.450	0.0143201
928.528	0.0143224
928.606	0.0144349
928.684	0.0143279
928.762	0.0142775
928.840	0.0142509
928.918	0.0143779
928.996	0.0143909
929.075	0.0142509
929.153	0.0142500
929.231	0.0143819
929.309	0.0143660
929.387	0.0143690
929.465	0.0143344
929.543	0.0143042
929.621	0.0143869
929.700	0.0142695
929.778	0.0142461
929.856	0.0143151
929.934	0.0142751
930.012	0.0144002
930.090	0.0143128
930.168	0.0144145
930.246	0.0143697
930.325	0.0143336
930.403	0.0142336
930.481	0.0143997
930.559	0.0142963
930.637	0.0141814
930.715	0.0144186
930.793	0.0142666
930.871	0.0142444
930.950	0.0142231
931.028	0.0141917
931.106	0.0141475
931.184	0.0142981
931.262	0.0142435
931.340	0.0142015
931.418	0.0142340
931.496	0.0144297
931.575	0.0143018
931.653	0.0143178
931.731	0.0142603
931.809	0.0142439
931.887	0.0144160
931.965	0.0142829
932.043	0.0143066
932.121	0.0144890
932.200	0.0144957
932.278	0.0145540
932.356	0.0144900
932.434	0.0144086
932.512	0.0145104
932.590	0.0144232
932.668	0.0144017
932.746	0.0142776
932.825	0.0142230
932.903	0.0142544
932.981	0.0142654
933.059	0.0142311
933.137	0.0144068
933.215	0.0143082
933.293	0.0143414
933.371	0.0142990
933.450	0.0141905
933.528	0.0141123
933.606	0.0142960
933.684	0.0142088
933.762	0.0142125
933.840	0.0144646
933.918	0.0143172
933.996	0.0142446
934.075	0.0143066
934.153	0.0143697
934.231	0.0142515
934.309	0.0143211
934.387	0.0144253
934.465	0.0141443
934.543	0.0142320
934.621	0.0142342
934.700	0.0143786
934.778	0.0142512
934.856	0.0142715
934.934	0.0143387
935.012	0.0142722
935.090	0.0143184
935.168	0.0143421
935.246	0.0141511
935.325	0.0143755
935.403	0.0144341
935.481	0.0143095
935.559	0.0143524
935.637	0.0142364
935.715	0.0142576
935.793	0.0143636
935.871	0.0143834
935.950	0.0143346
936.028	0.0143707
936.106	0.0143892
936.184	0.0142846
936.262	0.0144055
936.340	0.0143907
936.418	0.0143022
936.496	0.0143700
936.575	0.0142220
936.653	0.0143125
936.731	0.0141795
936.809	0.0142243
936.887	0.0143037
936.965	0.0142790
937.043	0.0142553
937.121	0.0141783
937.200	0.0143513
937.278	0.0145024
937.356	0.0143132
937.434	0.0143612
937.512	0.0142945
937.590	0.0141956
937.668	0.0142924
937.746	0.0144137
937.825	0.0143257
937.903	0.0142888
937.981	0.0141914
938.059	0.0142757
938.137	0.0144596
938.215	0.0142469
938.293	0.0143448
938.371	0.0142941
938.450	0.0143168
938.528	0.0142982
938.606	0.0143085
938.684	0.0144528
938.762	0.0143625
938.840	0.0142446
938.918	0.0142477
938.996	0.0143550
939.075	0.0142249
939.153	0.0144136
939.231	0.0143210
939.309	0.0142596
939.387	0.0143850
939.465	0.0143374
939.543	0.0143151
939.621	0.0142763
939.700	0.0144233
939.778	0.0144926
939.856	0.0143244
939.934	0.0143317
940.012	0.0143707
940.090	0.0142549
940.168	0.0143043
940.246	0.0142874
940.325	0.0143410
940.403	0.0143121
940.481	0.0143001
940.559	0.0142270
940.637	0.0141261
940.715	0.0141941
940.793	0.0142424
940.871	0.0142521
940.950	0.0143135
941.028	0.0142567
941.106	0.0142597
941.184	0.0142838
941.262	0.0142049
941.340	0.0143568
941.418	0.0143887
941.496	0.0143585
941.575	0.0143269
941.653	0.0144720
941.731	0.0144472
941.809	0.0144216
941.887	0.0142955
941.965	0.0144416
942.043	0.0143734
942.121	0.0144161
942.200	0.0144208
942.278	0.0143394
942.356	0.0142283
942.434	0.0143324
942.512	0.0141696
942.590	0.0141133
942.668	0.0143236
942.746	0.0142654
942.825	0.0141282
942.903	0.0142697
942.981	0.0142564
943.059	0.0143272
943.137	0.0142859
943.215	0.0141129
943.293	0.0142574
943.371	0.0143201
943.450	0.0142332
943.528	0.0142978
943.606	0.0143195
943.684	0.0144365
943.762	0.0142928
943.840	0.0143036
943.918	0.0141552
943.996	0.0143599
944.075	0.0143669
944.153	0.0143270
944.231	0.0143740
944.309	0.0143597
944.387	0.0143272
944.465	0.0143710
944.543	0.0143272
944.621	0.0143285
944.700	0.0143320
944.778	0.0144232
944.856	0.0141861
944.934	0.0142765
945.012	0.0142108
945.090	0.0142471
945.168	0.0142502
945.246	0.0141547
945.325	0.0142146
945.403	0.0142673
945.481	0.0142678
945.559	0.0143162
945.637	0.0143012
945.715	0.0141219
945.793	0.0143876
945.871	0.0143897
945.950	0.0143625
946.028	0.0144001
946.106	0.0142905
946.184	0.0143286
946.262	0.0143899
946.340	0.0144194
946.418	0.0144330
946.496	0.0143971
946.575	0.0143341
946.653	0.0143338
946.731	0.0143366
946.809	0.0144775
946.887	0.0144113
946.965	0.0142091
947.043	0.0142559
947.121	0.0141959
947.200	0.0141832
947.278	0.0142312
947.356	0.0141312
947.434	0.0141262
947.512	0.0140791
947.590	0.0142268
947.668	0.0142857
947.746	0.0141050
947.825	0.0143073
947.903	0.0142184
947.981	0.0141678
948.059	0.0142070
948.137	0.0141711
948.215	0.0141391
948.293	0.0142908
948.371	0.0142827
948.450	0.0142598
948.528	0.0143919
948.606	0.0143668
948.684	0.0142773
948.762	0.0144521
948.840	0.0143726
948.918	0.0143797
948.996	0.0143101
949.075	0.0145594
949.153	0.0143613
949.231	0.0144771
949.309	0.0142328
949.387	0.0141892
949.465	0.0142815
949.543	0.0141996
949.621	0.0141409
949.700	0.0142693
949.778	0.0142726
949.856	0.0141367
949.934	0.0143046
950.012	0.0141702
950.090	0.0139895
950.168	0.0144003
950.246	0.0142966
950.325	0.0141973
950.403	0.0143020
950.481	0.0142564
950.559	0.0142832
950.637	0.0143738
950.715	0.0143719
950.793	0.0142811
950.871	0.0141447
950.950	0.0141982
951.028	0.0142355
951.106	0.0141879
951.184	0.0141792
951.262	0.0143420
951.340	0.0143157
951.418	0.0142674
951.496	0.0143293
951.575	0.0142621
951.653	0.0142766
951.731	0.0143212
951.809	0.0141843
951.887	0.0141292
951.965	0.0141664
952.043	0.0142003
952.121	0.0140807
952.200	0.0143551
952.278	0.0143183
952.356	0.0143071
952.434	0.0143845
952.512	0.0142179
952.590	0.0143618
952.668	0.0141956
952.746	0.0143323
952.825	0.0143935
952.903	0.0142973
952.981	0.0143939
953.059	0.0142185
953.137	0.0142519
953.215	0.0143169
953.293	0.0143845
953.371	0.0141436
953.450	0.0142203
953.528	0.0142816
953.606	0.0143181
953.684	0.0144228
953.762	0.0144489
953.840	0.0142346
953.918	0.0141288
953.996	0.0142946
954.075	0.0141888
954.153	0.0143025
954.231	0.0144187
954.309	0.0144434
954.387	0.0143097
954.465	0.0142716
954.543	0.0143133
954.621	0.0144357
954.700	0.0144354
954.778	0.0143216
954.856	0.0143192
954.934	0.0142910
955.012	0.0142348
955.090	0.0143017
955.168	0.0142701
955.246	0.0142661
955.325	0.0143396
955.403	0.0143224
955.481	0.0141682
955.559	0.0143259
955.637	0.0141515
955.715	0.0142576
955.793	0.0142801
955.871	0.0142257
955.950	0.0142139
956.028	0.0141743
956.106	0.0142602
956.184	0.0143417
956.262	0.0143373
956.340	0.0142564
956.418	0.0142651
956.496	0.0142067
956.575	0.0144411
956.653	0.0142893
956.731	0.0141995
956.809	0.0143027
956.887	0.0141736
956.965	0.0142724
957.043	0.0143967
957.121	0.0142661
957.200	0.0142563
957.278	0.0143297
957.356	0.0143707
957.434	0.0143075
957.512	0.0143983
957.590	0.0143684
957.668	0.0142582
957.746	0.0141901
957.825	0.0141885
957.903	0.0141586
957.981	0.0142773
958.059	0.0142450
958.137	0.0142031
958.215	0.0141978
958.293	0.0141003
958.371	0.0141430
958.450	0.0142678
958.528	0.0142599
958.606	0.0141215
958.684	0.0142848
958.762	0.0143288
958.840	0.0143547
958.918	0.0143008
958.996	0.0142648
959.075	0.0142594
959.153	0.0143371
959.231	0.0142634
959.309	0.0142604
959.387	0.0142480
959.465	0.0143060
959.543	0.0142854
959.621	0.0143907
959.700	0.0143325
959.778	0.0142912
959.856	0.0141634
959.934	0.0141570
960.012	0.0141212
960.090	0.0141647
960.168	0.0142278
960.246	0.0142806
960.325	0.0142107
960.403	0.0140819
960.481	0.0141133
960.559	0.0141495
960.637	0.0142558
960.715	0.0142213
960.793	0.0141754
960.871	0.0142095
960.950	0.0142506
961.028	0.0143223
961.106	0.0142633
961.184	0.0143613
961.262	0.0143634
961.340	0.0142843
961.418	0.0143303
961.496	0.0142762
961.575	0.0142410
961.653	0.0144009
961.731	0.0143264
961.809	0.0142176
961.887	0.0141229
961.965	0.0142071
962.043	0.0142194
962.121	0.0141867
962.200	0.0141327
962.278	0.0141072
962.356	0.0141769
962.434	0.0142170
962.512	0.0142210
962.590	0.0142104
962.668	0.0141563
962.746	0.0143507
962.825	0.0142734
962.903	0.0143008
962.981	0.0141902
963.059	0.0142991
963.137	0.0142700
963.215	0.0142762
963.293	0.0142773
963.371	0.0142232
963.450	0.0143295
963.528	0.0143108
963.606	0.0143064
963.684	0.0142065
963.762	0.0141989
963.840	0.0142384
963.918	0.0142858
963.996	0.0142142
964.075	0.0142638
964.153	0.0142197
964.231	0.0142290
964.309	0.0142953
964.387	0.0143991
964.465	0.0142544
964.543	0.0143176
964.621	0.0143501
964.700	0.0143635
964.778	0.0141535
964.856	0.0142662
964.934	0.0143597
965.012	0.0142248
965.090	0.0142857
965.168	0.0142155
965.246	0.0141914
965.325	0.0143226
965.403	0.0142130
965.481	0.0142014
965.559	0.0142081
965.637	0.0142043
965.715	0.0141396
965.793	0.0141137
965.871	0.0141139
965.950	0.0142039
966.028	0.0142382
966.106	0.0140899
966.184	0.0141695
966.262	0.0142987
966.340	0.0141085
966.418	0.0142079
966.496	0.0140958
966.575	0.0142037
966.653	0.0142371
966.731	0.0142157
966.809	0.0140996
966.887	0.0142923
966.965	0.0141756
967.043	0.0143552
967.121	0.0142782
967.200	0.0142233
967.278	0.0142979
967.356	0.0143198
967.434	0.0144222
967.512	0.0142437
967.590	0.0143086
967.668	0.0144304
967.746	0.0143287
967.825	0.0142597
967.903	0.0142975
967.981	0.0142341
968.059	0.0142337
968.137	0.0142930
968.215	0.0142496
968.293	0.0141963
968.371	0.0141856
968.450	0.0143958
968.528	0.0142507
968.606	0.0141606
968.684	0.0141581
968.762	0.0141142
968.840	0.0142303
968.918	0.0143128
968.996	0.0143011
969.075	0.0142834
969.153	0.0143221
969.231	0.0143179
969.309	0.0143407
969.387	0.0144699
969.465	0.0143810
969.543	0.0142924
969.621	0.0142961
969.700	0.0142213
969.778	0.0143183
969.856	0.0142224
969.934	0.0143739
970.012	0.0142103
970.090	0.0142553
970.168	0.0142680
970.246	0.0141906
970.325	0.0141480
970.403	0.0140977
970.481	0.0143313
970.559	0.0142787
970.637	0.0141923
970.715	0.0140907
970.793	0.0142726
970.871	0.0142871
970.950	0.0140567
971.028	0.0141998
971.106	0.0140511
971.184	0.0142588
971.262	0.0141821
971.340	0.0142406
971.418	0.0142244
971.496	0.0141446
971.575	0.0141341
971.653	0.0143441
971.731	0.0142353
971.809	0.0141203
971.887	0.0143616
971.965	0.0142732
972.043	0.0141888
972.121	0.0141386
972.200	0.0142319
972.278	0.0141924
972.356	0.0143569
972.434	0.0143524
972.512	0.0142778
972.590	0.0141927
972.668	0.0141930
972.746	0.0141357
972.825	0.0141758
972.903	0.0142892
972.981	0.0142162
973.059	0.0142370
973.137	0.0141768
973.215	0.0142668
973.293	0.0141869
973.371	0.0142000
973.450	0.0142488
973.528	0.0142667
973.606	0.0143589
973.684	0.0142173
973.762	0.0142451
973.840	0.0141879
973.918	0.0143190
973.996	0.0142202
974.075	0.0142178
974.153	0.0140784
974.231	0.0141862
974.309	0.0141747
974.387	0.0142696
974.465	0.0142166
974.543	0.0141232
974.621	0.0141352
974.700	0.0141814
974.778	0.0139861
974.856	0.0141132
974.934	0.0140932
975.012	0.0140182
975.090	0.0140986
975.168	0.0141994
975.246	0.0143507
975.325	0.0141353
975.403	0.0142718
975.481	0.0142899
975.559	0.0141121
975.637	0.0142126
975.715	0.0143532
975.793	0.0142917
975.871	0.0142426
975.950	0.0142340
976.028	0.0142830
976.106	0.0142962
976.184	0.0142515
976.262	0.0142536
976.340	0.0142482
976.418	0.0142950
976.496	0.0142344
976.575	0.0140536
976.653	0.0142080
976.731	0.0143032
976.809	0.0141544
976.887	0.0142194
976.965	0.0141063
977.043	0.0141742
977.121	0.0142437
977.200	0.0141756
977.278	0.0143789
977.356	0.0141973
977.434	0.0142076
977.512	0.0143426
977.590	0.0141354
977.668	0.0143333
977.746	0.0143922
977.825	0.0142076
977.903	0.0141745
977.981	0.0142334
978.059	0.0143145
978.137	0.0142986
978.215	0.0141605
978.293	0.0143475
978.371	0.0144062
978.450	0.0142612
978.528	0.0143702
978.606	0.0143231
978.684	0.0142484
978.762	0.0141611
978.840	0.0142268
978.918	0.0142112
978.996	0.0142216
979.075	0.0141927
979.153	0.0142408
979.231	0.0142464
979.309	0.0142260
979.387	0.0142270
979.465	0.0142461
979.543	0.0142597
979.621	0.0142561
979.700	0.0142464
979.778	0.0142467
979.856	0.0141730
979.934	0.0141118
980.012	0.0141710
980.090	0.0142320
980.168	0.0142871
980.246	0.0142385
980.325	0.0143732
980.403	0.0143633
980.481	0.0143549
980.559	0.0143771
980.637	0.0143903
980.715	0.0142793
980.793	0.0143053
980.871	0.0142605
980.950	0.0141962
981.028	0.0142625
981.106	0.0142081
981.184	0.0142710
981.262	0.0143533
981.340	0.0142081
981.418	0.0142609
981.496	0.0142197
981.575	0.0141862
981.653	0.0141228
981.731	0.0142548
981.809	0.0142510
981.887	0.0141123
981.965	0.0142837
982.043	0.0143211
982.121	0.0142076
982.200	0.0141135
982.278	0.0141586
982.356	0.0141685
982.434	0.0142171
982.512	0.0141736
982.590	0.0143841
982.668	0.0142747
982.746	0.0144192
982.825	0.0142849
982.903	0.0142254
982.981	0.0142545
983.059	0.0143864
983.137	0.0143119
983.215	0.0143364
983.293	0.0141856
983.371	0.0142294
983.450	0.0142122
983.528	0.0142928
983.606	0.0142015
983.684	0.0141656
983.762	0.0142973
983.840	0.0142504
983.918	0.0142551
983.996	0.0143822
984.075	0.0141602
984.153	0.0142302
984.231	0.0142529
984.309	0.0142113
984.387	0.0142479
984.465	0.0143353
984.543	0.0141440
984.621	0.0141589
984.700	0.0142807
984.778	0.0142355
984.856	0.0142259
984.934	0.0142309
985.012	0.0141890
985.090	0.0141735
985.168	0.0142831
985.246	0.0142259
985.325	0.0142271
985.403	0.0142985
985.481	0.0142155
985.559	0.0141601
985.637	0.0142329
985.715	0.0142352
985.793	0.0141516
985.871	0.0141264
985.950	0.0142251
986.028	0.0141996
986.106	0.0141671
986.184	0.0142063
986.262	0.0142923
986.340	0.0142286
986.418	0.0142484
986.496	0.0142049
986.575	0.0141441
986.653	0.0141309
986.731	0.0141679
986.809	0.0143066
986.887	0.0141732
986.965	0.0142571
987.043	0.0141520
987.121	0.0141635
987.200	0.0141907
987.278	0.0140953
987.356	0.0141785
987.434	0.0141878
987.512	0.0142088
987.590	0.0141806
987.668	0.0142078
987.746	0.0142229
987.825	0.0141563
987.903	0.0142624
987.981	0.0143597
988.059	0.0141773
988.137	0.0141751
988.215	0.0143218
988.293	0.0141717
988.371	0.0141809
988.450	0.0144025
988.528	0.0142309
988.606	0.0141723
988.684	0.0141596
988.762	0.0141822
988.840	0.0141947
988.918	0.0140607
988.996	0.0140474
989.075	0.0141964
989.153	0.0141374
989.231	0.0142924
989.309	0.0142606
989.387	0.0141982
989.465	0.0141592
989.543	0.0141903
989.621	0.0142143
989.700	0.0141634
989.778	0.0141640
989.856	0.0141553
989.934	0.0142411
990.012	0.0143362
990.090	0.0141283
990.168	0.0142683
990.246	0.0143205
990.325	0.0142925
990.403	0.0142959
990.481	0.0143282
990.559	0.0142336
990.637	0.0142443
990.715	0.0141921
990.793	0.0144557
990.871	0.0142558
990.950	0.0142327
991.028	0.0143286
991.106	0.0142169
991.184	0.0140935
991.262	0.0141072
991.340	0.0142684
991.418	0.0143328
991.496	0.0143446
991.575	0.0141747
991.653	0.0140624
991.731	0.0141905
991.809	0.0141136
991.887	0.0142735
991.965	0.0142289
992.043	0.0142233
992.121	0.0141367
992.200	0.0142146
992.278	0.0142603
992.356	0.0142444
992.434	0.0142168
992.512	0.0142521
992.590	0.0141763
992.668	0.0143371
992.746	0.0142300
992.825	0.0142774
992.903	0.0141470
992.981	0.0142285
993.059	0.0142119
993.137	0.0142587
993.215	0.0142809
993.293	0.0141800
993.371	0.0141202
993.450	0.0140137
993.528	0.0141905
993.606	0.0141207
993.684	0.0141341
993.762	0.0142102
993.840	0.0141749
993.918	0.0143101
993.996	0.0141769
994.075	0.0142838
994.153	0.0141006
994.231	0.0141219
994.309	0.0142345
994.387	0.0144607
994.465	0.0142968
994.543	0.0142352
994.621	0.0142515
994.700	0.0143130
994.778	0.0141919
994.856	0.0140972
994.934	0.0143675
995.012	0.0143347
995.090	0.0142926
995.168	0.0141792
995.246	0.0142864
995.325	0.0142018
995.403	0.0142603
995.481	0.0141856
995.559	0.0142181
995.637	0.0141950
995.715	0.0142769
995.793	0.0140903
995.871	0.0141843
995.950	0.0142870
996.028	0.0142304
996.106	0.0142141
996.184	0.0142531
996.262	0.0142416
996.340	0.0141652
996.418	0.0143292
996.496	0.0141509
996.575	0.0141351
996.653	0.0141939
996.731	0.0142012
996.809	0.0141245
996.887	0.0141706
996.965	0.0141251
997.043	0.0142899
997.121	0.0142630
997.200	0.0142760
997.278	0.0142571
997.356	0.0143873
997.434	0.0143957
997.512	0.0143067
997.590	0.0141679
997.668	0.0143112
997.746	0.0144404
997.825	0.0142681
997.903	0.0141634
997.981	0.0142052
998.059	0.0144083
998.137	0.0141583
998.215	0.0142104
998.293	0.0142603
998.371	0.0140765
998.450	0.0140998
998.528	0.0141035
998.606	0.0141093
998.684	0.0142207
998.762	0.0142510
998.840	0.0141531
998.918	0.0142439
