05/04/2022	20:47:31	Ver.	4.1	UNKNOWN
Optical Delay	679.003072	Delta X		0.078125	Sweeps	1	Scan Rate	0/0
Coordinates	Axis 1	NaN	Axis 2	NaN	Axis 3	NaN	Axis 4	NaN	Axis 5	NaN	Axis 6	0.000000
TX Power	0.000000	RX Power	0.000000

679.003	0.0142174
679.081	0.0141503
679.159	0.0143746
679.237	0.0142995
679.316	0.0143027
679.394	0.0141867
679.472	0.0142597
679.550	0.0141618
679.628	0.0142693
679.706	0.0143567
679.784	0.0142095
679.862	0.0142252
679.941	0.0142209
680.019	0.0141305
680.097	0.0143505
680.175	0.0144109
680.253	0.0142147
680.331	0.0142461
680.409	0.0141912
680.487	0.0141177
680.566	0.0141629
680.644	0.0142898
680.722	0.0141024
680.800	0.0142498
680.878	0.0141245
680.956	0.0142374
681.034	0.0141870
681.112	0.0142921
681.191	0.0143020
681.269	0.0143155
681.347	0.0141656
681.425	0.0141601
681.503	0.0141874
681.581	0.0143780
681.659	0.0142399
681.737	0.0142970
681.816	0.0142178
681.894	0.0142372
681.972	0.0141778
682.050	0.0142877
682.128	0.0142223
682.206	0.0143320
682.284	0.0143448
682.362	0.0141678
682.441	0.0142123
682.519	0.0141793
682.597	0.0141804
682.675	0.0142220
682.753	0.0142325
682.831	0.0141613
682.909	0.0142464
682.987	0.0143447
683.066	0.0142199
683.144	0.0142474
683.222	0.0141872
683.300	0.0142660
683.378	0.0141570
683.456	0.0142408
683.534	0.0142840
683.612	0.0141145
683.691	0.0141817
683.769	0.0141553
683.847	0.0142698
683.925	0.0142251
684.003	0.0141653
684.081	0.0142178
684.159	0.0142339
684.237	0.0144054
684.316	0.0141878
684.394	0.0142023
684.472	0.0143493
684.550	0.0142067
684.628	0.0140369
684.706	0.0141614
684.784	0.0143008
684.862	0.0142371
684.941	0.0142555
685.019	0.0142088
685.097	0.0140867
685.175	0.0141771
685.253	0.0141334
685.331	0.0141781
685.409	0.0141633
685.487	0.0142921
685.566	0.0141306
685.644	0.0141540
685.722	0.0141687
685.800	0.0142619
685.878	0.0141393
685.956	0.0141692
686.034	0.0141524
686.112	0.0142288
686.191	0.0141818
686.269	0.0141921
686.347	0.0142139
686.425	0.0141949
686.503	0.0142303
686.581	0.0141470
686.659	0.0141908
686.737	0.0141685
686.816	0.0141256
686.894	0.0142454
686.972	0.0142638
687.050	0.0142075
687.128	0.0141518
687.206	0.0142614
687.284	0.0141993
687.362	0.0141222
687.441	0.0141945
687.519	0.0141453
687.597	0.0142907
687.675	0.0142231
687.753	0.0141413
687.831	0.0143601
687.909	0.0143298
687.987	0.0143129
688.066	0.0142049
688.144	0.0141090
688.222	0.0141670
688.300	0.0142816
688.378	0.0143346
688.456	0.0141618
688.534	0.0143127
688.612	0.0141238
688.691	0.0141000
688.769	0.0142503
688.847	0.0143893
688.925	0.0143502
689.003	0.0143143
689.081	0.0142313
689.159	0.0141888
689.237	0.0142815
689.316	0.0143431
689.394	0.0142829
689.472	0.0143713
689.550	0.0143903
689.628	0.0142108
689.706	0.0142637
689.784	0.0142959
689.862	0.0143684
689.941	0.0143706
690.019	0.0142899
690.097	0.0142989
690.175	0.0142567
690.253	0.0142912
690.331	0.0142573
690.409	0.0142168
690.487	0.0142592
690.566	0.0143877
690.644	0.0141891
690.722	0.0143525
690.800	0.0144064
690.878	0.0143085
690.956	0.0143046
691.034	0.0142559
691.112	0.0142444
691.191	0.0142021
691.269	0.0141451
691.347	0.0142195
691.425	0.0142496
691.503	0.0142819
691.581	0.0143333
691.659	0.0143498
691.737	0.0142809
691.816	0.0143423
691.894	0.0143049
691.972	0.0142362
692.050	0.0141761
692.128	0.0143818
692.206	0.0142133
692.284	0.0141446
692.362	0.0143696
692.441	0.0142640
692.519	0.0140640
692.597	0.0142587
692.675	0.0142641
692.753	0.0141860
692.831	0.0142647
692.909	0.0141566
692.987	0.0142837
693.066	0.0142934
693.144	0.0142384
693.222	0.0141307
693.300	0.0142339
693.378	0.0143274
693.456	0.0142566
693.534	0.0143023
693.612	0.0142326
693.691	0.0141949
693.769	0.0141169
693.847	0.0142396
693.925	0.0141219
694.003	0.0143000
694.081	0.0141047
694.159	0.0141537
694.237	0.0141615
694.316	0.0143456
694.394	0.0141209
694.472	0.0141490
694.550	0.0141127
694.628	0.0141695
694.706	0.0141949
694.784	0.0143134
694.862	0.0143374
694.941	0.0142971
695.019	0.0141550
695.097	0.0143066
695.175	0.0142378
695.253	0.0143153
695.331	0.0142088
695.409	0.0141093
695.487	0.0143140
695.566	0.0143642
695.644	0.0144457
695.722	0.0142626
695.800	0.0141233
695.878	0.0141709
695.956	0.0142845
696.034	0.0142562
696.112	0.0142738
696.191	0.0142471
696.269	0.0141748
696.347	0.0143712
696.425	0.0142063
696.503	0.0141872
696.581	0.0142786
696.659	0.0141901
696.737	0.0142381
696.816	0.0142600
696.894	0.0141597
696.972	0.0142300
697.050	0.0141721
697.128	0.0142979
697.206	0.0141960
697.284	0.0141039
697.362	0.0142723
697.441	0.0142389
697.519	0.0143426
697.597	0.0141724
697.675	0.0141949
697.753	0.0141999
697.831	0.0141503
697.909	0.0141360
697.987	0.0142815
698.066	0.0142729
698.144	0.0142390
698.222	0.0141403
698.300	0.0141447
698.378	0.0142950
698.456	0.0143015
698.534	0.0144476
698.612	0.0141860
698.691	0.0142500
698.769	0.0141408
698.847	0.0141055
698.925	0.0142601
699.003	0.0142561
699.081	0.0142288
699.159	0.0143125
699.237	0.0143752
699.316	0.0142723
699.394	0.0143058
699.472	0.0142427
699.550	0.0141305
699.628	0.0142205
699.706	0.0142368
699.784	0.0143240
699.862	0.0141942
699.941	0.0141908
700.019	0.0142467
700.097	0.0142319
700.175	0.0140430
700.253	0.0141618
700.331	0.0142844
700.409	0.0142818
700.487	0.0143542
700.566	0.0141464
700.644	0.0141891
700.722	0.0143359
700.800	0.0143817
700.878	0.0142107
700.956	0.0143069
701.034	0.0142551
701.112	0.0141763
701.191	0.0142129
701.269	0.0141927
701.347	0.0140923
701.425	0.0142312
701.503	0.0141821
701.581	0.0142594
701.659	0.0142445
701.737	0.0143007
701.816	0.0143525
701.894	0.0141508
701.972	0.0142455
702.050	0.0142626
702.128	0.0141738
702.206	0.0142742
702.284	0.0141489
702.362	0.0142279
702.441	0.0142393
702.519	0.0143478
702.597	0.0141417
702.675	0.0143659
702.753	0.0143678
702.831	0.0142434
702.909	0.0142405
702.987	0.0142231
703.066	0.0141250
703.144	0.0142153
703.222	0.0142856
703.300	0.0142946
703.378	0.0141923
703.456	0.0143194
703.534	0.0142345
703.612	0.0142879
703.691	0.0143093
703.769	0.0143673
703.847	0.0143188
703.925	0.0141946
704.003	0.0142686
704.081	0.0143529
704.159	0.0143467
704.237	0.0142588
704.316	0.0141270
704.394	0.0141393
704.472	0.0142553
704.550	0.0142918
704.628	0.0142546
704.706	0.0143446
704.784	0.0143317
704.862	0.0143777
704.941	0.0142934
705.019	0.0143531
705.097	0.0142007
705.175	0.0143114
705.253	0.0142645
705.331	0.0142946
705.409	0.0142294
705.487	0.0143212
705.566	0.0142757
705.644	0.0142438
705.722	0.0141806
705.800	0.0143768
705.878	0.0143107
705.956	0.0141108
706.034	0.0142277
706.112	0.0142369
706.191	0.0141885
706.269	0.0141865
706.347	0.0141975
706.425	0.0141463
706.503	0.0142986
706.581	0.0143864
706.659	0.0143743
706.737	0.0142612
706.816	0.0141100
706.894	0.0141296
706.972	0.0142974
707.050	0.0142017
707.128	0.0142030
707.206	0.0141866
707.284	0.0141467
707.362	0.0141264
707.441	0.0142451
707.519	0.0142574
707.597	0.0142021
707.675	0.0142080
707.753	0.0141402
707.831	0.0142715
707.909	0.0141705
707.987	0.0142255
708.066	0.0142963
708.144	0.0141886
708.222	0.0142799
708.300	0.0141341
708.378	0.0142808
708.456	0.0142222
708.534	0.0140958
708.612	0.0141650
708.691	0.0142172
708.769	0.0141191
708.847	0.0142528
708.925	0.0142632
709.003	0.0142815
709.081	0.0140028
709.159	0.0141213
709.237	0.0142490
709.316	0.0142282
709.394	0.0142005
709.472	0.0143420
709.550	0.0140692
709.628	0.0142146
709.706	0.0141233
709.784	0.0143273
709.862	0.0142210
709.941	0.0141572
710.019	0.0142198
710.097	0.0142697
710.175	0.0143530
710.253	0.0142581
710.331	0.0143353
710.409	0.0141566
710.487	0.0142360
710.566	0.0143270
710.644	0.0141167
710.722	0.0142287
710.800	0.0143072
710.878	0.0140827
710.956	0.0141579
711.034	0.0142338
711.112	0.0141943
711.191	0.0142567
711.269	0.0141386
711.347	0.0143365
711.425	0.0142647
711.503	0.0140958
711.581	0.0141473
711.659	0.0141525
711.737	0.0140946
711.816	0.0142056
711.894	0.0141330
711.972	0.0141749
712.050	0.0142491
712.128	0.0141847
712.206	0.0142855
712.284	0.0141819
712.362	0.0142845
712.441	0.0142195
712.519	0.0141936
712.597	0.0141615
712.675	0.0140757
712.753	0.0141856
712.831	0.0141816
712.909	0.0143464
712.987	0.0142427
713.066	0.0141519
713.144	0.0141983
713.222	0.0142329
713.300	0.0142900
713.378	0.0143833
713.456	0.0144279
713.534	0.0143488
713.612	0.0142546
713.691	0.0143106
713.769	0.0143206
713.847	0.0143188
713.925	0.0143684
714.003	0.0143155
714.081	0.0141898
714.159	0.0141923
714.237	0.0141548
714.316	0.0142924
714.394	0.0141967
714.472	0.0142303
714.550	0.0142547
714.628	0.0142600
714.706	0.0141782
714.784	0.0143869
714.862	0.0144766
714.941	0.0142972
715.019	0.0141978
715.097	0.0142027
715.175	0.0141874
715.253	0.0141603
715.331	0.0140674
715.409	0.0141139
715.487	0.0142836
715.566	0.0142509
715.644	0.0142207
715.722	0.0142786
715.800	0.0141165
715.878	0.0143362
715.956	0.0142639
716.034	0.0142407
716.112	0.0141603
716.191	0.0141792
716.269	0.0141120
716.347	0.0141463
716.425	0.0141888
716.503	0.0140308
716.581	0.0141005
716.659	0.0141560
716.737	0.0141541
716.816	0.0141889
716.894	0.0142607
716.972	0.0142149
717.050	0.0140421
717.128	0.0141071
717.206	0.0142611
717.284	0.0141512
717.362	0.0142361
717.441	0.0141113
717.519	0.0143275
717.597	0.0141889
717.675	0.0141523
717.753	0.0141796
717.831	0.0141692
717.909	0.0142654
717.987	0.0143095
718.066	0.0141608
718.144	0.0141389
718.222	0.0143385
718.300	0.0141862
718.378	0.0142608
718.456	0.0141783
718.534	0.0140513
718.612	0.0142268
718.691	0.0141451
718.769	0.0141745
718.847	0.0141358
718.925	0.0141532
719.003	0.0142947
719.081	0.0143497
719.159	0.0142326
719.237	0.0142509
719.316	0.0140894
719.394	0.0140930
719.472	0.0141808
719.550	0.0141879
719.628	0.0142726
719.706	0.0141658
719.784	0.0141068
719.862	0.0141276
719.941	0.0141976
720.019	0.0142929
720.097	0.0144260
720.175	0.0142278
720.253	0.0143999
720.331	0.0143536
720.409	0.0143241
720.487	0.0142969
720.566	0.0142455
720.644	0.0143652
720.722	0.0143464
720.800	0.0142889
720.878	0.0144971
720.956	0.0144910
721.034	0.0142949
721.112	0.0141321
721.191	0.0142861
721.269	0.0141574
721.347	0.0141926
721.425	0.0142248
721.503	0.0142120
721.581	0.0141054
721.659	0.0141187
721.737	0.0141571
721.816	0.0142061
721.894	0.0141867
721.972	0.0142886
722.050	0.0142218
722.128	0.0142549
722.206	0.0141945
722.284	0.0141225
722.362	0.0142749
722.441	0.0140903
722.519	0.0141000
722.597	0.0140557
722.675	0.0139101
722.753	0.0140735
722.831	0.0142419
722.909	0.0140059
722.987	0.0141618
723.066	0.0142321
723.144	0.0141528
723.222	0.0142328
723.300	0.0143324
723.378	0.0143275
723.456	0.0143567
723.534	0.0143716
723.612	0.0143708
723.691	0.0144672
723.769	0.0144135
723.847	0.0143075
723.925	0.0143465
724.003	0.0142857
724.081	0.0143181
724.159	0.0143176
724.237	0.0142089
724.316	0.0142284
724.394	0.0141416
724.472	0.0144337
724.550	0.0143547
724.628	0.0142349
724.706	0.0143571
724.784	0.0143306
724.862	0.0144602
724.941	0.0144659
725.019	0.0143448
725.097	0.0143350
725.175	0.0143164
725.253	0.0143060
725.331	0.0142641
725.409	0.0143382
725.487	0.0143373
725.566	0.0142846
725.644	0.0142448
725.722	0.0143766
725.800	0.0143907
725.878	0.0143570
725.956	0.0142817
726.034	0.0142427
726.112	0.0142635
726.191	0.0142950
726.269	0.0143473
726.347	0.0144244
726.425	0.0143547
726.503	0.0143643
726.581	0.0143675
726.659	0.0143143
726.737	0.0143193
726.816	0.0142346
726.894	0.0142416
726.972	0.0141241
727.050	0.0142339
727.128	0.0142013
727.206	0.0142234
727.284	0.0140484
727.362	0.0141756
727.441	0.0140221
727.519	0.0140188
727.597	0.0141135
727.675	0.0140771
727.753	0.0139024
727.831	0.0140146
727.909	0.0141270
727.987	0.0141663
728.066	0.0141595
728.144	0.0141515
728.222	0.0142551
728.300	0.0143218
728.378	0.0143660
728.456	0.0143774
728.534	0.0143678
728.612	0.0142133
728.691	0.0143501
728.769	0.0141746
728.847	0.0143844
728.925	0.0141923
729.003	0.0143052
729.081	0.0142791
729.159	0.0142384
729.237	0.0141366
729.316	0.0141534
729.394	0.0141900
729.472	0.0141523
729.550	0.0141715
729.628	0.0141222
729.706	0.0144167
729.784	0.0143278
729.862	0.0142247
729.941	0.0141100
730.019	0.0141988
730.097	0.0142700
730.175	0.0142290
730.253	0.0142780
730.331	0.0143602
730.409	0.0144294
730.487	0.0142680
730.566	0.0143324
730.644	0.0144164
730.722	0.0143559
730.800	0.0142744
730.878	0.0142331
730.956	0.0143312
731.034	0.0143932
731.112	0.0141495
731.191	0.0141327
731.269	0.0141090
731.347	0.0140085
731.425	0.0142435
731.503	0.0140142
731.581	0.0140343
731.659	0.0142037
731.737	0.0142798
731.816	0.0142545
731.894	0.0141676
731.972	0.0141405
732.050	0.0141959
732.128	0.0142059
732.206	0.0142487
732.284	0.0142496
732.362	0.0142494
732.441	0.0142296
732.519	0.0141918
732.597	0.0141159
732.675	0.0141134
732.753	0.0140501
732.831	0.0140603
732.909	0.0140349
732.987	0.0140324
733.066	0.0140149
733.144	0.0138742
733.222	0.0139251
733.300	0.0138093
733.378	0.0139321
733.456	0.0139056
733.534	0.0140648
733.612	0.0140405
733.691	0.0139453
733.769	0.0140615
733.847	0.0142162
733.925	0.0141932
734.003	0.0141609
734.081	0.0139880
734.159	0.0141138
734.237	0.0140929
734.316	0.0143620
734.394	0.0143978
734.472	0.0141826
734.550	0.0143310
734.628	0.0142339
734.706	0.0142403
734.784	0.0144012
734.862	0.0144767
734.941	0.0143764
735.019	0.0143548
735.097	0.0144991
735.175	0.0144466
735.253	0.0144352
735.331	0.0144161
735.409	0.0143761
735.487	0.0144546
735.566	0.0142494
735.644	0.0143192
735.722	0.0143038
735.800	0.0142313
735.878	0.0144006
735.956	0.0143164
736.034	0.0143520
736.112	0.0143392
736.191	0.0143266
736.269	0.0143172
736.347	0.0142799
736.425	0.0143694
736.503	0.0144923
736.581	0.0143870
736.659	0.0144338
736.737	0.0142154
736.816	0.0143553
736.894	0.0144221
736.972	0.0143808
737.050	0.0141778
737.128	0.0142651
737.206	0.0141724
737.284	0.0142337
737.362	0.0141782
737.441	0.0141808
737.519	0.0141466
737.597	0.0141067
737.675	0.0141722
737.753	0.0142526
737.831	0.0142770
737.909	0.0143069
737.987	0.0142707
738.066	0.0141517
738.144	0.0142857
738.222	0.0143802
738.300	0.0142082
738.378	0.0141039
738.456	0.0141475
738.534	0.0141150
738.612	0.0142599
738.691	0.0143002
738.769	0.0140931
738.847	0.0140705
738.925	0.0141331
739.003	0.0140523
739.081	0.0140841
739.159	0.0142084
739.237	0.0141212
739.316	0.0141078
739.394	0.0141560
739.472	0.0140112
739.550	0.0140984
739.628	0.0142670
739.706	0.0139871
739.784	0.0141590
739.862	0.0142513
739.941	0.0141957
740.019	0.0141549
740.097	0.0142139
740.175	0.0141354
740.253	0.0142448
740.331	0.0142966
740.409	0.0142656
740.487	0.0144296
740.566	0.0143472
740.644	0.0143341
740.722	0.0143694
740.800	0.0144268
740.878	0.0143227
740.956	0.0143600
741.034	0.0142760
741.112	0.0142913
741.191	0.0142115
741.269	0.0143279
741.347	0.0142405
741.425	0.0142169
741.503	0.0142366
741.581	0.0142462
741.659	0.0142458
741.737	0.0141564
741.816	0.0142435
741.894	0.0141846
741.972	0.0141043
742.050	0.0142020
742.128	0.0141844
742.206	0.0142509
742.284	0.0141055
742.362	0.0141100
742.441	0.0142232
742.519	0.0141782
742.597	0.0141564
742.675	0.0141575
742.753	0.0141628
742.831	0.0140806
742.909	0.0141722
742.987	0.0140343
743.066	0.0141462
743.144	0.0141908
743.222	0.0141995
743.300	0.0141159
743.378	0.0141534
743.456	0.0140804
743.534	0.0141989
743.612	0.0141473
743.691	0.0139693
743.769	0.0140567
743.847	0.0140285
743.925	0.0141442
744.003	0.0141646
744.081	0.0141847
744.159	0.0141732
744.237	0.0140730
744.316	0.0140594
744.394	0.0141360
744.472	0.0142590
744.550	0.0142374
744.628	0.0142070
744.706	0.0142042
744.784	0.0142933
744.862	0.0142632
744.941	0.0142207
745.019	0.0142635
745.097	0.0142326
745.175	0.0141945
745.253	0.0142834
745.331	0.0141927
745.409	0.0141854
745.487	0.0142588
745.566	0.0141225
745.644	0.0140128
745.722	0.0141913
745.800	0.0141591
745.878	0.0140942
745.956	0.0142139
746.034	0.0141186
746.112	0.0141736
746.191	0.0142222
746.269	0.0141505
746.347	0.0142285
746.425	0.0141474
746.503	0.0142532
746.581	0.0142368
746.659	0.0142663
746.737	0.0142722
746.816	0.0143472
746.894	0.0143261
746.972	0.0144243
747.050	0.0143057
747.128	0.0143877
747.206	0.0143285
747.284	0.0144084
747.362	0.0142991
747.441	0.0143202
747.519	0.0143718
747.597	0.0143184
747.675	0.0142365
747.753	0.0141537
747.831	0.0142524
747.909	0.0142305
747.987	0.0140923
748.066	0.0142140
748.144	0.0142081
748.222	0.0142670
748.300	0.0143386
748.378	0.0141699
748.456	0.0142307
748.534	0.0143423
748.612	0.0142618
748.691	0.0143256
748.769	0.0142512
748.847	0.0142166
748.925	0.0143839
749.003	0.0144805
749.081	0.0144000
749.159	0.0142065
749.237	0.0142710
749.316	0.0143645
749.394	0.0143401
749.472	0.0143812
749.550	0.0142800
749.628	0.0142623
749.706	0.0143375
749.784	0.0143549
749.862	0.0143338
749.941	0.0143885
750.019	0.0143654
750.097	0.0144251
750.175	0.0144898
750.253	0.0141730
750.331	0.0143064
750.409	0.0143073
750.487	0.0142943
750.566	0.0142374
750.644	0.0144526
750.722	0.0143943
750.800	0.0142876
750.878	0.0144115
750.956	0.0143220
751.034	0.0142921
751.112	0.0143384
751.191	0.0143013
751.269	0.0143430
751.347	0.0143616
751.425	0.0143397
751.503	0.0142434
751.581	0.0142296
751.659	0.0142457
751.737	0.0142960
751.816	0.0142490
751.894	0.0142956
751.972	0.0142149
752.050	0.0140649
752.128	0.0141624
752.206	0.0142245
752.284	0.0140833
752.362	0.0141705
752.441	0.0142178
752.519	0.0141595
752.597	0.0141184
752.675	0.0140571
752.753	0.0141030
752.831	0.0140990
752.909	0.0142209
752.987	0.0140969
753.066	0.0140953
753.144	0.0141449
753.222	0.0140877
753.300	0.0141027
753.378	0.0142056
753.456	0.0140900
753.534	0.0140882
753.612	0.0141603
753.691	0.0141451
753.769	0.0142609
753.847	0.0141762
753.925	0.0141419
754.003	0.0140972
754.081	0.0140954
754.159	0.0142352
754.237	0.0141184
754.316	0.0140482
754.394	0.0141809
754.472	0.0142822
754.550	0.0141940
754.628	0.0141673
754.706	0.0142191
754.784	0.0140804
754.862	0.0143533
754.941	0.0141058
755.019	0.0142092
755.097	0.0142471
755.175	0.0142715
755.253	0.0142366
755.331	0.0142651
755.409	0.0142709
755.487	0.0141882
755.566	0.0143573
755.644	0.0143637
755.722	0.0142682
755.800	0.0141555
755.878	0.0142442
755.956	0.0142518
756.034	0.0144370
756.112	0.0141563
756.191	0.0141364
756.269	0.0143057
756.347	0.0143313
756.425	0.0142719
756.503	0.0141920
756.581	0.0141828
756.659	0.0141758
756.737	0.0141389
756.816	0.0142236
756.894	0.0142889
756.972	0.0142260
757.050	0.0142436
757.128	0.0141005
757.206	0.0141384
757.284	0.0142747
757.362	0.0141671
757.441	0.0140482
757.519	0.0141375
757.597	0.0142074
757.675	0.0141754
757.753	0.0142179
757.831	0.0142637
757.909	0.0141745
757.987	0.0141783
758.066	0.0140931
758.144	0.0140231
758.222	0.0140932
758.300	0.0141653
758.378	0.0141711
758.456	0.0141681
758.534	0.0141532
758.612	0.0140013
758.691	0.0141624
758.769	0.0140586
758.847	0.0142119
758.925	0.0142761
759.003	0.0143869
759.081	0.0141754
759.159	0.0141067
759.237	0.0142070
759.316	0.0141376
759.394	0.0142035
759.472	0.0141242
759.550	0.0142197
759.628	0.0142558
759.706	0.0141370
759.784	0.0141861
759.862	0.0142535
759.941	0.0142829
760.019	0.0140617
760.097	0.0140892
760.175	0.0141629
760.253	0.0141028
760.331	0.0143072
760.409	0.0141911
760.487	0.0142258
760.566	0.0141740
760.644	0.0141338
760.722	0.0142825
760.800	0.0142271
760.878	0.0142999
760.956	0.0141701
761.034	0.0143093
761.112	0.0143864
761.191	0.0142810
761.269	0.0142791
761.347	0.0143338
761.425	0.0142972
761.503	0.0142621
761.581	0.0143573
761.659	0.0143719
761.737	0.0141460
761.816	0.0142966
761.894	0.0143714
761.972	0.0143749
762.050	0.0143799
762.128	0.0142969
762.206	0.0142108
762.284	0.0143880
762.362	0.0143148
762.441	0.0143185
762.519	0.0143048
762.597	0.0143542
762.675	0.0143707
762.753	0.0142411
762.831	0.0142526
762.909	0.0143307
762.987	0.0143048
763.066	0.0143610
763.144	0.0143224
763.222	0.0142507
763.300	0.0141230
763.378	0.0142295
763.456	0.0142534
763.534	0.0141321
763.612	0.0143035
763.691	0.0142063
763.769	0.0141676
763.847	0.0142846
763.925	0.0143409
764.003	0.0143443
764.081	0.0141821
764.159	0.0142362
764.237	0.0143458
764.316	0.0142247
764.394	0.0142693
764.472	0.0141584
764.550	0.0141878
764.628	0.0142556
764.706	0.0141982
764.784	0.0142020
764.862	0.0143188
764.941	0.0143630
765.019	0.0142886
765.097	0.0141673
765.175	0.0142815
765.253	0.0142710
765.331	0.0142730
765.409	0.0141483
765.487	0.0142474
765.566	0.0142309
765.644	0.0142819
765.722	0.0143295
765.800	0.0141795
765.878	0.0142072
765.956	0.0142332
766.034	0.0143932
766.112	0.0142156
766.191	0.0141688
766.269	0.0142483
766.347	0.0142424
766.425	0.0143019
766.503	0.0142074
766.581	0.0142605
766.659	0.0142217
766.737	0.0141652
766.816	0.0143509
766.894	0.0143466
766.972	0.0142602
767.050	0.0141084
767.128	0.0142913
767.206	0.0141851
767.284	0.0142094
767.362	0.0142204
767.441	0.0142548
767.519	0.0142468
767.597	0.0141677
767.675	0.0141843
767.753	0.0142670
767.831	0.0142712
767.909	0.0142342
767.987	0.0142211
768.066	0.0142961
768.144	0.0143783
768.222	0.0142372
768.300	0.0141980
768.378	0.0142278
768.456	0.0141802
768.534	0.0142637
768.612	0.0142200
768.691	0.0142494
768.769	0.0142149
768.847	0.0141758
768.925	0.0143034
769.003	0.0142738
769.081	0.0140659
769.159	0.0141211
769.237	0.0140953
769.316	0.0140878
769.394	0.0141172
769.472	0.0141367
769.550	0.0141169
769.628	0.0141569
769.706	0.0142074
769.784	0.0142164
769.862	0.0141417
769.941	0.0141778
770.019	0.0141165
770.097	0.0142129
770.175	0.0141512
770.253	0.0142527
770.331	0.0140404
770.409	0.0141890
770.487	0.0141685
770.566	0.0141924
770.644	0.0141571
770.722	0.0142293
770.800	0.0141396
770.878	0.0143286
770.956	0.0142629
771.034	0.0142777
771.112	0.0141724
771.191	0.0141066
771.269	0.0142656
771.347	0.0142892
771.425	0.0142953
771.503	0.0141827
771.581	0.0141599
771.659	0.0142817
771.737	0.0143631
771.816	0.0142972
771.894	0.0141438
771.972	0.0141312
772.050	0.0141676
772.128	0.0140759
772.206	0.0143263
772.284	0.0142950
772.362	0.0143243
772.441	0.0144586
772.519	0.0142826
772.597	0.0142718
772.675	0.0143280
772.753	0.0143098
772.831	0.0143457
772.909	0.0143941
772.987	0.0143439
773.066	0.0143343
773.144	0.0144993
773.222	0.0142141
773.300	0.0142400
773.378	0.0144729
773.456	0.0144161
773.534	0.0142480
773.612	0.0142045
773.691	0.0141592
773.769	0.0142879
773.847	0.0143927
773.925	0.0142051
774.003	0.0141977
774.081	0.0141859
774.159	0.0142925
774.237	0.0142558
774.316	0.0142268
774.394	0.0141709
774.472	0.0142662
774.550	0.0142261
774.628	0.0142429
774.706	0.0142270
774.784	0.0143098
774.862	0.0142238
774.941	0.0140887
775.019	0.0143165
775.097	0.0142615
775.175	0.0142496
775.253	0.0140774
775.331	0.0141158
775.409	0.0141978
775.487	0.0143203
775.566	0.0142253
775.644	0.0140839
775.722	0.0142049
775.800	0.0142871
775.878	0.0141465
775.956	0.0142870
776.034	0.0142131
776.112	0.0142619
776.191	0.0142895
776.269	0.0140395
776.347	0.0142918
776.425	0.0142200
776.503	0.0142439
776.581	0.0143224
776.659	0.0141462
776.737	0.0142860
776.816	0.0143245
776.894	0.0143070
776.972	0.0143022
777.050	0.0140624
777.128	0.0141690
777.206	0.0142375
777.284	0.0141356
777.362	0.0142669
777.441	0.0142788
777.519	0.0142406
777.597	0.0142399
777.675	0.0141788
777.753	0.0143002
777.831	0.0142432
777.909	0.0141820
777.987	0.0142358
778.066	0.0143259
778.144	0.0141713
778.222	0.0142854
778.300	0.0141729
778.378	0.0140844
778.456	0.0143130
778.534	0.0143223
778.612	0.0142947
778.691	0.0141719
778.769	0.0142680
778.847	0.0140829
778.925	0.0142625
779.003	0.0141578
779.081	0.0142278
779.159	0.0141267
779.237	0.0141100
779.316	0.0142996
779.394	0.0142962
779.472	0.0142490
779.550	0.0143002
779.628	0.0142402
779.706	0.0140690
779.784	0.0142110
779.862	0.0142783
779.941	0.0142146
780.019	0.0142314
780.097	0.0141927
780.175	0.0142914
780.253	0.0141605
780.331	0.0141096
780.409	0.0142964
780.487	0.0142046
780.566	0.0140807
780.644	0.0142730
780.722	0.0142981
780.800	0.0141805
780.878	0.0142051
780.956	0.0142194
781.034	0.0142197
781.112	0.0142105
781.191	0.0141756
781.269	0.0141501
781.347	0.0141746
781.425	0.0142847
781.503	0.0142302
781.581	0.0141388
781.659	0.0142036
781.737	0.0142049
781.816	0.0142342
781.894	0.0141734
781.972	0.0142361
782.050	0.0143253
782.128	0.0143051
782.206	0.0142484
782.284	0.0142219
782.362	0.0142204
782.441	0.0143568
782.519	0.0143204
782.597	0.0142362
782.675	0.0142534
782.753	0.0141960
782.831	0.0142591
782.909	0.0143072
782.987	0.0142523
783.066	0.0142037
783.144	0.0141998
783.222	0.0142525
783.300	0.0142762
783.378	0.0143529
783.456	0.0142878
783.534	0.0141886
783.612	0.0143054
783.691	0.0142340
783.769	0.0142521
783.847	0.0143978
783.925	0.0142162
784.003	0.0142369
784.081	0.0142155
784.159	0.0142786
784.237	0.0142020
784.316	0.0142408
784.394	0.0141931
784.472	0.0142401
784.550	0.0142052
784.628	0.0142689
784.706	0.0142574
784.784	0.0141211
784.862	0.0143149
784.941	0.0143163
785.019	0.0141568
785.097	0.0142493
785.175	0.0142664
785.253	0.0142496
785.331	0.0143641
785.409	0.0143082
785.487	0.0142177
785.566	0.0142372
785.644	0.0142095
785.722	0.0143934
785.800	0.0143635
785.878	0.0142578
785.956	0.0142798
786.034	0.0143497
786.112	0.0141168
786.191	0.0142745
786.269	0.0143767
786.347	0.0142185
786.425	0.0142788
786.503	0.0142272
786.581	0.0143058
786.659	0.0143353
786.737	0.0142697
786.816	0.0141333
786.894	0.0142673
786.972	0.0142742
787.050	0.0142628
787.128	0.0141141
787.206	0.0142509
787.284	0.0144162
787.362	0.0143242
787.441	0.0143195
787.519	0.0140929
787.597	0.0142942
787.675	0.0143040
787.753	0.0142493
787.831	0.0143550
787.909	0.0142284
787.987	0.0142581
788.066	0.0143041
788.144	0.0143312
788.222	0.0141943
788.300	0.0141811
788.378	0.0142321
788.456	0.0142098
788.534	0.0142027
788.612	0.0142208
788.691	0.0142273
788.769	0.0142828
788.847	0.0142643
788.925	0.0142636
789.003	0.0143460
789.081	0.0144410
789.159	0.0144054
789.237	0.0142295
789.316	0.0143163
789.394	0.0143639
789.472	0.0143318
789.550	0.0143742
789.628	0.0143427
789.706	0.0142759
789.784	0.0143791
789.862	0.0143844
789.941	0.0143306
790.019	0.0142439
790.097	0.0141938
790.175	0.0143279
790.253	0.0142551
790.331	0.0143071
790.409	0.0142631
790.487	0.0142652
790.566	0.0143073
790.644	0.0142554
790.722	0.0144408
790.800	0.0142789
790.878	0.0143476
790.956	0.0142000
791.034	0.0143113
791.112	0.0142854
791.191	0.0143860
791.269	0.0143735
791.347	0.0142386
791.425	0.0143350
791.503	0.0141867
791.581	0.0143667
791.659	0.0142417
791.737	0.0143594
791.816	0.0143916
791.894	0.0142516
791.972	0.0142685
792.050	0.0143286
792.128	0.0142722
792.206	0.0142120
792.284	0.0143790
792.362	0.0142825
792.441	0.0143036
792.519	0.0142805
792.597	0.0142717
792.675	0.0142576
792.753	0.0142481
792.831	0.0142203
792.909	0.0143088
792.987	0.0142757
793.066	0.0143102
793.144	0.0143620
793.222	0.0143496
793.300	0.0142794
793.378	0.0143118
793.456	0.0142015
793.534	0.0142471
793.612	0.0143205
793.691	0.0141842
793.769	0.0141277
793.847	0.0142597
793.925	0.0142913
794.003	0.0143379
794.081	0.0141551
794.159	0.0142184
794.237	0.0142260
794.316	0.0141332
794.394	0.0142295
794.472	0.0143787
794.550	0.0142532
794.628	0.0141597
794.706	0.0142772
794.784	0.0143924
794.862	0.0141987
794.941	0.0141495
795.019	0.0143559
795.097	0.0142542
795.175	0.0142572
795.253	0.0143462
795.331	0.0143265
795.409	0.0142207
795.487	0.0141257
795.566	0.0142622
795.644	0.0142829
795.722	0.0141983
795.800	0.0140979
795.878	0.0141951
795.956	0.0143020
796.034	0.0141286
796.112	0.0141781
796.191	0.0143053
796.269	0.0143228
796.347	0.0141866
796.425	0.0141666
796.503	0.0141973
796.581	0.0142846
796.659	0.0142060
796.737	0.0142545
796.816	0.0142345
796.894	0.0140834
796.972	0.0141296
797.050	0.0142488
797.128	0.0144318
797.206	0.0143449
797.284	0.0143466
797.362	0.0143927
797.441	0.0144402
797.519	0.0142067
797.597	0.0141903
797.675	0.0142253
797.753	0.0143887
797.831	0.0143429
797.909	0.0142894
797.987	0.0143430
798.066	0.0142107
798.144	0.0141198
798.222	0.0142896
798.300	0.0142579
798.378	0.0142392
798.456	0.0142694
798.534	0.0141644
798.612	0.0143196
798.691	0.0141981
798.769	0.0141492
798.847	0.0141589
798.925	0.0140489
799.003	0.0142252
799.081	0.0142831
799.159	0.0141978
799.237	0.0143151
799.316	0.0142316
799.394	0.0142395
799.472	0.0142110
799.550	0.0142344
799.628	0.0142004
799.706	0.0141730
799.784	0.0142623
799.862	0.0142886
799.941	0.0142827
800.019	0.0142255
800.097	0.0141030
800.175	0.0140508
800.253	0.0141444
800.331	0.0141348
800.409	0.0142152
800.487	0.0141167
800.566	0.0142314
800.644	0.0141957
800.722	0.0141502
800.800	0.0141793
800.878	0.0142397
800.956	0.0141806
801.034	0.0142531
801.112	0.0142356
801.191	0.0141324
801.269	0.0142467
801.347	0.0142771
801.425	0.0142950
801.503	0.0141813
801.581	0.0141766
801.659	0.0142602
801.737	0.0141183
801.816	0.0141645
801.894	0.0142038
801.972	0.0142593
802.050	0.0142811
802.128	0.0143500
802.206	0.0141196
802.284	0.0142281
802.362	0.0142699
802.441	0.0142147
802.519	0.0141830
802.597	0.0142905
802.675	0.0142589
802.753	0.0140755
802.831	0.0141749
802.909	0.0141281
802.987	0.0142783
803.066	0.0142985
803.144	0.0142733
803.222	0.0142662
803.300	0.0142751
803.378	0.0141412
803.456	0.0141307
803.534	0.0143169
803.612	0.0142782
803.691	0.0141978
803.769	0.0141562
803.847	0.0142789
803.925	0.0140924
804.003	0.0141344
804.081	0.0143016
804.159	0.0142485
804.237	0.0140798
804.316	0.0142374
804.394	0.0141296
804.472	0.0141335
804.550	0.0142712
804.628	0.0142682
804.706	0.0143217
804.784	0.0141137
804.862	0.0141092
804.941	0.0141675
805.019	0.0142303
805.097	0.0142924
805.175	0.0140559
805.253	0.0142272
805.331	0.0143013
805.409	0.0142682
805.487	0.0140912
805.566	0.0143565
805.644	0.0142518
805.722	0.0142072
805.800	0.0141613
805.878	0.0143489
805.956	0.0142684
806.034	0.0142326
806.112	0.0142921
806.191	0.0142532
806.269	0.0143762
806.347	0.0140722
806.425	0.0141682
806.503	0.0143706
806.581	0.0141807
806.659	0.0142467
806.737	0.0142477
806.816	0.0142831
806.894	0.0141570
806.972	0.0142981
807.050	0.0143652
807.128	0.0142167
807.206	0.0143777
807.284	0.0143398
807.362	0.0141621
807.441	0.0142885
807.519	0.0142591
807.597	0.0142253
807.675	0.0141817
807.753	0.0141934
807.831	0.0141927
807.909	0.0143484
807.987	0.0142328
808.066	0.0143697
808.144	0.0143716
808.222	0.0142113
808.300	0.0142171
808.378	0.0142246
808.456	0.0142977
808.534	0.0141878
808.612	0.0143974
808.691	0.0142872
808.769	0.0141697
808.847	0.0143127
808.925	0.0142805
809.003	0.0142975
809.081	0.0144016
809.159	0.0144840
809.237	0.0142735
809.316	0.0142490
809.394	0.0142688
809.472	0.0142179
809.550	0.0141776
809.628	0.0143699
809.706	0.0141759
809.784	0.0141427
809.862	0.0142416
809.941	0.0143557
810.019	0.0141191
810.097	0.0141162
810.175	0.0142245
810.253	0.0142682
810.331	0.0141163
810.409	0.0141084
810.487	0.0142992
810.566	0.0143049
810.644	0.0142569
810.722	0.0141962
810.800	0.0142319
810.878	0.0142422
810.956	0.0142957
811.034	0.0142470
811.112	0.0142516
811.191	0.0142087
811.269	0.0140859
811.347	0.0141198
811.425	0.0142832
811.503	0.0142308
811.581	0.0142397
811.659	0.0141351
811.737	0.0141671
811.816	0.0141092
811.894	0.0142976
811.972	0.0142237
812.050	0.0143253
812.128	0.0142564
812.206	0.0142460
812.284	0.0142341
812.362	0.0142171
812.441	0.0142268
812.519	0.0143297
812.597	0.0142950
812.675	0.0142522
812.753	0.0142397
812.831	0.0143103
812.909	0.0141262
812.987	0.0141408
813.066	0.0142825
813.144	0.0141820
813.222	0.0142587
813.300	0.0142027
813.378	0.0141840
813.456	0.0141901
813.534	0.0142528
813.612	0.0142719
813.691	0.0142741
813.769	0.0143249
813.847	0.0143510
813.925	0.0144372
814.003	0.0141977
814.081	0.0140830
814.159	0.0142977
814.237	0.0143104
814.316	0.0141635
814.394	0.0143139
814.472	0.0141525
814.550	0.0142903
814.628	0.0143005
814.706	0.0142477
814.784	0.0142497
814.862	0.0142771
814.941	0.0142537
815.019	0.0142835
815.097	0.0142159
815.175	0.0143616
815.253	0.0143378
815.331	0.0142897
815.409	0.0142082
815.487	0.0144012
815.566	0.0142864
815.644	0.0142962
815.722	0.0142332
815.800	0.0142611
815.878	0.0142835
815.956	0.0141962
816.034	0.0143071
816.112	0.0143361
816.191	0.0142174
816.269	0.0142879
816.347	0.0142688
816.425	0.0141802
816.503	0.0141752
816.581	0.0141253
816.659	0.0141724
816.737	0.0141128
816.816	0.0141586
816.894	0.0142439
816.972	0.0142496
817.050	0.0141466
817.128	0.0142707
817.206	0.0143510
817.284	0.0142416
817.362	0.0141510
817.441	0.0143147
817.519	0.0143212
817.597	0.0142921
817.675	0.0142360
817.753	0.0143303
817.831	0.0143132
817.909	0.0143217
817.987	0.0142020
818.066	0.0142213
818.144	0.0141922
818.222	0.0143826
818.300	0.0142983
818.378	0.0143040
818.456	0.0142141
818.534	0.0141080
818.612	0.0142586
818.691	0.0143394
818.769	0.0142210
818.847	0.0142474
818.925	0.0141606
819.003	0.0142502
819.081	0.0143034
819.159	0.0143343
819.237	0.0143521
819.316	0.0143095
819.394	0.0142897
819.472	0.0144114
819.550	0.0143258
819.628	0.0142320
819.706	0.0144270
819.784	0.0143305
819.862	0.0142782
819.941	0.0143951
820.019	0.0143398
820.097	0.0142639
820.175	0.0142841
820.253	0.0142001
820.331	0.0143296
820.409	0.0142536
820.487	0.0142982
820.566	0.0142459
820.644	0.0142187
820.722	0.0142355
820.800	0.0142770
820.878	0.0144729
820.956	0.0144300
821.034	0.0143794
821.112	0.0143097
821.191	0.0142139
821.269	0.0141454
821.347	0.0143332
821.425	0.0141493
821.503	0.0142506
821.581	0.0141315
821.659	0.0142194
821.737	0.0142477
821.816	0.0141959
821.894	0.0141416
821.972	0.0142509
822.050	0.0141362
822.128	0.0141969
822.206	0.0141840
822.284	0.0141639
822.362	0.0141474
822.441	0.0143058
822.519	0.0142691
822.597	0.0142245
822.675	0.0142665
822.753	0.0142188
822.831	0.0142571
822.909	0.0142823
822.987	0.0140250
823.066	0.0140871
823.144	0.0143410
823.222	0.0143135
823.300	0.0141952
823.378	0.0141944
823.456	0.0141622
823.534	0.0142481
823.612	0.0142245
823.691	0.0141731
823.769	0.0140516
823.847	0.0141400
823.925	0.0143134
824.003	0.0141561
824.081	0.0142210
824.159	0.0142014
824.237	0.0141026
824.316	0.0142666
824.394	0.0141872
824.472	0.0143140
824.550	0.0142519
824.628	0.0142348
824.706	0.0142188
824.784	0.0140930
824.862	0.0141262
824.941	0.0140491
825.019	0.0141454
825.097	0.0142067
825.175	0.0142972
825.253	0.0142366
825.331	0.0141398
825.409	0.0142508
825.487	0.0141788
825.566	0.0142719
825.644	0.0141328
825.722	0.0142448
825.800	0.0142863
825.878	0.0142202
825.956	0.0141700
826.034	0.0141853
826.112	0.0143457
826.191	0.0141576
826.269	0.0143499
826.347	0.0141476
826.425	0.0142780
826.503	0.0143415
826.581	0.0142772
826.659	0.0141808
826.737	0.0142160
826.816	0.0142873
826.894	0.0141319
826.972	0.0142268
827.050	0.0141364
827.128	0.0142868
827.206	0.0142433
827.284	0.0142345
827.362	0.0141693
827.441	0.0143108
827.519	0.0143185
827.597	0.0142680
827.675	0.0141940
827.753	0.0143708
827.831	0.0141412
827.909	0.0141769
827.987	0.0142026
828.066	0.0143228
828.144	0.0142560
828.222	0.0141921
828.300	0.0140941
828.378	0.0142609
828.456	0.0141969
828.534	0.0141351
828.612	0.0142807
828.691	0.0143356
828.769	0.0143054
828.847	0.0142662
828.925	0.0142563
829.003	0.0141779
829.081	0.0141460
829.159	0.0142297
829.237	0.0143334
829.316	0.0142761
829.394	0.0143439
829.472	0.0142846
829.550	0.0142373
829.628	0.0142948
829.706	0.0142904
829.784	0.0142038
829.862	0.0143241
829.941	0.0142213
830.019	0.0142587
830.097	0.0143236
830.175	0.0142322
830.253	0.0143378
830.331	0.0141605
830.409	0.0142365
830.487	0.0141769
830.566	0.0142145
830.644	0.0142634
830.722	0.0142024
830.800	0.0141978
830.878	0.0143020
830.956	0.0143069
831.034	0.0143169
831.112	0.0142680
831.191	0.0141781
831.269	0.0144538
831.347	0.0142106
831.425	0.0142398
831.503	0.0141797
831.581	0.0142018
831.659	0.0143580
831.737	0.0142717
831.816	0.0142628
831.894	0.0142212
831.972	0.0142593
832.050	0.0141750
832.128	0.0141656
832.206	0.0142314
832.284	0.0141867
832.362	0.0141344
832.441	0.0143428
832.519	0.0142806
832.597	0.0143127
832.675	0.0141663
832.753	0.0142851
832.831	0.0144641
832.909	0.0142546
832.987	0.0141024
833.066	0.0141055
833.144	0.0140544
833.222	0.0142769
833.300	0.0142893
833.378	0.0142419
833.456	0.0143104
833.534	0.0143603
833.612	0.0141971
833.691	0.0141697
833.769	0.0142141
833.847	0.0142041
833.925	0.0142656
834.003	0.0142472
834.081	0.0141546
834.159	0.0141347
834.237	0.0142976
834.316	0.0142539
834.394	0.0141876
834.472	0.0142132
834.550	0.0141389
834.628	0.0143087
834.706	0.0143082
834.784	0.0141677
834.862	0.0142858
834.941	0.0142560
835.019	0.0141911
835.097	0.0142159
835.175	0.0141489
835.253	0.0141170
835.331	0.0141854
835.409	0.0140427
835.487	0.0141837
835.566	0.0142512
835.644	0.0141025
835.722	0.0140398
835.800	0.0141352
835.878	0.0143094
835.956	0.0141635
836.034	0.0140173
836.112	0.0141093
836.191	0.0142068
836.269	0.0141908
836.347	0.0141598
836.425	0.0143180
836.503	0.0140791
836.581	0.0142285
836.659	0.0142834
836.737	0.0141998
836.816	0.0142760
836.894	0.0142831
836.972	0.0141713
837.050	0.0142391
837.128	0.0142164
837.206	0.0142049
837.284	0.0141917
837.362	0.0142795
837.441	0.0142954
837.519	0.0143960
837.597	0.0143257
837.675	0.0141752
837.753	0.0142138
837.831	0.0141815
837.909	0.0144158
837.987	0.0142728
838.066	0.0143277
838.144	0.0143126
838.222	0.0142387
838.300	0.0143520
838.378	0.0142704
838.456	0.0142789
838.534	0.0142650
838.612	0.0143260
838.691	0.0143336
838.769	0.0142867
838.847	0.0142904
838.925	0.0143282
839.003	0.0143072
839.081	0.0144154
839.159	0.0143739
839.237	0.0142680
839.316	0.0142030
839.394	0.0142112
839.472	0.0143085
839.550	0.0144139
839.628	0.0142863
839.706	0.0142605
839.784	0.0142858
839.862	0.0143994
839.941	0.0142479
840.019	0.0141259
840.097	0.0142716
840.175	0.0142307
840.253	0.0142033
840.331	0.0143149
840.409	0.0142188
840.487	0.0143451
840.566	0.0141486
840.644	0.0142178
840.722	0.0143035
840.800	0.0141842
840.878	0.0142899
840.956	0.0142791
841.034	0.0141970
841.112	0.0142080
841.191	0.0142680
841.269	0.0143591
841.347	0.0142842
841.425	0.0142861
841.503	0.0142169
841.581	0.0142469
841.659	0.0142371
841.737	0.0142834
841.816	0.0142802
841.894	0.0143039
841.972	0.0143427
842.050	0.0142649
842.128	0.0143421
842.206	0.0141788
842.284	0.0143587
842.362	0.0144072
842.441	0.0143396
842.519	0.0142345
842.597	0.0141352
842.675	0.0142805
842.753	0.0141949
842.831	0.0142593
842.909	0.0142709
842.987	0.0142659
843.066	0.0141921
843.144	0.0142107
843.222	0.0141969
843.300	0.0142725
843.378	0.0143156
843.456	0.0143356
843.534	0.0143654
843.612	0.0142332
843.691	0.0141824
843.769	0.0142292
843.847	0.0142789
843.925	0.0141727
844.003	0.0143403
844.081	0.0144727
844.159	0.0143110
844.237	0.0142513
844.316	0.0142593
844.394	0.0141930
844.472	0.0142860
844.550	0.0142992
844.628	0.0142451
844.706	0.0142188
844.784	0.0142599
844.862	0.0142685
844.941	0.0142323
845.019	0.0143098
845.097	0.0142375
845.175	0.0141354
845.253	0.0142806
845.331	0.0142670
845.409	0.0142641
845.487	0.0142643
845.566	0.0142031
845.644	0.0142910
845.722	0.0140833
845.800	0.0142548
845.878	0.0142979
845.956	0.0141679
846.034	0.0141659
846.112	0.0142027
846.191	0.0142397
846.269	0.0143590
846.347	0.0143891
846.425	0.0142715
846.503	0.0142169
846.581	0.0141279
846.659	0.0142345
846.737	0.0142919
846.816	0.0141492
846.894	0.0141507
846.972	0.0142008
847.050	0.0142493
847.128	0.0140290
847.206	0.0141621
847.284	0.0142088
847.362	0.0143005
847.441	0.0142245
847.519	0.0142538
847.597	0.0140776
847.675	0.0141988
847.753	0.0143476
847.831	0.0142374
847.909	0.0141257
847.987	0.0141038
848.066	0.0140665
848.144	0.0142182
848.222	0.0142272
848.300	0.0141608
848.378	0.0140131
848.456	0.0141354
848.534	0.0143225
848.612	0.0142208
848.691	0.0141874
848.769	0.0141396
848.847	0.0141228
848.925	0.0141772
849.003	0.0143364
849.081	0.0141897
849.159	0.0141310
849.237	0.0142423
849.316	0.0142303
849.394	0.0141850
849.472	0.0141421
849.550	0.0142703
849.628	0.0142330
849.706	0.0142412
849.784	0.0142747
849.862	0.0142430
849.941	0.0141995
850.019	0.0143276
850.097	0.0141308
850.175	0.0142754
850.253	0.0141945
850.331	0.0143302
850.409	0.0143559
850.487	0.0144233
850.566	0.0142998
850.644	0.0143327
850.722	0.0142659
850.800	0.0142312
850.878	0.0142318
850.956	0.0143742
851.034	0.0141833
851.112	0.0141653
851.191	0.0142615
851.269	0.0143793
851.347	0.0142525
851.425	0.0141486
851.503	0.0142410
851.581	0.0143328
851.659	0.0143287
851.737	0.0143253
851.816	0.0142483
851.894	0.0142678
851.972	0.0143764
852.050	0.0142973
852.128	0.0141303
852.206	0.0142443
852.284	0.0143607
852.362	0.0143153
852.441	0.0142345
852.519	0.0142303
852.597	0.0142485
852.675	0.0141886
852.753	0.0144461
852.831	0.0141656
852.909	0.0140678
852.987	0.0142562
853.066	0.0141300
853.144	0.0142403
853.222	0.0142515
853.300	0.0142429
853.378	0.0142441
853.456	0.0142351
853.534	0.0142820
853.612	0.0142619
853.691	0.0142370
853.769	0.0142420
853.847	0.0141946
853.925	0.0142140
854.003	0.0142370
854.081	0.0141000
854.159	0.0141340
854.237	0.0142097
854.316	0.0142611
854.394	0.0141699
854.472	0.0142850
854.550	0.0141502
854.628	0.0141747
854.706	0.0140910
854.784	0.0141039
854.862	0.0141325
854.941	0.0140389
855.019	0.0141647
855.097	0.0142572
855.175	0.0141262
855.253	0.0142302
855.331	0.0141409
855.409	0.0142350
855.487	0.0142566
855.566	0.0142076
855.644	0.0142903
855.722	0.0143562
855.800	0.0142876
855.878	0.0142356
855.956	0.0143282
856.034	0.0142278
856.112	0.0143272
856.191	0.0141992
856.269	0.0143272
856.347	0.0142954
856.425	0.0142368
856.503	0.0143700
856.581	0.0143245
856.659	0.0142564
856.737	0.0142342
856.816	0.0142054
856.894	0.0143951
856.972	0.0142754
857.050	0.0141944
857.128	0.0143162
857.206	0.0141368
857.284	0.0142529
857.362	0.0142635
857.441	0.0141605
857.519	0.0141698
857.597	0.0141695
857.675	0.0143254
857.753	0.0142004
857.831	0.0141288
857.909	0.0141774
857.987	0.0142088
858.066	0.0142371
858.144	0.0141716
858.222	0.0142451
858.300	0.0141542
858.378	0.0140932
858.456	0.0141814
858.534	0.0142960
858.612	0.0143306
858.691	0.0142978
858.769	0.0142062
858.847	0.0143089
858.925	0.0140285
859.003	0.0141731
859.081	0.0142140
859.159	0.0142693
859.237	0.0141683
859.316	0.0142527
859.394	0.0142959
859.472	0.0141315
859.550	0.0142330
859.628	0.0142592
859.706	0.0142033
859.784	0.0141302
859.862	0.0141650
859.941	0.0142876
860.019	0.0143092
860.097	0.0142495
860.175	0.0142219
860.253	0.0142706
860.331	0.0142143
860.409	0.0141057
860.487	0.0143733
860.566	0.0142131
860.644	0.0142070
860.722	0.0141653
860.800	0.0143098
860.878	0.0142536
860.956	0.0143295
861.034	0.0143508
861.112	0.0142793
861.191	0.0142764
861.269	0.0143165
861.347	0.0141893
861.425	0.0142174
861.503	0.0142812
861.581	0.0142054
861.659	0.0143018
861.737	0.0143530
861.816	0.0142761
861.894	0.0141628
861.972	0.0142063
862.050	0.0143694
862.128	0.0141830
862.206	0.0143643
862.284	0.0142406
862.362	0.0143065
862.441	0.0142561
862.519	0.0142764
862.597	0.0142012
862.675	0.0142380
862.753	0.0143714
862.831	0.0144465
862.909	0.0141989
862.987	0.0142264
863.066	0.0142419
863.144	0.0142789
863.222	0.0143770
863.300	0.0142094
863.378	0.0143270
863.456	0.0143095
863.534	0.0143641
863.612	0.0141546
863.691	0.0142838
863.769	0.0143731
863.847	0.0143761
863.925	0.0142907
864.003	0.0142747
864.081	0.0143134
864.159	0.0142533
864.237	0.0142217
864.316	0.0142222
864.394	0.0143828
864.472	0.0142216
864.550	0.0142068
864.628	0.0144258
864.706	0.0142782
864.784	0.0141997
864.862	0.0142466
864.941	0.0143594
865.019	0.0142310
865.097	0.0141319
865.175	0.0142326
865.253	0.0143800
865.331	0.0142363
865.409	0.0141822
865.487	0.0143270
865.566	0.0142687
865.644	0.0141637
865.722	0.0141400
865.800	0.0143336
865.878	0.0142416
865.956	0.0142612
866.034	0.0142775
866.112	0.0142684
866.191	0.0143107
866.269	0.0142616
866.347	0.0141497
866.425	0.0142806
866.503	0.0142788
866.581	0.0141568
866.659	0.0144645
866.737	0.0143080
866.816	0.0143266
866.894	0.0143770
866.972	0.0143633
867.050	0.0142762
867.128	0.0142167
867.206	0.0142959
867.284	0.0143857
867.362	0.0141870
867.441	0.0143285
867.519	0.0143349
867.597	0.0142680
867.675	0.0142814
867.753	0.0142516
867.831	0.0143465
867.909	0.0142104
867.987	0.0143190
868.066	0.0142695
868.144	0.0143634
868.222	0.0143295
868.300	0.0142318
868.378	0.0142248
868.456	0.0142740
868.534	0.0142985
868.612	0.0141995
868.691	0.0141395
868.769	0.0143282
868.847	0.0142867
868.925	0.0142764
869.003	0.0140998
869.081	0.0141549
869.159	0.0142921
869.237	0.0142261
869.316	0.0140674
869.394	0.0142371
869.472	0.0141672
869.550	0.0142648
869.628	0.0141603
869.706	0.0142943
869.784	0.0142793
869.862	0.0143059
869.941	0.0140655
870.019	0.0142512
870.097	0.0142825
870.175	0.0140923
870.253	0.0142060
870.331	0.0142797
870.409	0.0142568
870.487	0.0141202
870.566	0.0141587
870.644	0.0142387
870.722	0.0143423
870.800	0.0140214
870.878	0.0141765
870.956	0.0142781
871.034	0.0142658
871.112	0.0140997
871.191	0.0141269
871.269	0.0142757
871.347	0.0142072
871.425	0.0142412
871.503	0.0141293
871.581	0.0141614
871.659	0.0142498
871.737	0.0143163
871.816	0.0142255
871.894	0.0141930
871.972	0.0143611
872.050	0.0141529
872.128	0.0142950
872.206	0.0143768
872.284	0.0141447
872.362	0.0141199
872.441	0.0142502
872.519	0.0141624
872.597	0.0141669
872.675	0.0142645
872.753	0.0142009
872.831	0.0142620
872.909	0.0143721
872.987	0.0143161
873.066	0.0141467
873.144	0.0142536
873.222	0.0143781
873.300	0.0142755
873.378	0.0141750
873.456	0.0142210
873.534	0.0142848
873.612	0.0143147
873.691	0.0142139
873.769	0.0142723
873.847	0.0142052
873.925	0.0142441
874.003	0.0142913
874.081	0.0142345
874.159	0.0141811
874.237	0.0142729
874.316	0.0142380
874.394	0.0142135
874.472	0.0144169
874.550	0.0141650
874.628	0.0142183
874.706	0.0142586
874.784	0.0141785
874.862	0.0143133
874.941	0.0143316
875.019	0.0142442
875.097	0.0141664
875.175	0.0143896
875.253	0.0143267
875.331	0.0142262
875.409	0.0142211
875.487	0.0142699
875.566	0.0142551
875.644	0.0142387
875.722	0.0141956
875.800	0.0141724
875.878	0.0141281
875.956	0.0143876
876.034	0.0143510
876.112	0.0141857
876.191	0.0143249
876.269	0.0142564
876.347	0.0141625
876.425	0.0140804
876.503	0.0143545
876.581	0.0142575
876.659	0.0143571
876.737	0.0142462
876.816	0.0142855
876.894	0.0142802
876.972	0.0142633
877.050	0.0142464
877.128	0.0143130
877.206	0.0142193
877.284	0.0143063
877.362	0.0143755
877.441	0.0142384
877.519	0.0141930
877.597	0.0142801
877.675	0.0141759
877.753	0.0142065
877.831	0.0142033
877.909	0.0141856
877.987	0.0143304
878.066	0.0142464
878.144	0.0142250
878.222	0.0141350
878.300	0.0142381
878.378	0.0141832
878.456	0.0141537
878.534	0.0141193
878.612	0.0141560
878.691	0.0142886
878.769	0.0142139
878.847	0.0142255
878.925	0.0141872
879.003	0.0142910
879.081	0.0141884
879.159	0.0142931
879.237	0.0142113
879.316	0.0143624
879.394	0.0142604
879.472	0.0143674
879.550	0.0143366
879.628	0.0144244
879.706	0.0143613
879.784	0.0142918
879.862	0.0143205
879.941	0.0143427
880.019	0.0143120
880.097	0.0143665
880.175	0.0142612
880.253	0.0142651
880.331	0.0143124
880.409	0.0143079
880.487	0.0142270
880.566	0.0143269
880.644	0.0143035
880.722	0.0142347
880.800	0.0141850
880.878	0.0143475
880.956	0.0142496
881.034	0.0143120
881.112	0.0142992
881.191	0.0144038
881.269	0.0143665
881.347	0.0143801
881.425	0.0142691
881.503	0.0142461
881.581	0.0143625
881.659	0.0143651
881.737	0.0142806
881.816	0.0143615
881.894	0.0143463
881.972	0.0143012
882.050	0.0142465
882.128	0.0143169
882.206	0.0143390
882.284	0.0141977
882.362	0.0142156
882.441	0.0142955
882.519	0.0141889
882.597	0.0141703
882.675	0.0142168
882.753	0.0141805
882.831	0.0142214
882.909	0.0144122
882.987	0.0142471
883.066	0.0142258
883.144	0.0141647
883.222	0.0142310
883.300	0.0142130
883.378	0.0141621
883.456	0.0142404
883.534	0.0140388
883.612	0.0142548
883.691	0.0142355
883.769	0.0143531
883.847	0.0142622
883.925	0.0141515
884.003	0.0142142
884.081	0.0142033
884.159	0.0143053
884.237	0.0142725
884.316	0.0142635
884.394	0.0142416
884.472	0.0142405
884.550	0.0142144
884.628	0.0141441
884.706	0.0142126
884.784	0.0142620
884.862	0.0143552
884.941	0.0142960
885.019	0.0143293
885.097	0.0143119
885.175	0.0141896
885.253	0.0143436
885.331	0.0142566
885.409	0.0142274
885.487	0.0143260
885.566	0.0143714
885.644	0.0143427
885.722	0.0142661
885.800	0.0142693
885.878	0.0143939
885.956	0.0144102
886.034	0.0144092
886.112	0.0143377
886.191	0.0142854
886.269	0.0142116
886.347	0.0141577
886.425	0.0143270
886.503	0.0142278
886.581	0.0141817
886.659	0.0143468
886.737	0.0143496
886.816	0.0142986
886.894	0.0143799
886.972	0.0143531
887.050	0.0143701
887.128	0.0142784
887.206	0.0142390
887.284	0.0144009
887.362	0.0142563
887.441	0.0140845
887.519	0.0143045
887.597	0.0142635
887.675	0.0143432
887.753	0.0142933
887.831	0.0142594
887.909	0.0140752
887.987	0.0142393
888.066	0.0142982
888.144	0.0142548
888.222	0.0142602
888.300	0.0142147
888.378	0.0142374
888.456	0.0143156
888.534	0.0142255
888.612	0.0142216
888.691	0.0143482
888.769	0.0142579
888.847	0.0142320
888.925	0.0142917
889.003	0.0143185
889.081	0.0142249
889.159	0.0142989
889.237	0.0142793
889.316	0.0142656
889.394	0.0143334
889.472	0.0142997
889.550	0.0142779
889.628	0.0143330
889.706	0.0142963
889.784	0.0141734
889.862	0.0141757
889.941	0.0142551
890.019	0.0143033
890.097	0.0143720
890.175	0.0142474
890.253	0.0143149
890.331	0.0142188
890.409	0.0143987
890.487	0.0142699
890.566	0.0142449
890.644	0.0143827
890.722	0.0142452
890.800	0.0141199
890.878	0.0141632
890.956	0.0142699
891.034	0.0142876
891.112	0.0141898
891.191	0.0141853
891.269	0.0142009
891.347	0.0142773
891.425	0.0143477
891.503	0.0141419
891.581	0.0143185
891.659	0.0142558
891.737	0.0141915
891.816	0.0142136
891.894	0.0142206
891.972	0.0142836
892.050	0.0142310
892.128	0.0141442
892.206	0.0143007
892.284	0.0142716
892.362	0.0143385
892.441	0.0142151
892.519	0.0141799
892.597	0.0144117
892.675	0.0141953
892.753	0.0142323
892.831	0.0141708
892.909	0.0140527
892.987	0.0142487
893.066	0.0141625
893.144	0.0142972
893.222	0.0142434
893.300	0.0143293
893.378	0.0141429
893.456	0.0142658
893.534	0.0143306
893.612	0.0141376
893.691	0.0141860
893.769	0.0142893
893.847	0.0143514
893.925	0.0141675
894.003	0.0143192
894.081	0.0142992
894.159	0.0142551
894.237	0.0141694
894.316	0.0141731
894.394	0.0142860
894.472	0.0143980
894.550	0.0143301
894.628	0.0142384
894.706	0.0143433
894.784	0.0142206
894.862	0.0141932
894.941	0.0141283
895.019	0.0141375
895.097	0.0141833
895.175	0.0142848
895.253	0.0142294
895.331	0.0142746
895.409	0.0141917
895.487	0.0143007
895.566	0.0141736
895.644	0.0141071
895.722	0.0142243
895.800	0.0141631
895.878	0.0141014
895.956	0.0142166
896.034	0.0141549
896.112	0.0141987
896.191	0.0142084
896.269	0.0140791
896.347	0.0141403
896.425	0.0141073
896.503	0.0142511
896.581	0.0141647
896.659	0.0141237
896.737	0.0141821
896.816	0.0142017
896.894	0.0140905
896.972	0.0141316
897.050	0.0143525
897.128	0.0142992
897.206	0.0142040
897.284	0.0141811
897.362	0.0142195
897.441	0.0143747
897.519	0.0143057
897.597	0.0143047
897.675	0.0142455
897.753	0.0141216
897.831	0.0142271
897.909	0.0143660
897.987	0.0141537
898.066	0.0142834
898.144	0.0143379
898.222	0.0141375
898.300	0.0142497
898.378	0.0141592
898.456	0.0142545
898.534	0.0142235
898.612	0.0141923
898.691	0.0142435
898.769	0.0143068
898.847	0.0142252
898.925	0.0140926
899.003	0.0143114
899.081	0.0142103
899.159	0.0142427
899.237	0.0142366
899.316	0.0141496
899.394	0.0142757
899.472	0.0143460
899.550	0.0141055
899.628	0.0141151
899.706	0.0142278
899.784	0.0141903
899.862	0.0141904
899.941	0.0141763
900.019	0.0142030
900.097	0.0141675
900.175	0.0142524
900.253	0.0142072
900.331	0.0142244
900.409	0.0142241
900.487	0.0142144
900.566	0.0142666
900.644	0.0142791
900.722	0.0141613
900.800	0.0142464
900.878	0.0143381
900.956	0.0142155
901.034	0.0142003
901.112	0.0143111
901.191	0.0141444
901.269	0.0141685
901.347	0.0141620
901.425	0.0143226
901.503	0.0141985
901.581	0.0142227
901.659	0.0142995
901.737	0.0143089
901.816	0.0142174
901.894	0.0144481
901.972	0.0142946
902.050	0.0142591
902.128	0.0142288
902.206	0.0141292
902.284	0.0142410
902.362	0.0142335
902.441	0.0141406
902.519	0.0142384
902.597	0.0141351
902.675	0.0141740
902.753	0.0142773
902.831	0.0143038
902.909	0.0143659
902.987	0.0142357
903.066	0.0143210
903.144	0.0142537
903.222	0.0141481
903.300	0.0141673
903.378	0.0142583
903.456	0.0143568
903.534	0.0141574
903.612	0.0142902
903.691	0.0141196
903.769	0.0141598
903.847	0.0143723
903.925	0.0142442
904.003	0.0142580
904.081	0.0142223
904.159	0.0142155
904.237	0.0141922
904.316	0.0141281
904.394	0.0141872
904.472	0.0142638
904.550	0.0142076
904.628	0.0142456
904.706	0.0141770
904.784	0.0140055
904.862	0.0141383
904.941	0.0141288
905.019	0.0142837
905.097	0.0141444
905.175	0.0142334
905.253	0.0141422
905.331	0.0141273
905.409	0.0143147
905.487	0.0141822
905.566	0.0142673
905.644	0.0141806
905.722	0.0142315
905.800	0.0141711
905.878	0.0142447
905.956	0.0141735
906.034	0.0142854
906.112	0.0142061
906.191	0.0142132
906.269	0.0141654
906.347	0.0142667
906.425	0.0142863
906.503	0.0142290
906.581	0.0142019
906.659	0.0142343
906.737	0.0144067
906.816	0.0143111
906.894	0.0142213
906.972	0.0142356
907.050	0.0143814
907.128	0.0142339
907.206	0.0142260
907.284	0.0142673
907.362	0.0144013
907.441	0.0142266
907.519	0.0142701
907.597	0.0141966
907.675	0.0143420
907.753	0.0142950
907.831	0.0142148
907.909	0.0142623
907.987	0.0143031
908.066	0.0142070
908.144	0.0142432
908.222	0.0142059
908.300	0.0142307
908.378	0.0143801
908.456	0.0143162
908.534	0.0142557
908.612	0.0144221
908.691	0.0143118
908.769	0.0143308
908.847	0.0143178
908.925	0.0143147
909.003	0.0143159
909.081	0.0142439
909.159	0.0142068
909.237	0.0142837
909.316	0.0142607
909.394	0.0141288
909.472	0.0143288
909.550	0.0142948
909.628	0.0143051
909.706	0.0143341
909.784	0.0142307
909.862	0.0143115
909.941	0.0143135
910.019	0.0143215
910.097	0.0142719
910.175	0.0143206
910.253	0.0142966
910.331	0.0142139
910.409	0.0143077
910.487	0.0142276
910.566	0.0142486
910.644	0.0141019
910.722	0.0142743
910.800	0.0142504
910.878	0.0142193
910.956	0.0142020
911.034	0.0142252
911.112	0.0141417
911.191	0.0143114
911.269	0.0140973
911.347	0.0143858
911.425	0.0142524
911.503	0.0143666
911.581	0.0143148
911.659	0.0143188
911.737	0.0144079
911.816	0.0143486
911.894	0.0143410
911.972	0.0141652
912.050	0.0142974
912.128	0.0142886
912.206	0.0141664
912.284	0.0142262
912.362	0.0143498
912.441	0.0142915
912.519	0.0142364
912.597	0.0142108
912.675	0.0140932
912.753	0.0142099
912.831	0.0143552
912.909	0.0143433
912.987	0.0141758
913.066	0.0141245
913.144	0.0142822
913.222	0.0142556
913.300	0.0143066
913.378	0.0142424
913.456	0.0141065
913.534	0.0141887
913.612	0.0141073
913.691	0.0142088
913.769	0.0142133
913.847	0.0141723
913.925	0.0140892
914.003	0.0142865
914.081	0.0143623
914.159	0.0142037
914.237	0.0141481
914.316	0.0141972
914.394	0.0142717
914.472	0.0141214
914.550	0.0142807
914.628	0.0141949
914.706	0.0141702
914.784	0.0143127
914.862	0.0141876
914.941	0.0142416
915.019	0.0141838
915.097	0.0142734
915.175	0.0142345
915.253	0.0143184
915.331	0.0143326
915.409	0.0143036
915.487	0.0143646
915.566	0.0142773
915.644	0.0141620
915.722	0.0142651
915.800	0.0143155
915.878	0.0142782
915.956	0.0143230
916.034	0.0143013
916.112	0.0141903
916.191	0.0141531
916.269	0.0143543
916.347	0.0142790
916.425	0.0142069
916.503	0.0142720
916.581	0.0141875
916.659	0.0141766
916.737	0.0142937
916.816	0.0141746
916.894	0.0142628
916.972	0.0140878
917.050	0.0141424
917.128	0.0141882
917.206	0.0141571
917.284	0.0142690
917.362	0.0142040
917.441	0.0143843
917.519	0.0141780
917.597	0.0141505
917.675	0.0141198
917.753	0.0142912
917.831	0.0142815
917.909	0.0142770
917.987	0.0142240
918.066	0.0143232
918.144	0.0143604
918.222	0.0142776
918.300	0.0142999
918.378	0.0142065
918.456	0.0142245
918.534	0.0142659
918.612	0.0143191
918.691	0.0141428
918.769	0.0141444
918.847	0.0141222
918.925	0.0142678
919.003	0.0142843
919.081	0.0142949
919.159	0.0141819
919.237	0.0142761
919.316	0.0142305
919.394	0.0140622
919.472	0.0141536
919.550	0.0142915
919.628	0.0142085
919.706	0.0141696
919.784	0.0142382
919.862	0.0142358
919.941	0.0142294
920.019	0.0142576
920.097	0.0143658
920.175	0.0141600
920.253	0.0142767
920.331	0.0143356
920.409	0.0142117
920.487	0.0142133
920.566	0.0142312
920.644	0.0142384
920.722	0.0142156
920.800	0.0143372
920.878	0.0144022
920.956	0.0142249
921.034	0.0143564
921.112	0.0143520
921.191	0.0141899
921.269	0.0142705
921.347	0.0142221
921.425	0.0142447
921.503	0.0142464
921.581	0.0142014
921.659	0.0141965
921.737	0.0141125
921.816	0.0142162
921.894	0.0142762
921.972	0.0142283
922.050	0.0141660
922.128	0.0142725
922.206	0.0142867
922.284	0.0142595
922.362	0.0142510
922.441	0.0143301
922.519	0.0143159
922.597	0.0143031
922.675	0.0141816
922.753	0.0141879
922.831	0.0142570
922.909	0.0140572
922.987	0.0141525
923.066	0.0141977
923.144	0.0142084
923.222	0.0141940
923.300	0.0141172
923.378	0.0141801
923.456	0.0142994
923.534	0.0142357
923.612	0.0142068
923.691	0.0142389
923.769	0.0141583
923.847	0.0142564
923.925	0.0143079
924.003	0.0143623
924.081	0.0141197
924.159	0.0141311
924.237	0.0140656
924.316	0.0142561
924.394	0.0142762
924.472	0.0142186
924.550	0.0140886
924.628	0.0142339
924.706	0.0141595
924.784	0.0143067
924.862	0.0142624
924.941	0.0142873
925.019	0.0141181
925.097	0.0141618
925.175	0.0141963
925.253	0.0142719
925.331	0.0143282
925.409	0.0141638
925.487	0.0142487
925.566	0.0141870
925.644	0.0142873
925.722	0.0141971
925.800	0.0142284
925.878	0.0142400
925.956	0.0143053
926.034	0.0140646
926.112	0.0141129
926.191	0.0141576
926.269	0.0140959
926.347	0.0143467
926.425	0.0142390
926.503	0.0142511
926.581	0.0141370
926.659	0.0142400
926.737	0.0141069
926.816	0.0142541
926.894	0.0141096
926.972	0.0142212
927.050	0.0140903
927.128	0.0140894
927.206	0.0141359
927.284	0.0141321
927.362	0.0142568
927.441	0.0141068
927.519	0.0141211
927.597	0.0142239
927.675	0.0142065
927.753	0.0142102
927.831	0.0142315
927.909	0.0142107
927.987	0.0142422
928.066	0.0142553
928.144	0.0143112
928.222	0.0142199
928.300	0.0142292
928.378	0.0142189
928.456	0.0140858
928.534	0.0142364
928.612	0.0141335
928.691	0.0141891
928.769	0.0143007
928.847	0.0142031
928.925	0.0141593
929.003	0.0141482
929.081	0.0142209
929.159	0.0143075
929.237	0.0142223
929.316	0.0142401
929.394	0.0142002
929.472	0.0142434
929.550	0.0142237
929.628	0.0142252
929.706	0.0142822
929.784	0.0141641
929.862	0.0142825
929.941	0.0142374
930.019	0.0142413
930.097	0.0142006
930.175	0.0143631
930.253	0.0142237
930.331	0.0142479
930.409	0.0142109
930.487	0.0142744
930.566	0.0143143
930.644	0.0142121
930.722	0.0143822
930.800	0.0143286
930.878	0.0141348
930.956	0.0143084
931.034	0.0142910
931.112	0.0142564
931.191	0.0144001
931.269	0.0142179
931.347	0.0142086
931.425	0.0141718
931.503	0.0143117
931.581	0.0143501
931.659	0.0142905
931.737	0.0143468
931.816	0.0143179
931.894	0.0141135
931.972	0.0143761
932.050	0.0142732
932.128	0.0144049
932.206	0.0142749
932.284	0.0141787
932.362	0.0143465
932.441	0.0142759
932.519	0.0142313
932.597	0.0143201
932.675	0.0142032
932.753	0.0142954
932.831	0.0142609
932.909	0.0143443
932.987	0.0142744
933.066	0.0141009
933.144	0.0141943
933.222	0.0142880
933.300	0.0143288
933.378	0.0142585
933.456	0.0143390
933.534	0.0142510
933.612	0.0143282
933.691	0.0142149
933.769	0.0142529
933.847	0.0142085
933.925	0.0143674
934.003	0.0143153
934.081	0.0142769
934.159	0.0141270
934.237	0.0142467
934.316	0.0142590
934.394	0.0141837
934.472	0.0143389
934.550	0.0143389
934.628	0.0143175
934.706	0.0141904
934.784	0.0141414
934.862	0.0141908
934.941	0.0143592
935.019	0.0142876
935.097	0.0143365
935.175	0.0142168
935.253	0.0142371
935.331	0.0142454
935.409	0.0142906
935.487	0.0142595
935.566	0.0141750
935.644	0.0142399
935.722	0.0141778
935.800	0.0142044
935.878	0.0141491
935.956	0.0141232
936.034	0.0141775
936.112	0.0142773
936.191	0.0142473
936.269	0.0141991
936.347	0.0143075
936.425	0.0142789
936.503	0.0143011
936.581	0.0142382
936.659	0.0141721
936.737	0.0142356
936.816	0.0141199
936.894	0.0142070
936.972	0.0141586
937.050	0.0141747
937.128	0.0141211
937.206	0.0141642
937.284	0.0143347
937.362	0.0141246
937.441	0.0141803
937.519	0.0141589
937.597	0.0141154
937.675	0.0141858
937.753	0.0142099
937.831	0.0140946
937.909	0.0142358
937.987	0.0141078
938.066	0.0141999
938.144	0.0141826
938.222	0.0141506
938.300	0.0142749
938.378	0.0141741
938.456	0.0141660
938.534	0.0142771
938.612	0.0142719
938.691	0.0141877
938.769	0.0142301
938.847	0.0142221
938.925	0.0141460
939.003	0.0141768
939.081	0.0143138
939.159	0.0142991
939.237	0.0143288
939.316	0.0142635
939.394	0.0141946
939.472	0.0141737
939.550	0.0142168
939.628	0.0142584
939.706	0.0143335
939.784	0.0142570
939.862	0.0141383
939.941	0.0141663
940.019	0.0141406
940.097	0.0142457
940.175	0.0143735
940.253	0.0142655
940.331	0.0141454
940.409	0.0142295
940.487	0.0143384
940.566	0.0142500
940.644	0.0141710
940.722	0.0141618
940.800	0.0142033
940.878	0.0142252
940.956	0.0143227
941.034	0.0142541
941.112	0.0142297
941.191	0.0141766
941.269	0.0142228
941.347	0.0142665
941.425	0.0142226
941.503	0.0140739
941.581	0.0143680
941.659	0.0141360
941.737	0.0141190
941.816	0.0142532
941.894	0.0141672
941.972	0.0141281
942.050	0.0142259
942.128	0.0141242
942.206	0.0140605
942.284	0.0142307
942.362	0.0142585
942.441	0.0141711
942.519	0.0143272
942.597	0.0142563
942.675	0.0142714
942.753	0.0143247
942.831	0.0142953
942.909	0.0141985
942.987	0.0141766
943.066	0.0142325
943.144	0.0142231
943.222	0.0142075
943.300	0.0142668
943.378	0.0143384
943.456	0.0142601
943.534	0.0141505
943.612	0.0141988
943.691	0.0142947
943.769	0.0141572
943.847	0.0142652
943.925	0.0142180
944.003	0.0141520
944.081	0.0142909
944.159	0.0142920
944.237	0.0141387
944.316	0.0141923
944.394	0.0142750
944.472	0.0143090
944.550	0.0143179
944.628	0.0143084
944.706	0.0143031
944.784	0.0143176
944.862	0.0144360
944.941	0.0141885
945.019	0.0142802
945.097	0.0142488
945.175	0.0141684
945.253	0.0142962
945.331	0.0142258
945.409	0.0142283
945.487	0.0142446
945.566	0.0143742
945.644	0.0141595
945.722	0.0142243
945.800	0.0142599
945.878	0.0143798
945.956	0.0141814
946.034	0.0141941
946.112	0.0142714
946.191	0.0141154
946.269	0.0142299
946.347	0.0142415
946.425	0.0143116
946.503	0.0142516
946.581	0.0142542
946.659	0.0142245
946.737	0.0140607
946.816	0.0143394
946.894	0.0142660
946.972	0.0141258
947.050	0.0141501
947.128	0.0141853
947.206	0.0141647
947.284	0.0142812
947.362	0.0141119
947.441	0.0142843
947.519	0.0142612
947.597	0.0141938
947.675	0.0141273
947.753	0.0140974
947.831	0.0141850
947.909	0.0140880
947.987	0.0141496
948.066	0.0141887
948.144	0.0141120
948.222	0.0141113
948.300	0.0142428
948.378	0.0142644
948.456	0.0142773
948.534	0.0141823
948.612	0.0141565
948.691	0.0141779
948.769	0.0142269
948.847	0.0142421
948.925	0.0141164
949.003	0.0141466
949.081	0.0141649
949.159	0.0141028
949.237	0.0141354
949.316	0.0141739
949.394	0.0139789
949.472	0.0142306
949.550	0.0143107
949.628	0.0142691
949.706	0.0141368
949.784	0.0142880
949.862	0.0142043
949.941	0.0141853
950.019	0.0141736
950.097	0.0141636
950.175	0.0142117
950.253	0.0144022
950.331	0.0143777
950.409	0.0141695
950.487	0.0141577
950.566	0.0142159
950.644	0.0142884
950.722	0.0141837
950.800	0.0141998
950.878	0.0141661
950.956	0.0143500
951.034	0.0142278
951.112	0.0143058
951.191	0.0142761
951.269	0.0143118
951.347	0.0141558
951.425	0.0141316
951.503	0.0142047
951.581	0.0141672
951.659	0.0142986
951.737	0.0143418
951.816	0.0141349
951.894	0.0141531
951.972	0.0143116
952.050	0.0143477
952.128	0.0142329
952.206	0.0143271
952.284	0.0143173
952.362	0.0141996
952.441	0.0142524
952.519	0.0142747
952.597	0.0141245
952.675	0.0142248
952.753	0.0142854
952.831	0.0142300
952.909	0.0143596
952.987	0.0142416
953.066	0.0142824
953.144	0.0143486
953.222	0.0141196
953.300	0.0142706
953.378	0.0141014
953.456	0.0143497
953.534	0.0142990
953.612	0.0142416
953.691	0.0141366
953.769	0.0141662
953.847	0.0143407
953.925	0.0142006
954.003	0.0141814
954.081	0.0143106
954.159	0.0141403
954.237	0.0143488
954.316	0.0142497
954.394	0.0141640
954.472	0.0142740
954.550	0.0141521
954.628	0.0142862
954.706	0.0143320
954.784	0.0142239
954.862	0.0142290
954.941	0.0141231
955.019	0.0142938
955.097	0.0142937
955.175	0.0142075
955.253	0.0142650
955.331	0.0142245
955.409	0.0141637
955.487	0.0143373
955.566	0.0140853
955.644	0.0142281
955.722	0.0141924
955.800	0.0141544
955.878	0.0141479
955.956	0.0143008
956.034	0.0144246
956.112	0.0141885
956.191	0.0141609
956.269	0.0141564
956.347	0.0142406
956.425	0.0143092
956.503	0.0142687
956.581	0.0142447
956.659	0.0142182
956.737	0.0142589
956.816	0.0141656
956.894	0.0143373
956.972	0.0141675
957.050	0.0142423
957.128	0.0142863
957.206	0.0141639
957.284	0.0141537
957.362	0.0142181
957.441	0.0142217
957.519	0.0142680
957.597	0.0142233
957.675	0.0142107
957.753	0.0141047
957.831	0.0142850
957.909	0.0143198
957.987	0.0142101
958.066	0.0142503
958.144	0.0142892
958.222	0.0142628
958.300	0.0143092
958.378	0.0143063
958.456	0.0143233
958.534	0.0142326
958.612	0.0143565
958.691	0.0142570
958.769	0.0141965
958.847	0.0142803
958.925	0.0142924
959.003	0.0143191
959.081	0.0143526
959.159	0.0142873
959.237	0.0142737
959.316	0.0141943
959.394	0.0143051
959.472	0.0142467
959.550	0.0143159
959.628	0.0140887
959.706	0.0142181
959.784	0.0143312
959.862	0.0142590
959.941	0.0142256
960.019	0.0143948
960.097	0.0141232
960.175	0.0142495
960.253	0.0142973
960.331	0.0142426
960.409	0.0142846
960.487	0.0142854
960.566	0.0142311
960.644	0.0143261
960.722	0.0141763
960.800	0.0141816
960.878	0.0142838
960.956	0.0142034
961.034	0.0142657
961.112	0.0141917
961.191	0.0142842
961.269	0.0142088
961.347	0.0143334
961.425	0.0143391
961.503	0.0141912
961.581	0.0142239
961.659	0.0142274
961.737	0.0142744
961.816	0.0141631
961.894	0.0143848
961.972	0.0142097
962.050	0.0142476
962.128	0.0142939
962.206	0.0143118
962.284	0.0142269
962.362	0.0141611
962.441	0.0142852
962.519	0.0142394
962.597	0.0143000
962.675	0.0141838
962.753	0.0142361
962.831	0.0143391
962.909	0.0142666
962.987	0.0141940
963.066	0.0142198
963.144	0.0144527
963.222	0.0143890
963.300	0.0142541
963.378	0.0141357
963.456	0.0141985
963.534	0.0141666
963.612	0.0142548
963.691	0.0142304
963.769	0.0143141
963.847	0.0143018
963.925	0.0142082
964.003	0.0142122
964.081	0.0141704
964.159	0.0141328
964.237	0.0142073
964.316	0.0141913
964.394	0.0141725
964.472	0.0143147
964.550	0.0142002
964.628	0.0141860
964.706	0.0142628
964.784	0.0143309
964.862	0.0141739
964.941	0.0142604
965.019	0.0141426
965.097	0.0143214
965.175	0.0143498
965.253	0.0142674
965.331	0.0142280
965.409	0.0141288
965.487	0.0142617
965.566	0.0142376
965.644	0.0142152
965.722	0.0142128
965.800	0.0142825
965.878	0.0143563
965.956	0.0142262
966.034	0.0143130
966.112	0.0142378
966.191	0.0141805
966.269	0.0141940
966.347	0.0142250
966.425	0.0141457
966.503	0.0141048
966.581	0.0141689
966.659	0.0141802
966.737	0.0141751
966.816	0.0142216
966.894	0.0141798
966.972	0.0142130
967.050	0.0143606
967.128	0.0141775
967.206	0.0142647
967.284	0.0142618
967.362	0.0141628
967.441	0.0142823
967.519	0.0142120
967.597	0.0141897
967.675	0.0143047
967.753	0.0143061
967.831	0.0143558
967.909	0.0143138
967.987	0.0141904
968.066	0.0142905
968.144	0.0144058
968.222	0.0142437
968.300	0.0141812
968.378	0.0142517
968.456	0.0143064
968.534	0.0143050
968.612	0.0142892
968.691	0.0142030
968.769	0.0141109
968.847	0.0142057
968.925	0.0143077
969.003	0.0142824
969.081	0.0143057
969.159	0.0144020
969.237	0.0143310
969.316	0.0142062
969.394	0.0141163
969.472	0.0144332
969.550	0.0142794
969.628	0.0142459
969.706	0.0142975
969.784	0.0143528
969.862	0.0141110
969.941	0.0142566
970.019	0.0143189
970.097	0.0142709
970.175	0.0142899
970.253	0.0141917
970.331	0.0141917
970.409	0.0140934
970.487	0.0142805
970.566	0.0143464
970.644	0.0142850
970.722	0.0141270
970.800	0.0142574
970.878	0.0140894
970.956	0.0141480
971.034	0.0142825
971.112	0.0143308
971.191	0.0141574
971.269	0.0141301
971.347	0.0140812
971.425	0.0141096
971.503	0.0143012
971.581	0.0141487
971.659	0.0140797
971.737	0.0141769
971.816	0.0142718
971.894	0.0142001
971.972	0.0141891
972.050	0.0141424
972.128	0.0142798
972.206	0.0141760
972.284	0.0143343
972.362	0.0140067
972.441	0.0141609
972.519	0.0141969
972.597	0.0141816
972.675	0.0141945
972.753	0.0140999
972.831	0.0142693
972.909	0.0142174
972.987	0.0141674
973.066	0.0142400
973.144	0.0141730
973.222	0.0142020
973.300	0.0142101
973.378	0.0143658
973.456	0.0142693
973.534	0.0143227
973.612	0.0142049
973.691	0.0143509
973.769	0.0141849
973.847	0.0142812
973.925	0.0142493
974.003	0.0143440
974.081	0.0143092
974.159	0.0142532
974.237	0.0141722
974.316	0.0142188
974.394	0.0143428
974.472	0.0144123
974.550	0.0142760
974.628	0.0142401
974.706	0.0143282
974.784	0.0142399
974.862	0.0142245
974.941	0.0142420
975.019	0.0142993
975.097	0.0143588
975.175	0.0143911
975.253	0.0143481
975.331	0.0142348
975.409	0.0143381
975.487	0.0142345
975.566	0.0142018
975.644	0.0143453
975.722	0.0142611
975.800	0.0142568
975.878	0.0143611
975.956	0.0141950
976.034	0.0142813
976.112	0.0141833
976.191	0.0141822
976.269	0.0142373
976.347	0.0143384
976.425	0.0143198
976.503	0.0142481
976.581	0.0141332
976.659	0.0142357
976.737	0.0143034
976.816	0.0141605
976.894	0.0143303
976.972	0.0143958
977.050	0.0143301
977.128	0.0142301
977.206	0.0142175
977.284	0.0142368
977.362	0.0142799
977.441	0.0142871
977.519	0.0143102
977.597	0.0142894
977.675	0.0142112
977.753	0.0142618
977.831	0.0142879
977.909	0.0142478
977.987	0.0142773
978.066	0.0143385
978.144	0.0142420
978.222	0.0141948
978.300	0.0143042
978.378	0.0143592
978.456	0.0143415
978.534	0.0143639
978.612	0.0141486
978.691	0.0141958
978.769	0.0141839
978.847	0.0141925
978.925	0.0143408
979.003	0.0143699
979.081	0.0142175
979.159	0.0143456
979.237	0.0144357
979.316	0.0142921
979.394	0.0142677
979.472	0.0143514
979.550	0.0142786
979.628	0.0143436
979.706	0.0143189
979.784	0.0143045
979.862	0.0142496
979.941	0.0144618
980.019	0.0143629
980.097	0.0143231
980.175	0.0143677
980.253	0.0143108
980.331	0.0142223
980.409	0.0143776
980.487	0.0142577
980.566	0.0143608
980.644	0.0143496
980.722	0.0143443
980.800	0.0142796
980.878	0.0142137
980.956	0.0142097
981.034	0.0142342
981.112	0.0142701
981.191	0.0143516
981.269	0.0143559
981.347	0.0142490
981.425	0.0142944
981.503	0.0142989
981.581	0.0141711
981.659	0.0143278
981.737	0.0144070
981.816	0.0143970
981.894	0.0141970
981.972	0.0142304
982.050	0.0143309
982.128	0.0142101
982.206	0.0141713
982.284	0.0142994
982.362	0.0143516
982.441	0.0142213
982.519	0.0142894
982.597	0.0142694
982.675	0.0142505
982.753	0.0142054
982.831	0.0142438
982.909	0.0142963
982.987	0.0141942
983.066	0.0140733
983.144	0.0141078
983.222	0.0142056
983.300	0.0140584
983.378	0.0141843
983.456	0.0141574
983.534	0.0140446
983.612	0.0141045
983.691	0.0142140
983.769	0.0143645
983.847	0.0142732
983.925	0.0142647
984.003	0.0142094
984.081	0.0141633
984.159	0.0142012
984.237	0.0141982
984.316	0.0142474
984.394	0.0142590
984.472	0.0141419
984.550	0.0142867
984.628	0.0143159
984.706	0.0142495
984.784	0.0142607
984.862	0.0142400
984.941	0.0142905
985.019	0.0142452
985.097	0.0142192
985.175	0.0143562
985.253	0.0141560
985.331	0.0142758
985.409	0.0143102
985.487	0.0142699
985.566	0.0143208
985.644	0.0142500
985.722	0.0141447
985.800	0.0142879
985.878	0.0142414
985.956	0.0141970
986.034	0.0143665
986.112	0.0143040
986.191	0.0141478
986.269	0.0141991
986.347	0.0142741
986.425	0.0143177
986.503	0.0143985
986.581	0.0143282
986.659	0.0143656
986.737	0.0141718
986.816	0.0142285
986.894	0.0143348
986.972	0.0142621
987.050	0.0143365
987.128	0.0144354
987.206	0.0143314
987.284	0.0142695
987.362	0.0142792
987.441	0.0142711
987.519	0.0143286
987.597	0.0143696
987.675	0.0143448
987.753	0.0140922
987.831	0.0142606
987.909	0.0143210
987.987	0.0142845
988.066	0.0143221
988.144	0.0143326
988.222	0.0143071
988.300	0.0143230
988.378	0.0142231
988.456	0.0143565
988.534	0.0143056
988.612	0.0143555
988.691	0.0142561
988.769	0.0142906
988.847	0.0142520
988.925	0.0142036
989.003	0.0142792
989.081	0.0142489
989.159	0.0142116
989.237	0.0142290
989.316	0.0142941
989.394	0.0141773
989.472	0.0140820
989.550	0.0142285
989.628	0.0143494
989.706	0.0144194
989.784	0.0142851
989.862	0.0143193
989.941	0.0142467
990.019	0.0144009
990.097	0.0141937
990.175	0.0142439
990.253	0.0143069
990.331	0.0142439
990.409	0.0141415
990.487	0.0141818
990.566	0.0141365
990.644	0.0143526
990.722	0.0142830
990.800	0.0141997
990.878	0.0140504
990.956	0.0141840
991.034	0.0142458
991.112	0.0142562
991.191	0.0142722
991.269	0.0142609
991.347	0.0141988
991.425	0.0142127
991.503	0.0143141
991.581	0.0143907
991.659	0.0142036
991.737	0.0141423
991.816	0.0142117
991.894	0.0142707
991.972	0.0142702
992.050	0.0142139
992.128	0.0141432
992.206	0.0142861
992.284	0.0141980
992.362	0.0141476
992.441	0.0141497
992.519	0.0142076
992.597	0.0142192
992.675	0.0141938
992.753	0.0141920
992.831	0.0141524
992.909	0.0142302
992.987	0.0141743
993.066	0.0141399
993.144	0.0141548
993.222	0.0141940
993.300	0.0141683
993.378	0.0142693
993.456	0.0142095
993.534	0.0142618
993.612	0.0142147
993.691	0.0142107
993.769	0.0142480
993.847	0.0142393
993.925	0.0142996
994.003	0.0142650
994.081	0.0141657
994.159	0.0142084
994.237	0.0142303
994.316	0.0141428
994.394	0.0143233
994.472	0.0142533
994.550	0.0143445
994.628	0.0142126
994.706	0.0141634
994.784	0.0142369
994.862	0.0140995
994.941	0.0140545
995.019	0.0140580
995.097	0.0143026
995.175	0.0142445
995.253	0.0142935
995.331	0.0142718
995.409	0.0141475
995.487	0.0140692
995.566	0.0142730
995.644	0.0141862
995.722	0.0142186
995.800	0.0141984
995.878	0.0143005
995.956	0.0143640
996.034	0.0142090
996.112	0.0142564
996.191	0.0142857
996.269	0.0143540
996.347	0.0142651
996.425	0.0142001
996.503	0.0142452
996.581	0.0142745
996.659	0.0142741
996.737	0.0142796
996.816	0.0142357
996.894	0.0141866
996.972	0.0143378
997.050	0.0142443
997.128	0.0142591
997.206	0.0143996
997.284	0.0142696
997.362	0.0143900
997.441	0.0142779
997.519	0.0142883
997.597	0.0141962
997.675	0.0142396
997.753	0.0142418
997.831	0.0144317
997.909	0.0141994
997.987	0.0143533
998.066	0.0142617
998.144	0.0143082
998.222	0.0144229
998.300	0.0141766
998.378	0.0141715
998.456	0.0143192
998.534	0.0143205
998.612	0.0141957
998.691	0.0143092
998.769	0.0145016
998.847	0.0142842
998.925	0.0142154
