05/04/2022	21:02:17	Ver.	4.1	UNKNOWN
Optical Delay	678.996401	Delta X		0.078125	Sweeps	1	Scan Rate	0/0
Coordinates	Axis 1	NaN	Axis 2	NaN	Axis 3	NaN	Axis 4	NaN	Axis 5	NaN	Axis 6	0.000000
TX Power	0.000000	RX Power	0.000000

678.996	0.0143590
679.075	0.0143143
679.153	0.0143476
679.231	0.0142380
679.309	0.0143233
679.387	0.0142108
679.465	0.0141851
679.543	0.0142428
679.621	0.0144743
679.700	0.0143288
679.778	0.0143968
679.856	0.0142885
679.934	0.0143770
680.012	0.0143497
680.090	0.0141560
680.168	0.0142976
680.246	0.0143566
680.325	0.0143771
680.403	0.0143122
680.481	0.0143700
680.559	0.0143996
680.637	0.0142344
680.715	0.0142387
680.793	0.0144205
680.871	0.0144028
680.950	0.0144051
681.028	0.0144978
681.106	0.0143596
681.184	0.0144522
681.262	0.0142459
681.340	0.0142021
681.418	0.0143623
681.496	0.0143892
681.575	0.0143709
681.653	0.0143922
681.731	0.0143995
681.809	0.0142361
681.887	0.0142883
681.965	0.0144124
682.043	0.0143787
682.121	0.0143159
682.200	0.0142173
682.278	0.0143771
682.356	0.0142706
682.434	0.0144379
682.512	0.0143488
682.590	0.0144197
682.668	0.0143320
682.746	0.0143700
682.825	0.0142362
682.903	0.0143066
682.981	0.0143983
683.059	0.0141676
683.137	0.0142902
683.215	0.0144236
683.293	0.0144481
683.371	0.0143422
683.450	0.0143605
683.528	0.0142529
683.606	0.0143798
683.684	0.0143904
683.762	0.0143411
683.840	0.0142589
683.918	0.0143711
683.996	0.0142947
684.075	0.0143914
684.153	0.0143892
684.231	0.0144618
684.309	0.0143445
684.387	0.0143353
684.465	0.0142866
684.543	0.0143286
684.621	0.0143074
684.700	0.0143217
684.778	0.0144476
684.856	0.0144214
684.934	0.0142030
685.012	0.0142952
685.090	0.0143681
685.168	0.0143372
685.246	0.0143505
685.325	0.0142886
685.403	0.0143334
685.481	0.0143578
685.559	0.0143983
685.637	0.0143407
685.715	0.0142603
685.793	0.0143998
685.871	0.0142656
685.950	0.0143176
686.028	0.0142866
686.106	0.0143356
686.184	0.0143594
686.262	0.0142991
686.340	0.0144260
686.418	0.0142708
686.496	0.0143504
686.575	0.0143964
686.653	0.0141862
686.731	0.0143176
686.809	0.0143687
686.887	0.0143198
686.965	0.0142902
687.043	0.0143576
687.121	0.0142374
687.200	0.0143035
687.278	0.0144583
687.356	0.0143970
687.434	0.0143377
687.512	0.0142374
687.590	0.0142316
687.668	0.0142249
687.746	0.0142760
687.825	0.0143030
687.903	0.0144251
687.981	0.0143741
688.059	0.0142739
688.137	0.0142480
688.215	0.0143136
688.293	0.0143241
688.371	0.0143153
688.450	0.0144106
688.528	0.0142767
688.606	0.0143674
688.684	0.0143207
688.762	0.0143107
688.840	0.0144048
688.918	0.0142498
688.996	0.0142843
689.075	0.0144411
689.153	0.0142899
689.231	0.0142882
689.309	0.0142717
689.387	0.0142677
689.465	0.0142897
689.543	0.0143407
689.621	0.0144660
689.700	0.0142346
689.778	0.0142207
689.856	0.0142431
689.934	0.0143894
690.012	0.0143574
690.090	0.0144139
690.168	0.0143896
690.246	0.0143613
690.325	0.0145154
690.403	0.0142469
690.481	0.0143102
690.559	0.0143139
690.637	0.0142696
690.715	0.0143856
690.793	0.0142822
690.871	0.0142497
690.950	0.0143830
691.028	0.0144279
691.106	0.0143008
691.184	0.0143339
691.262	0.0144425
691.340	0.0144060
691.418	0.0143351
691.496	0.0143917
691.575	0.0143539
691.653	0.0143606
691.731	0.0143462
691.809	0.0142045
691.887	0.0143680
691.965	0.0143671
692.043	0.0144196
692.121	0.0143859
692.200	0.0142815
692.278	0.0142234
692.356	0.0143585
692.434	0.0143523
692.512	0.0143412
692.590	0.0144264
692.668	0.0143497
692.746	0.0143130
692.825	0.0142780
692.903	0.0143148
692.981	0.0142675
693.059	0.0143160
693.137	0.0144347
693.215	0.0142955
693.293	0.0143264
693.371	0.0142508
693.450	0.0143221
693.528	0.0144196
693.606	0.0143265
693.684	0.0143471
693.762	0.0143686
693.840	0.0143890
693.918	0.0142630
693.996	0.0143616
694.075	0.0143703
694.153	0.0142335
694.231	0.0143737
694.309	0.0143270
694.387	0.0143037
694.465	0.0144167
694.543	0.0143179
694.621	0.0144085
694.700	0.0143258
694.778	0.0142355
694.856	0.0142999
694.934	0.0144128
695.012	0.0144640
695.090	0.0144054
695.168	0.0143216
695.246	0.0142405
695.325	0.0143218
695.403	0.0143186
695.481	0.0143510
695.559	0.0143562
695.637	0.0143091
695.715	0.0143584
695.793	0.0144064
695.871	0.0144678
695.950	0.0143004
696.028	0.0144670
696.106	0.0143165
696.184	0.0143359
696.262	0.0142654
696.340	0.0142799
696.418	0.0142915
696.496	0.0143118
696.575	0.0143011
696.653	0.0143870
696.731	0.0143619
696.809	0.0142995
696.887	0.0143821
696.965	0.0143703
697.043	0.0143856
697.121	0.0142302
697.200	0.0143834
697.278	0.0144200
697.356	0.0142056
697.434	0.0142448
697.512	0.0143109
697.590	0.0143726
697.668	0.0142768
697.746	0.0142162
697.825	0.0142399
697.903	0.0142147
697.981	0.0144627
698.059	0.0143291
698.137	0.0143167
698.215	0.0143801
698.293	0.0142639
698.371	0.0142825
698.450	0.0144398
698.528	0.0144046
698.606	0.0142527
698.684	0.0144106
698.762	0.0143659
698.840	0.0142523
698.918	0.0142441
698.996	0.0142807
699.075	0.0143526
699.153	0.0143235
699.231	0.0143498
699.309	0.0143054
699.387	0.0143269
699.465	0.0144441
699.543	0.0143150
699.621	0.0142575
699.700	0.0143729
699.778	0.0143887
699.856	0.0142831
699.934	0.0143999
700.012	0.0143171
700.090	0.0142104
700.168	0.0143008
700.246	0.0145055
700.325	0.0145109
700.403	0.0142805
700.481	0.0143423
700.559	0.0143584
700.637	0.0143151
700.715	0.0141834
700.793	0.0144234
700.871	0.0143728
700.950	0.0142552
701.028	0.0144463
701.106	0.0143225
701.184	0.0144115
701.262	0.0144310
701.340	0.0144751
701.418	0.0142785
701.496	0.0142605
701.575	0.0142643
701.653	0.0144318
701.731	0.0142773
701.809	0.0142734
701.887	0.0144344
701.965	0.0143282
702.043	0.0143905
702.121	0.0144217
702.200	0.0143344
702.278	0.0142380
702.356	0.0144196
702.434	0.0144122
702.512	0.0143826
702.590	0.0143047
702.668	0.0144262
702.746	0.0142639
702.825	0.0143259
702.903	0.0142894
702.981	0.0142160
703.059	0.0143867
703.137	0.0143230
703.215	0.0144151
703.293	0.0142940
703.371	0.0143906
703.450	0.0143838
703.528	0.0143860
703.606	0.0143708
703.684	0.0143371
703.762	0.0142754
703.840	0.0144167
703.918	0.0143226
703.996	0.0143311
704.075	0.0143853
704.153	0.0143181
704.231	0.0143675
704.309	0.0143362
704.387	0.0143889
704.465	0.0144881
704.543	0.0145803
704.621	0.0143837
704.700	0.0143068
704.778	0.0142641
704.856	0.0143717
704.934	0.0144317
705.012	0.0143768
705.090	0.0143653
705.168	0.0143288
705.246	0.0145056
705.325	0.0144624
705.403	0.0144789
705.481	0.0144460
705.559	0.0145309
705.637	0.0143613
705.715	0.0144144
705.793	0.0143785
705.871	0.0141666
705.950	0.0141065
706.028	0.0142275
706.106	0.0141640
706.184	0.0140617
706.262	0.0141017
706.340	0.0141909
706.418	0.0140984
706.496	0.0143188
706.575	0.0143024
706.653	0.0144337
706.731	0.0147343
706.809	0.0147540
706.887	0.0148817
706.965	0.0149256
707.043	0.0148754
707.121	0.0147440
707.200	0.0147221
707.278	0.0144140
707.356	0.0141627
707.434	0.0139644
707.512	0.0138697
707.590	0.0136536
707.668	0.0134965
707.746	0.0132922
707.825	0.0132449
707.903	0.0131863
707.981	0.0133374
708.059	0.0135548
708.137	0.0138851
708.215	0.0141716
708.293	0.0147489
708.371	0.0150976
708.450	0.0154961
708.528	0.0158167
708.606	0.0160850
708.684	0.0162192
708.762	0.0161909
708.840	0.0155892
708.918	0.0152296
708.996	0.0148521
709.075	0.0141708
709.153	0.0137830
709.231	0.0134092
709.309	0.0130437
709.387	0.0127837
709.465	0.0128116
709.543	0.0128363
709.621	0.0128481
709.700	0.0130233
709.778	0.0133105
709.856	0.0139847
709.934	0.0143771
710.012	0.0151811
710.090	0.0157365
710.168	0.0160760
710.246	0.0164503
710.325	0.0166245
710.403	0.0162881
710.481	0.0160434
710.559	0.0156061
710.637	0.0151012
710.715	0.0145356
710.793	0.0139697
710.871	0.0133601
710.950	0.0127071
711.028	0.0125044
711.106	0.0122499
711.184	0.0121384
711.262	0.0121243
711.340	0.0123768
711.418	0.0127012
711.496	0.0132653
711.575	0.0137318
711.653	0.0142216
711.731	0.0146047
711.809	0.0150980
711.887	0.0153127
711.965	0.0154414
712.043	0.0153586
712.121	0.0154469
712.200	0.0154118
712.278	0.0152148
712.356	0.0148223
712.434	0.0146931
712.512	0.0145889
712.590	0.0142416
712.668	0.0141660
712.746	0.0139939
712.825	0.0142031
712.903	0.0141493
712.981	0.0142889
713.059	0.0144242
713.137	0.0146387
713.215	0.0148447
713.293	0.0149428
713.371	0.0147682
713.450	0.0148202
713.528	0.0145325
713.606	0.0141859
713.684	0.0137801
713.762	0.0135080
713.840	0.0131551
713.918	0.0130530
713.996	0.0129126
714.075	0.0128168
714.153	0.0128634
714.231	0.0130969
714.309	0.0135355
714.387	0.0140557
714.465	0.0146162
714.543	0.0152322
714.621	0.0158861
714.700	0.0166274
714.778	0.0168201
714.856	0.0170367
714.934	0.0172293
715.012	0.0170299
715.090	0.0167337
715.168	0.0161504
715.246	0.0158701
715.325	0.0151236
715.403	0.0144177
715.481	0.0136577
715.559	0.0130886
715.637	0.0123611
715.715	0.0117651
715.793	0.0112608
715.871	0.0111224
715.950	0.0111753
716.028	0.0114890
716.106	0.0118678
716.184	0.0125777
716.262	0.0131747
716.340	0.0140696
716.418	0.0147592
716.496	0.0156723
716.575	0.0164816
716.653	0.0169040
716.731	0.0173928
716.809	0.0176358
716.887	0.0175922
716.965	0.0173063
717.043	0.0167383
717.121	0.0161190
717.200	0.0153152
717.278	0.0146500
717.356	0.0136802
717.434	0.0129484
717.512	0.0123894
717.590	0.0117919
717.668	0.0113937
717.746	0.0111259
717.825	0.0110714
717.903	0.0112177
717.981	0.0115521
718.059	0.0121722
718.137	0.0127734
718.215	0.0135835
718.293	0.0144871
718.371	0.0152794
718.450	0.0159181
718.528	0.0165794
718.606	0.0170471
718.684	0.0173322
718.762	0.0172581
718.840	0.0173493
718.918	0.0173686
718.996	0.0169825
719.075	0.0165174
719.153	0.0159229
719.231	0.0150685
719.309	0.0145096
719.387	0.0137423
719.465	0.0130202
719.543	0.0122575
719.621	0.0120093
719.700	0.0116460
719.778	0.0115907
719.856	0.0116998
719.934	0.0119884
720.012	0.0121420
720.090	0.0126107
720.168	0.0131020
720.246	0.0134982
720.325	0.0140739
720.403	0.0146969
720.481	0.0152110
720.559	0.0157612
720.637	0.0160867
720.715	0.0164024
720.793	0.0165295
720.871	0.0166441
720.950	0.0163904
721.028	0.0161049
721.106	0.0159004
721.184	0.0155704
721.262	0.0149577
721.340	0.0143900
721.418	0.0142419
721.496	0.0137029
721.575	0.0133372
721.653	0.0130942
721.731	0.0129675
721.809	0.0127479
721.887	0.0128236
721.965	0.0127526
722.043	0.0130077
722.121	0.0131186
722.200	0.0133503
722.278	0.0134663
722.356	0.0137806
722.434	0.0142298
722.512	0.0145599
722.590	0.0146676
722.668	0.0149180
722.746	0.0151188
722.825	0.0151916
722.903	0.0151327
722.981	0.0151656
723.059	0.0152061
723.137	0.0151305
723.215	0.0148238
723.293	0.0147746
723.371	0.0146873
723.450	0.0146368
723.528	0.0147895
723.606	0.0143514
723.684	0.0143218
723.762	0.0141232
723.840	0.0139516
723.918	0.0140163
723.996	0.0138981
724.075	0.0136153
724.153	0.0136021
724.231	0.0137328
724.309	0.0136908
724.387	0.0137743
724.465	0.0138910
724.543	0.0139908
724.621	0.0141996
724.700	0.0143997
724.778	0.0145358
724.856	0.0146707
724.934	0.0149619
725.012	0.0150317
725.090	0.0150407
725.168	0.0150626
725.246	0.0150191
725.325	0.0149153
725.403	0.0144304
725.481	0.0144239
725.559	0.0141496
725.637	0.0138162
725.715	0.0136125
725.793	0.0135233
725.871	0.0135191
725.950	0.0135761
726.028	0.0137872
726.106	0.0139455
726.184	0.0143805
726.262	0.0146632
726.340	0.0147522
726.418	0.0149606
726.496	0.0152248
726.575	0.0152491
726.653	0.0151874
726.731	0.0152330
726.809	0.0150900
726.887	0.0148660
726.965	0.0148550
727.043	0.0147942
727.121	0.0145421
727.200	0.0141966
727.278	0.0142550
727.356	0.0139559
727.434	0.0138650
727.512	0.0138425
727.590	0.0137458
727.668	0.0136063
727.746	0.0136617
727.825	0.0133581
727.903	0.0133178
727.981	0.0133752
728.059	0.0134826
728.137	0.0134091
728.215	0.0135919
728.293	0.0136759
728.371	0.0141525
728.450	0.0142398
728.528	0.0145013
728.606	0.0148776
728.684	0.0152396
728.762	0.0153537
728.840	0.0156689
728.918	0.0159291
728.996	0.0161082
729.075	0.0159141
729.153	0.0158690
729.231	0.0157191
729.309	0.0155027
729.387	0.0150843
729.465	0.0146595
729.543	0.0141041
729.621	0.0137445
729.700	0.0133051
729.778	0.0128860
729.856	0.0126409
729.934	0.0124814
730.012	0.0123633
730.090	0.0122577
730.168	0.0123386
730.246	0.0127853
730.325	0.0131626
730.403	0.0133681
730.481	0.0137428
730.559	0.0142714
730.637	0.0146714
730.715	0.0150112
730.793	0.0152605
730.871	0.0153513
730.950	0.0155700
731.028	0.0156846
731.106	0.0157488
731.184	0.0158418
731.262	0.0157444
731.340	0.0155244
731.418	0.0152467
731.496	0.0150449
731.575	0.0149163
731.653	0.0148156
731.731	0.0144932
731.809	0.0141956
731.887	0.0140196
731.965	0.0137899
732.043	0.0136203
732.121	0.0136546
732.200	0.0132578
732.278	0.0131495
732.356	0.0130621
732.434	0.0129581
732.512	0.0129428
732.590	0.0129930
732.668	0.0130966
732.746	0.0133122
732.825	0.0134269
732.903	0.0139505
732.981	0.0142922
733.059	0.0147722
733.137	0.0152608
733.215	0.0156628
733.293	0.0159967
733.371	0.0164964
733.450	0.0166243
733.528	0.0165977
733.606	0.0165482
733.684	0.0166223
733.762	0.0164332
733.840	0.0159058
733.918	0.0153391
733.996	0.0150056
734.075	0.0143394
734.153	0.0139489
734.231	0.0132822
734.309	0.0129832
734.387	0.0125636
734.465	0.0122049
734.543	0.0121107
734.621	0.0120306
734.700	0.0122294
734.778	0.0124931
734.856	0.0127133
734.934	0.0130299
735.012	0.0137637
735.090	0.0140426
735.168	0.0142639
735.246	0.0148443
735.325	0.0152303
735.403	0.0154395
735.481	0.0155806
735.559	0.0159002
735.637	0.0160355
735.715	0.0161037
735.793	0.0159914
735.871	0.0158580
735.950	0.0159380
736.028	0.0156271
736.106	0.0153006
736.184	0.0150966
736.262	0.0146892
736.340	0.0143607
736.418	0.0141499
736.496	0.0138579
736.575	0.0135887
736.653	0.0132284
736.731	0.0130120
736.809	0.0127205
736.887	0.0126292
736.965	0.0125635
737.043	0.0129472
737.121	0.0130081
737.200	0.0131262
737.278	0.0135180
737.356	0.0137419
737.434	0.0142412
737.512	0.0147546
737.590	0.0150351
737.668	0.0152936
737.746	0.0156258
737.825	0.0157807
737.903	0.0157380
737.981	0.0159153
738.059	0.0159071
738.137	0.0156475
738.215	0.0156017
738.293	0.0153427
738.371	0.0149753
738.450	0.0146250
738.528	0.0144170
738.606	0.0140947
738.684	0.0139142
738.762	0.0135539
738.840	0.0134344
738.918	0.0132706
738.996	0.0131639
739.075	0.0133392
739.153	0.0134061
739.231	0.0134347
739.309	0.0136310
739.387	0.0137282
739.465	0.0139413
739.543	0.0139387
739.621	0.0140070
739.700	0.0142306
739.778	0.0143726
739.856	0.0144118
739.934	0.0145634
740.012	0.0146645
740.090	0.0146205
740.168	0.0147383
740.246	0.0148641
740.325	0.0147401
740.403	0.0147267
740.481	0.0148348
740.559	0.0150067
740.637	0.0149532
740.715	0.0150356
740.793	0.0151386
740.871	0.0149421
740.950	0.0148634
741.028	0.0148914
741.106	0.0148092
741.184	0.0146412
741.262	0.0145913
741.340	0.0144796
741.418	0.0142455
741.496	0.0140746
741.575	0.0137074
741.653	0.0135851
741.731	0.0133694
741.809	0.0132198
741.887	0.0129882
741.965	0.0133051
742.043	0.0133926
742.121	0.0133295
742.200	0.0134878
742.278	0.0136016
742.356	0.0138882
742.434	0.0140657
742.512	0.0144863
742.590	0.0146221
742.668	0.0150049
742.746	0.0152793
742.825	0.0154898
742.903	0.0155280
742.981	0.0155293
743.059	0.0156646
743.137	0.0154832
743.215	0.0153852
743.293	0.0152254
743.371	0.0149397
743.450	0.0147230
743.528	0.0144863
743.606	0.0143151
743.684	0.0139499
743.762	0.0137728
743.840	0.0134985
743.918	0.0134274
743.996	0.0131828
744.075	0.0131100
744.153	0.0132410
744.231	0.0131458
744.309	0.0132209
744.387	0.0131314
744.465	0.0133943
744.543	0.0136351
744.621	0.0137950
744.700	0.0140295
744.778	0.0142324
744.856	0.0145087
744.934	0.0146664
745.012	0.0148462
745.090	0.0150670
745.168	0.0152135
745.246	0.0153352
745.325	0.0154543
745.403	0.0155648
745.481	0.0154811
745.559	0.0151852
745.637	0.0150479
745.715	0.0149953
745.793	0.0147388
745.871	0.0144303
745.950	0.0142735
746.028	0.0139039
746.106	0.0135410
746.184	0.0134660
746.262	0.0131829
746.340	0.0130280
746.418	0.0128877
746.496	0.0128555
746.575	0.0130199
746.653	0.0131430
746.731	0.0132006
746.809	0.0135358
746.887	0.0137373
746.965	0.0141724
747.043	0.0145422
747.121	0.0148193
747.200	0.0150789
747.278	0.0152052
747.356	0.0154580
747.434	0.0154995
747.512	0.0154453
747.590	0.0154826
747.668	0.0155211
747.746	0.0153345
747.825	0.0150964
747.903	0.0149918
747.981	0.0148888
748.059	0.0145328
748.137	0.0143864
748.215	0.0142435
748.293	0.0140765
748.371	0.0137975
748.450	0.0136623
748.528	0.0135074
748.606	0.0136174
748.684	0.0135611
748.762	0.0134034
748.840	0.0133344
748.918	0.0134129
748.996	0.0136819
749.075	0.0135574
749.153	0.0137150
749.231	0.0137961
749.309	0.0140327
749.387	0.0142294
749.465	0.0144409
749.543	0.0146622
749.621	0.0146296
749.700	0.0148849
749.778	0.0149548
749.856	0.0149336
749.934	0.0151903
750.012	0.0152557
750.090	0.0153055
750.168	0.0152576
750.246	0.0152671
750.325	0.0151109
750.403	0.0149214
750.481	0.0148991
750.559	0.0145967
750.637	0.0144594
750.715	0.0143622
750.793	0.0139143
750.871	0.0137531
750.950	0.0137065
751.028	0.0136966
751.106	0.0134947
751.184	0.0133904
751.262	0.0134169
751.340	0.0133752
751.418	0.0134409
751.496	0.0135629
751.575	0.0135748
751.653	0.0137145
751.731	0.0139722
751.809	0.0140993
751.887	0.0141765
751.965	0.0145105
752.043	0.0145663
752.121	0.0148077
752.200	0.0147306
752.278	0.0147762
752.356	0.0149677
752.434	0.0149065
752.512	0.0150229
752.590	0.0149861
752.668	0.0150961
752.746	0.0149731
752.825	0.0151118
752.903	0.0148946
752.981	0.0147405
753.059	0.0146767
753.137	0.0146724
753.215	0.0144347
753.293	0.0142200
753.371	0.0142371
753.450	0.0142292
753.528	0.0140755
753.606	0.0140093
753.684	0.0137502
753.762	0.0137829
753.840	0.0137035
753.918	0.0135574
753.996	0.0136468
754.075	0.0136842
754.153	0.0137427
754.231	0.0137378
754.309	0.0138121
754.387	0.0139029
754.465	0.0141010
754.543	0.0143005
754.621	0.0144130
754.700	0.0145074
754.778	0.0147537
754.856	0.0150002
754.934	0.0150430
755.012	0.0152676
755.090	0.0152857
755.168	0.0152827
755.246	0.0151901
755.325	0.0152488
755.403	0.0149887
755.481	0.0151479
755.559	0.0149419
755.637	0.0146484
755.715	0.0143723
755.793	0.0141995
755.871	0.0140423
755.950	0.0138142
756.028	0.0137839
756.106	0.0136835
756.184	0.0135027
756.262	0.0135685
756.340	0.0134428
756.418	0.0134541
756.496	0.0134726
756.575	0.0135409
756.653	0.0136934
756.731	0.0137737
756.809	0.0139677
756.887	0.0142028
756.965	0.0143078
757.043	0.0143814
757.121	0.0146766
757.200	0.0147878
757.278	0.0149980
757.356	0.0150941
757.434	0.0151167
757.512	0.0152277
757.590	0.0152985
757.668	0.0153129
757.746	0.0151417
757.825	0.0149911
757.903	0.0148452
757.981	0.0147488
758.059	0.0143808
758.137	0.0143292
758.215	0.0141429
758.293	0.0139393
758.371	0.0139160
758.450	0.0138567
758.528	0.0137557
758.606	0.0135643
758.684	0.0134639
758.762	0.0135712
758.840	0.0137456
758.918	0.0137450
758.996	0.0139299
759.075	0.0140002
759.153	0.0140533
759.231	0.0141637
759.309	0.0143871
759.387	0.0144781
759.465	0.0145605
759.543	0.0146254
759.621	0.0148544
759.700	0.0148790
759.778	0.0148439
759.856	0.0149069
759.934	0.0148769
760.012	0.0148689
760.090	0.0148943
760.168	0.0148759
760.246	0.0146770
760.325	0.0146430
760.403	0.0144695
760.481	0.0144110
760.559	0.0144639
760.637	0.0143094
760.715	0.0142194
760.793	0.0141846
760.871	0.0142956
760.950	0.0142756
761.028	0.0140120
761.106	0.0139314
761.184	0.0140741
761.262	0.0141187
761.340	0.0139170
761.418	0.0139765
761.496	0.0139561
761.575	0.0140608
761.653	0.0141539
761.731	0.0141921
761.809	0.0141914
761.887	0.0142746
761.965	0.0142946
762.043	0.0143818
762.121	0.0144969
762.200	0.0146107
762.278	0.0147192
762.356	0.0146133
762.434	0.0146936
762.512	0.0148428
762.590	0.0149532
762.668	0.0148507
762.746	0.0147782
762.825	0.0147280
762.903	0.0147200
762.981	0.0146673
763.059	0.0146955
763.137	0.0145358
763.215	0.0142770
763.293	0.0142561
763.371	0.0140686
763.450	0.0140292
763.528	0.0139416
763.606	0.0140924
763.684	0.0139820
763.762	0.0139285
763.840	0.0139114
763.918	0.0139251
763.996	0.0138621
764.075	0.0139120
764.153	0.0139493
764.231	0.0143243
764.309	0.0142599
764.387	0.0143150
764.465	0.0144965
764.543	0.0145965
764.621	0.0147013
764.700	0.0145948
764.778	0.0146662
764.856	0.0146003
764.934	0.0147301
765.012	0.0147191
765.090	0.0147006
765.168	0.0147271
765.246	0.0147770
765.325	0.0145216
765.403	0.0144838
765.481	0.0143507
765.559	0.0142857
765.637	0.0143826
765.715	0.0141680
765.793	0.0142130
765.871	0.0140351
765.950	0.0141005
766.028	0.0140191
766.106	0.0139922
766.184	0.0139005
766.262	0.0138844
766.340	0.0141158
766.418	0.0139859
766.496	0.0139560
766.575	0.0141586
766.653	0.0140869
766.731	0.0141263
766.809	0.0142233
766.887	0.0143988
766.965	0.0144790
767.043	0.0144941
767.121	0.0144761
767.200	0.0146607
767.278	0.0145434
767.356	0.0145871
767.434	0.0146680
767.512	0.0146066
767.590	0.0147319
767.668	0.0148311
767.746	0.0147958
767.825	0.0145808
767.903	0.0146335
767.981	0.0146721
768.059	0.0146011
768.137	0.0144944
768.215	0.0143948
768.293	0.0143713
768.371	0.0142250
768.450	0.0142432
768.528	0.0141199
768.606	0.0140626
768.684	0.0139501
768.762	0.0139597
768.840	0.0140195
768.918	0.0139967
768.996	0.0140157
769.075	0.0141585
769.153	0.0141647
769.231	0.0141617
769.309	0.0141241
769.387	0.0142899
769.465	0.0143638
769.543	0.0145107
769.621	0.0146051
769.700	0.0145828
769.778	0.0146980
769.856	0.0147047
769.934	0.0145417
770.012	0.0146716
770.090	0.0147497
770.168	0.0147962
770.246	0.0145686
770.325	0.0144639
770.403	0.0146304
770.481	0.0144997
770.559	0.0145039
770.637	0.0143284
770.715	0.0141911
770.793	0.0142737
770.871	0.0141153
770.950	0.0140438
771.028	0.0141275
771.106	0.0140843
771.184	0.0139791
771.262	0.0141012
771.340	0.0140549
771.418	0.0141128
771.496	0.0141492
771.575	0.0141289
771.653	0.0141704
771.731	0.0143353
771.809	0.0142154
771.887	0.0141883
771.965	0.0144798
772.043	0.0144441
772.121	0.0145135
772.200	0.0144703
772.278	0.0144316
772.356	0.0144963
772.434	0.0145356
772.512	0.0145803
772.590	0.0145205
772.668	0.0145444
772.746	0.0144360
772.825	0.0143931
772.903	0.0145428
772.981	0.0142571
773.059	0.0143637
773.137	0.0144736
773.215	0.0143367
773.293	0.0142297
773.371	0.0143569
773.450	0.0143460
773.528	0.0143072
773.606	0.0142733
773.684	0.0141770
773.762	0.0142557
773.840	0.0141542
773.918	0.0141157
773.996	0.0140890
774.075	0.0140036
774.153	0.0140936
774.231	0.0139699
774.309	0.0139989
774.387	0.0140553
774.465	0.0142890
774.543	0.0141058
774.621	0.0141664
774.700	0.0141776
774.778	0.0142579
774.856	0.0144521
774.934	0.0144863
775.012	0.0145979
775.090	0.0145059
775.168	0.0146915
775.246	0.0146405
775.325	0.0145986
775.403	0.0146258
775.481	0.0145354
775.559	0.0144798
775.637	0.0144873
775.715	0.0144537
775.793	0.0144093
775.871	0.0143512
775.950	0.0143194
776.028	0.0142832
776.106	0.0141244
776.184	0.0142300
776.262	0.0141483
776.340	0.0140516
776.418	0.0140672
776.496	0.0140128
776.575	0.0140396
776.653	0.0142684
776.731	0.0141188
776.809	0.0142686
776.887	0.0142112
776.965	0.0140783
777.043	0.0142747
777.121	0.0142605
777.200	0.0145051
777.278	0.0144662
777.356	0.0143968
777.434	0.0144467
777.512	0.0145419
777.590	0.0145129
777.668	0.0144328
777.746	0.0144353
777.825	0.0144537
777.903	0.0144897
777.981	0.0143560
778.059	0.0143058
778.137	0.0143323
778.215	0.0142187
778.293	0.0143459
778.371	0.0144088
778.450	0.0144325
778.528	0.0143839
778.606	0.0143092
778.684	0.0141690
778.762	0.0141439
778.840	0.0142149
778.918	0.0142329
778.996	0.0141550
779.075	0.0140807
779.153	0.0139849
779.231	0.0141864
779.309	0.0141828
779.387	0.0142087
779.465	0.0141508
779.543	0.0142752
779.621	0.0140967
779.700	0.0141910
779.778	0.0142809
779.856	0.0142728
779.934	0.0143781
780.012	0.0145718
780.090	0.0143750
780.168	0.0145680
780.246	0.0146028
780.325	0.0145101
780.403	0.0144765
780.481	0.0145025
780.559	0.0145322
780.637	0.0145963
780.715	0.0144698
780.793	0.0143941
780.871	0.0143667
780.950	0.0143985
781.028	0.0144575
781.106	0.0143439
781.184	0.0141470
781.262	0.0142214
781.340	0.0142427
781.418	0.0142135
781.496	0.0142276
781.575	0.0142652
781.653	0.0141211
781.731	0.0142216
781.809	0.0141624
781.887	0.0142773
781.965	0.0143291
782.043	0.0143465
782.121	0.0142607
782.200	0.0142476
782.278	0.0143045
782.356	0.0143129
782.434	0.0144881
782.512	0.0143927
782.590	0.0144570
782.668	0.0143980
782.746	0.0143219
782.825	0.0144491
782.903	0.0145000
782.981	0.0144545
783.059	0.0143690
783.137	0.0144101
783.215	0.0143327
783.293	0.0142290
783.371	0.0143428
783.450	0.0143430
783.528	0.0142708
783.606	0.0143261
783.684	0.0143042
783.762	0.0142639
783.840	0.0142189
783.918	0.0141306
783.996	0.0142860
784.075	0.0141442
784.153	0.0142298
784.231	0.0142681
784.309	0.0142001
784.387	0.0141782
784.465	0.0141821
784.543	0.0142736
784.621	0.0142599
784.700	0.0142033
784.778	0.0144456
784.856	0.0143520
784.934	0.0143394
785.012	0.0143015
785.090	0.0144896
785.168	0.0143912
785.246	0.0142520
785.325	0.0143628
785.403	0.0143711
785.481	0.0144376
785.559	0.0144589
785.637	0.0143951
785.715	0.0143234
785.793	0.0144564
785.871	0.0144668
785.950	0.0143953
786.028	0.0144717
786.106	0.0144358
786.184	0.0143687
786.262	0.0143404
786.340	0.0144176
786.418	0.0143183
786.496	0.0142124
786.575	0.0143227
786.653	0.0141669
786.731	0.0141853
786.809	0.0142189
786.887	0.0142262
786.965	0.0142554
787.043	0.0141824
787.121	0.0142599
787.200	0.0141865
787.278	0.0143207
787.356	0.0142587
787.434	0.0142162
787.512	0.0142959
787.590	0.0144165
787.668	0.0144038
787.746	0.0143738
787.825	0.0143600
787.903	0.0145097
787.981	0.0144805
788.059	0.0144496
788.137	0.0144342
788.215	0.0144402
788.293	0.0143887
788.371	0.0144621
788.450	0.0143005
788.528	0.0144923
788.606	0.0142992
788.684	0.0142549
788.762	0.0144391
788.840	0.0143756
788.918	0.0143052
788.996	0.0142969
789.075	0.0142519
789.153	0.0141891
789.231	0.0140738
789.309	0.0142580
789.387	0.0143907
789.465	0.0143885
789.543	0.0142504
789.621	0.0143191
789.700	0.0145098
789.778	0.0144568
789.856	0.0142815
789.934	0.0141998
790.012	0.0143366
790.090	0.0143240
790.168	0.0141605
790.246	0.0143100
790.325	0.0142538
790.403	0.0143120
790.481	0.0144235
790.559	0.0143310
790.637	0.0142230
790.715	0.0142876
790.793	0.0143581
790.871	0.0144150
790.950	0.0144215
791.028	0.0145049
791.106	0.0144077
791.184	0.0144314
791.262	0.0144252
791.340	0.0143454
791.418	0.0143036
791.496	0.0142379
791.575	0.0143475
791.653	0.0142972
791.731	0.0142846
791.809	0.0142979
791.887	0.0141780
791.965	0.0142272
792.043	0.0141769
792.121	0.0141854
792.200	0.0142381
792.278	0.0141518
792.356	0.0143436
792.434	0.0142437
792.512	0.0142476
792.590	0.0142151
792.668	0.0143558
792.746	0.0143973
792.825	0.0142769
792.903	0.0143188
792.981	0.0143402
793.059	0.0144334
793.137	0.0143709
793.215	0.0145348
793.293	0.0144181
793.371	0.0142924
793.450	0.0144319
793.528	0.0144412
793.606	0.0144367
793.684	0.0144224
793.762	0.0143848
793.840	0.0143717
793.918	0.0143000
793.996	0.0143764
794.075	0.0143002
794.153	0.0143468
794.231	0.0142806
794.309	0.0142618
794.387	0.0142115
794.465	0.0141945
794.543	0.0143890
794.621	0.0142019
794.700	0.0143680
794.778	0.0142341
794.856	0.0140857
794.934	0.0142912
795.012	0.0142864
795.090	0.0143533
795.168	0.0143555
795.246	0.0143140
795.325	0.0144331
795.403	0.0143991
795.481	0.0143052
795.559	0.0143304
795.637	0.0144659
795.715	0.0144698
795.793	0.0142810
795.871	0.0143685
795.950	0.0145102
796.028	0.0145055
796.106	0.0143662
796.184	0.0144631
796.262	0.0143642
796.340	0.0142660
796.418	0.0143232
796.496	0.0144373
796.575	0.0143673
796.653	0.0143671
796.731	0.0142593
796.809	0.0143887
796.887	0.0142867
796.965	0.0142844
797.043	0.0142706
797.121	0.0143332
797.200	0.0143271
797.278	0.0142275
797.356	0.0143487
797.434	0.0143275
797.512	0.0142849
797.590	0.0143549
797.668	0.0142894
797.746	0.0143131
797.825	0.0143125
797.903	0.0141539
797.981	0.0143027
798.059	0.0143526
798.137	0.0142878
798.215	0.0143081
798.293	0.0143078
798.371	0.0143612
798.450	0.0143959
798.528	0.0142985
798.606	0.0143974
798.684	0.0144701
798.762	0.0143156
798.840	0.0144349
798.918	0.0144596
798.996	0.0142968
799.075	0.0144533
799.153	0.0144451
799.231	0.0144412
799.309	0.0143499
799.387	0.0143315
799.465	0.0143317
799.543	0.0143752
799.621	0.0143275
799.700	0.0142976
799.778	0.0142274
799.856	0.0144029
799.934	0.0144091
800.012	0.0144097
800.090	0.0144182
800.168	0.0143562
800.246	0.0142519
800.325	0.0143910
800.403	0.0144248
800.481	0.0143583
800.559	0.0144484
800.637	0.0143568
800.715	0.0142881
800.793	0.0143060
800.871	0.0143058
800.950	0.0144431
801.028	0.0142384
801.106	0.0142549
801.184	0.0144104
801.262	0.0144584
801.340	0.0144493
801.418	0.0142738
801.496	0.0143063
801.575	0.0144106
801.653	0.0143349
801.731	0.0143198
801.809	0.0143311
801.887	0.0143133
801.965	0.0143412
802.043	0.0143956
802.121	0.0143726
802.200	0.0143495
802.278	0.0144495
802.356	0.0144167
802.434	0.0143955
802.512	0.0143114
802.590	0.0142320
802.668	0.0142195
802.746	0.0142927
802.825	0.0143697
802.903	0.0143822
802.981	0.0143376
803.059	0.0143314
803.137	0.0142770
803.215	0.0143082
803.293	0.0143486
803.371	0.0144383
803.450	0.0142278
803.528	0.0142371
803.606	0.0142992
803.684	0.0143175
803.762	0.0143684
803.840	0.0144250
803.918	0.0143812
803.996	0.0142239
804.075	0.0142992
804.153	0.0142538
804.231	0.0142242
804.309	0.0143208
804.387	0.0145586
804.465	0.0145052
804.543	0.0144980
804.621	0.0143504
804.700	0.0143779
804.778	0.0143000
804.856	0.0144251
804.934	0.0144097
805.012	0.0143771
805.090	0.0142429
805.168	0.0143864
805.246	0.0143294
805.325	0.0141956
805.403	0.0142669
805.481	0.0142181
805.559	0.0142525
805.637	0.0141834
805.715	0.0142075
805.793	0.0141164
805.871	0.0144131
805.950	0.0142403
806.028	0.0142957
806.106	0.0144124
806.184	0.0143323
806.262	0.0144445
806.340	0.0145467
806.418	0.0145371
806.496	0.0144262
806.575	0.0144235
806.653	0.0145074
806.731	0.0145827
806.809	0.0145427
806.887	0.0142980
806.965	0.0143749
807.043	0.0144357
807.121	0.0142451
807.200	0.0141542
807.278	0.0142442
807.356	0.0144318
807.434	0.0141058
807.512	0.0140857
807.590	0.0140789
807.668	0.0142025
807.746	0.0142108
807.825	0.0141529
807.903	0.0142599
807.981	0.0142044
808.059	0.0140948
808.137	0.0140599
808.215	0.0141939
808.293	0.0143021
808.371	0.0141055
808.450	0.0142001
808.528	0.0141721
808.606	0.0143834
808.684	0.0143405
808.762	0.0142337
808.840	0.0143988
808.918	0.0143978
808.996	0.0143376
809.075	0.0145051
809.153	0.0144518
809.231	0.0145226
809.309	0.0145598
809.387	0.0145070
809.465	0.0147502
809.543	0.0145345
809.621	0.0144360
809.700	0.0143859
809.778	0.0144534
809.856	0.0143292
809.934	0.0143317
810.012	0.0143241
810.090	0.0141463
810.168	0.0141348
810.246	0.0142112
810.325	0.0142378
810.403	0.0140563
810.481	0.0141156
810.559	0.0143201
810.637	0.0143311
810.715	0.0141313
810.793	0.0141657
810.871	0.0144006
810.950	0.0143451
811.028	0.0142970
811.106	0.0145044
811.184	0.0145760
811.262	0.0144381
811.340	0.0146551
811.418	0.0144690
811.496	0.0145170
811.575	0.0144351
811.653	0.0144648
811.731	0.0145663
811.809	0.0144529
811.887	0.0143921
811.965	0.0144456
812.043	0.0144018
812.121	0.0142893
812.200	0.0142305
812.278	0.0143479
812.356	0.0141262
812.434	0.0141706
812.512	0.0142480
812.590	0.0140676
812.668	0.0142891
812.746	0.0142213
812.825	0.0142251
812.903	0.0143768
812.981	0.0142943
813.059	0.0141766
813.137	0.0141337
813.215	0.0141608
813.293	0.0141821
813.371	0.0142030
813.450	0.0143655
813.528	0.0142416
813.606	0.0142838
813.684	0.0142085
813.762	0.0143977
813.840	0.0143079
813.918	0.0142669
813.996	0.0144106
814.075	0.0144425
814.153	0.0144322
814.231	0.0143903
814.309	0.0144436
814.387	0.0144585
814.465	0.0144637
814.543	0.0145427
814.621	0.0145360
814.700	0.0145602
814.778	0.0143688
814.856	0.0144694
814.934	0.0144104
815.012	0.0144888
815.090	0.0145462
815.168	0.0145226
815.246	0.0143626
815.325	0.0143226
815.403	0.0144443
815.481	0.0142536
815.559	0.0143825
815.637	0.0143448
815.715	0.0143169
815.793	0.0143202
815.871	0.0143905
815.950	0.0145130
816.028	0.0144449
816.106	0.0143694
816.184	0.0143080
816.262	0.0143502
816.340	0.0143195
816.418	0.0143498
816.496	0.0143610
816.575	0.0144363
816.653	0.0144229
816.731	0.0146140
816.809	0.0145843
816.887	0.0143361
816.965	0.0145837
817.043	0.0144434
817.121	0.0145702
817.200	0.0144570
817.278	0.0144984
817.356	0.0143543
817.434	0.0143201
817.512	0.0143723
817.590	0.0143562
817.668	0.0143578
817.746	0.0142641
817.825	0.0143216
817.903	0.0144074
817.981	0.0142667
818.059	0.0144208
818.137	0.0143280
818.215	0.0145399
818.293	0.0143066
818.371	0.0144121
818.450	0.0142597
818.528	0.0142762
818.606	0.0142300
818.684	0.0144411
818.762	0.0142387
818.840	0.0142673
818.918	0.0143596
818.996	0.0143449
819.075	0.0142599
819.153	0.0143385
819.231	0.0144159
819.309	0.0144290
819.387	0.0145058
819.465	0.0143175
819.543	0.0145451
819.621	0.0143629
819.700	0.0144241
819.778	0.0143881
819.856	0.0144378
819.934	0.0143223
820.012	0.0145198
820.090	0.0144109
820.168	0.0144265
820.246	0.0143680
820.325	0.0142583
820.403	0.0143723
820.481	0.0143214
820.559	0.0143754
820.637	0.0144588
820.715	0.0141766
820.793	0.0144264
820.871	0.0143261
820.950	0.0144171
821.028	0.0143987
821.106	0.0144478
821.184	0.0144666
821.262	0.0144521
821.340	0.0144437
821.418	0.0145208
821.496	0.0143989
821.575	0.0143236
821.653	0.0142870
821.731	0.0144690
821.809	0.0144995
821.887	0.0143271
821.965	0.0144856
822.043	0.0144247
822.121	0.0143724
822.200	0.0142976
822.278	0.0143951
822.356	0.0143771
822.434	0.0143215
822.512	0.0144736
822.590	0.0144083
822.668	0.0143402
822.746	0.0144304
822.825	0.0145139
822.903	0.0143776
822.981	0.0144083
823.059	0.0144576
823.137	0.0145613
823.215	0.0144727
823.293	0.0143828
823.371	0.0144266
823.450	0.0144795
823.528	0.0144910
823.606	0.0144989
823.684	0.0144328
823.762	0.0143204
823.840	0.0144236
823.918	0.0144365
823.996	0.0144568
824.075	0.0143497
824.153	0.0143936
824.231	0.0143079
824.309	0.0143150
824.387	0.0141909
824.465	0.0142691
824.543	0.0143797
824.621	0.0143211
824.700	0.0142028
824.778	0.0143453
824.856	0.0143414
824.934	0.0143439
825.012	0.0143871
825.090	0.0143575
825.168	0.0144122
825.246	0.0144519
825.325	0.0144108
825.403	0.0145532
825.481	0.0144676
825.559	0.0145007
825.637	0.0142748
825.715	0.0143729
825.793	0.0144600
825.871	0.0143024
825.950	0.0144687
826.028	0.0145293
826.106	0.0144546
826.184	0.0145250
826.262	0.0143374
826.340	0.0143892
826.418	0.0141595
826.496	0.0142656
826.575	0.0143428
826.653	0.0143729
826.731	0.0143103
826.809	0.0142092
826.887	0.0143847
826.965	0.0142409
827.043	0.0141618
827.121	0.0142743
827.200	0.0143261
827.278	0.0144230
827.356	0.0143942
827.434	0.0145451
827.512	0.0145042
827.590	0.0143727
827.668	0.0143819
827.746	0.0144447
827.825	0.0144403
827.903	0.0144936
827.981	0.0146376
828.059	0.0144238
828.137	0.0144435
828.215	0.0145294
828.293	0.0144855
828.371	0.0145138
828.450	0.0143388
828.528	0.0144534
828.606	0.0145263
828.684	0.0142224
828.762	0.0143080
828.840	0.0143680
828.918	0.0142776
828.996	0.0142818
829.075	0.0142789
829.153	0.0143024
829.231	0.0143713
829.309	0.0145037
829.387	0.0145279
829.465	0.0145222
829.543	0.0144651
829.621	0.0143430
829.700	0.0145242
829.778	0.0144892
829.856	0.0144149
829.934	0.0145480
830.012	0.0144022
830.090	0.0143085
830.168	0.0145051
830.246	0.0143422
830.325	0.0143560
830.403	0.0143268
830.481	0.0143298
830.559	0.0143449
830.637	0.0143880
830.715	0.0142213
830.793	0.0143448
830.871	0.0143681
830.950	0.0142639
831.028	0.0144210
831.106	0.0143365
831.184	0.0143639
831.262	0.0143694
831.340	0.0143538
831.418	0.0144682
831.496	0.0143440
831.575	0.0143980
831.653	0.0143137
831.731	0.0143510
831.809	0.0144491
831.887	0.0144464
831.965	0.0142861
832.043	0.0143651
832.121	0.0143808
832.200	0.0144273
832.278	0.0142999
832.356	0.0143909
832.434	0.0143256
832.512	0.0144164
832.590	0.0142492
832.668	0.0143832
832.746	0.0145776
832.825	0.0143650
832.903	0.0143932
832.981	0.0144211
833.059	0.0143750
833.137	0.0143579
833.215	0.0142894
833.293	0.0144037
833.371	0.0144928
833.450	0.0143858
833.528	0.0143140
833.606	0.0142052
833.684	0.0143452
833.762	0.0144941
833.840	0.0144849
833.918	0.0145808
833.996	0.0145200
834.075	0.0144582
834.153	0.0144054
834.231	0.0144984
834.309	0.0146186
834.387	0.0144687
834.465	0.0144136
834.543	0.0143079
834.621	0.0143121
834.700	0.0144028
834.778	0.0142271
834.856	0.0142246
834.934	0.0141464
835.012	0.0140527
835.090	0.0141013
835.168	0.0142258
835.246	0.0141738
835.325	0.0141148
835.403	0.0142160
835.481	0.0143111
835.559	0.0143578
835.637	0.0144070
835.715	0.0144331
835.793	0.0144090
835.871	0.0144611
835.950	0.0146967
836.028	0.0146504
836.106	0.0147082
836.184	0.0147614
836.262	0.0144501
836.340	0.0144633
836.418	0.0145587
836.496	0.0144060
836.575	0.0143106
836.653	0.0141908
836.731	0.0142724
836.809	0.0143196
836.887	0.0142510
836.965	0.0141755
837.043	0.0142470
837.121	0.0141744
837.200	0.0142057
837.278	0.0141236
837.356	0.0143270
837.434	0.0143615
837.512	0.0144210
837.590	0.0143090
837.668	0.0143829
837.746	0.0145416
837.825	0.0145068
837.903	0.0144124
837.981	0.0144851
838.059	0.0145261
838.137	0.0142507
838.215	0.0146257
838.293	0.0145841
838.371	0.0144620
838.450	0.0143815
838.528	0.0143072
838.606	0.0143021
838.684	0.0143964
838.762	0.0142548
838.840	0.0142024
838.918	0.0143999
838.996	0.0143895
839.075	0.0144547
839.153	0.0142530
839.231	0.0143343
839.309	0.0141824
839.387	0.0143220
839.465	0.0143606
839.543	0.0142741
839.621	0.0143929
839.700	0.0143744
839.778	0.0143707
839.856	0.0143636
839.934	0.0143747
840.012	0.0145706
840.090	0.0144048
840.168	0.0144122
840.246	0.0143969
840.325	0.0143456
840.403	0.0144630
840.481	0.0142931
840.559	0.0144409
840.637	0.0143133
840.715	0.0142284
840.793	0.0144580
840.871	0.0143760
840.950	0.0143037
841.028	0.0144197
841.106	0.0144102
841.184	0.0143057
841.262	0.0143069
841.340	0.0144045
841.418	0.0143180
841.496	0.0144685
841.575	0.0143571
841.653	0.0144661
841.731	0.0145409
841.809	0.0144691
841.887	0.0144239
841.965	0.0143324
842.043	0.0143533
842.121	0.0143700
842.200	0.0142867
842.278	0.0143597
842.356	0.0143211
842.434	0.0142913
842.512	0.0141843
842.590	0.0141881
842.668	0.0142667
842.746	0.0144265
842.825	0.0142758
842.903	0.0143708
842.981	0.0143289
843.059	0.0142583
843.137	0.0143888
843.215	0.0143855
843.293	0.0143319
843.371	0.0145249
843.450	0.0145664
843.528	0.0144216
843.606	0.0143844
843.684	0.0145022
843.762	0.0144763
843.840	0.0143805
843.918	0.0145097
843.996	0.0143085
844.075	0.0143424
844.153	0.0143519
844.231	0.0143751
844.309	0.0143202
844.387	0.0141211
844.465	0.0142619
844.543	0.0142522
844.621	0.0142628
844.700	0.0142376
844.778	0.0143592
844.856	0.0143225
844.934	0.0143604
845.012	0.0143098
845.090	0.0143332
845.168	0.0143736
845.246	0.0144830
845.325	0.0145040
845.403	0.0142438
845.481	0.0143484
845.559	0.0143364
845.637	0.0144195
845.715	0.0143867
845.793	0.0144013
845.871	0.0143427
845.950	0.0142937
846.028	0.0142821
846.106	0.0143635
846.184	0.0144491
846.262	0.0144388
846.340	0.0143483
846.418	0.0143641
846.496	0.0143925
846.575	0.0143774
846.653	0.0144447
846.731	0.0143427
846.809	0.0143161
846.887	0.0143680
846.965	0.0142273
847.043	0.0143456
847.121	0.0142535
847.200	0.0143552
847.278	0.0143578
847.356	0.0143275
847.434	0.0143994
847.512	0.0143101
847.590	0.0144286
847.668	0.0144028
847.746	0.0143873
847.825	0.0143799
847.903	0.0142811
847.981	0.0143669
848.059	0.0143999
848.137	0.0142645
848.215	0.0143311
848.293	0.0143773
848.371	0.0142384
848.450	0.0143203
848.528	0.0142944
848.606	0.0142494
848.684	0.0142054
848.762	0.0143261
848.840	0.0142876
848.918	0.0142538
848.996	0.0142834
849.075	0.0143531
849.153	0.0142363
849.231	0.0142424
849.309	0.0142522
849.387	0.0143467
849.465	0.0143823
849.543	0.0144782
849.621	0.0143239
849.700	0.0142690
849.778	0.0143512
849.856	0.0143692
849.934	0.0144319
850.012	0.0143219
850.090	0.0143085
850.168	0.0142892
850.246	0.0144360
850.325	0.0142931
850.403	0.0142525
850.481	0.0143814
850.559	0.0144209
850.637	0.0143473
850.715	0.0143994
850.793	0.0145228
850.871	0.0143402
850.950	0.0144331
851.028	0.0143274
851.106	0.0144377
851.184	0.0143455
851.262	0.0143122
851.340	0.0143679
851.418	0.0142896
851.496	0.0142951
851.575	0.0142139
851.653	0.0141155
851.731	0.0143501
851.809	0.0143777
851.887	0.0142152
851.965	0.0142375
852.043	0.0142782
852.121	0.0143600
852.200	0.0142921
852.278	0.0142441
852.356	0.0143408
852.434	0.0145020
852.512	0.0143960
852.590	0.0143083
852.668	0.0144972
852.746	0.0143602
852.825	0.0144963
852.903	0.0144312
852.981	0.0144901
853.059	0.0143955
853.137	0.0144093
853.215	0.0145921
853.293	0.0145124
853.371	0.0143757
853.450	0.0144135
853.528	0.0143314
853.606	0.0143878
853.684	0.0144150
853.762	0.0144109
853.840	0.0142256
853.918	0.0143152
853.996	0.0140348
854.075	0.0142647
854.153	0.0142809
854.231	0.0143259
854.309	0.0142867
854.387	0.0142613
854.465	0.0143086
854.543	0.0143525
854.621	0.0143385
854.700	0.0143802
854.778	0.0142850
854.856	0.0143195
854.934	0.0143880
855.012	0.0143047
855.090	0.0144131
855.168	0.0144927
855.246	0.0144083
855.325	0.0144517
855.403	0.0144717
855.481	0.0143153
855.559	0.0143532
855.637	0.0144025
855.715	0.0143448
855.793	0.0143515
855.871	0.0142004
855.950	0.0143458
856.028	0.0143052
856.106	0.0142405
856.184	0.0142625
856.262	0.0143018
856.340	0.0141520
856.418	0.0141786
856.496	0.0142471
856.575	0.0142723
856.653	0.0141350
856.731	0.0142181
856.809	0.0141231
856.887	0.0144392
856.965	0.0143367
857.043	0.0143957
857.121	0.0142380
857.200	0.0142779
857.278	0.0143763
857.356	0.0144593
857.434	0.0144495
857.512	0.0144221
857.590	0.0145231
857.668	0.0144386
857.746	0.0144813
857.825	0.0144971
857.903	0.0142489
857.981	0.0144130
858.059	0.0144476
858.137	0.0141732
858.215	0.0144407
858.293	0.0143135
858.371	0.0143290
858.450	0.0142592
858.528	0.0142117
858.606	0.0142754
858.684	0.0144592
858.762	0.0142322
858.840	0.0142412
858.918	0.0142098
858.996	0.0144553
859.075	0.0142529
859.153	0.0143161
859.231	0.0143240
859.309	0.0143583
859.387	0.0143182
859.465	0.0143224
859.543	0.0142560
859.621	0.0144059
859.700	0.0143931
859.778	0.0143467
859.856	0.0143254
859.934	0.0142199
860.012	0.0142957
860.090	0.0144318
860.168	0.0142610
860.246	0.0144126
860.325	0.0143430
860.403	0.0142183
860.481	0.0144033
860.559	0.0144642
860.637	0.0142970
860.715	0.0142365
860.793	0.0143268
860.871	0.0141965
860.950	0.0143931
861.028	0.0143419
861.106	0.0141708
861.184	0.0144489
861.262	0.0143241
861.340	0.0142854
861.418	0.0143846
861.496	0.0143079
861.575	0.0143922
861.653	0.0142580
861.731	0.0142383
861.809	0.0143168
861.887	0.0143626
861.965	0.0143389
862.043	0.0143138
862.121	0.0143866
862.200	0.0142586
862.278	0.0143139
862.356	0.0143616
862.434	0.0142339
862.512	0.0143290
862.590	0.0143557
862.668	0.0142627
862.746	0.0143916
862.825	0.0144028
862.903	0.0144268
862.981	0.0142928
863.059	0.0143423
863.137	0.0143690
863.215	0.0145065
863.293	0.0143672
863.371	0.0144421
863.450	0.0143160
863.528	0.0143607
863.606	0.0144102
863.684	0.0143569
863.762	0.0144312
863.840	0.0143188
863.918	0.0141959
863.996	0.0143487
864.075	0.0143202
864.153	0.0144099
864.231	0.0143459
864.309	0.0143248
864.387	0.0145460
864.465	0.0144877
864.543	0.0143245
864.621	0.0143386
864.700	0.0142406
864.778	0.0141538
864.856	0.0142438
864.934	0.0144846
865.012	0.0142770
865.090	0.0142554
865.168	0.0143202
865.246	0.0142220
865.325	0.0143603
865.403	0.0143903
865.481	0.0144345
865.559	0.0144189
865.637	0.0143088
865.715	0.0143598
865.793	0.0144151
865.871	0.0144563
865.950	0.0144361
866.028	0.0144527
866.106	0.0144350
866.184	0.0142976
866.262	0.0143903
866.340	0.0142927
866.418	0.0142004
866.496	0.0142506
866.575	0.0142581
866.653	0.0143046
866.731	0.0143954
866.809	0.0143136
866.887	0.0142348
866.965	0.0142519
867.043	0.0142106
867.121	0.0144101
867.200	0.0143940
867.278	0.0144155
867.356	0.0144183
867.434	0.0144944
867.512	0.0144847
867.590	0.0144463
867.668	0.0144370
867.746	0.0144199
867.825	0.0144572
867.903	0.0143245
867.981	0.0142671
868.059	0.0143026
868.137	0.0142907
868.215	0.0144311
868.293	0.0143797
868.371	0.0142998
868.450	0.0143625
868.528	0.0143050
868.606	0.0143362
868.684	0.0143092
868.762	0.0143621
868.840	0.0143417
868.918	0.0143252
868.996	0.0144564
869.075	0.0143178
869.153	0.0143243
869.231	0.0144451
869.309	0.0143932
869.387	0.0143423
869.465	0.0144424
869.543	0.0144942
869.621	0.0144888
869.700	0.0145138
869.778	0.0142790
869.856	0.0142681
869.934	0.0144645
870.012	0.0143841
870.090	0.0143346
870.168	0.0143271
870.246	0.0142749
870.325	0.0143385
870.403	0.0144435
870.481	0.0142916
870.559	0.0142564
870.637	0.0143385
870.715	0.0143329
870.793	0.0142156
870.871	0.0143222
870.950	0.0143661
871.028	0.0143549
871.106	0.0142590
871.184	0.0142667
871.262	0.0142330
871.340	0.0142894
871.418	0.0142872
871.496	0.0142965
871.575	0.0144106
871.653	0.0144194
871.731	0.0142818
871.809	0.0144345
871.887	0.0143861
871.965	0.0143305
872.043	0.0144652
872.121	0.0143804
872.200	0.0144348
872.278	0.0144184
872.356	0.0142953
872.434	0.0143551
872.512	0.0144858
872.590	0.0144267
872.668	0.0142030
872.746	0.0143096
872.825	0.0142989
872.903	0.0143696
872.981	0.0142499
873.059	0.0141360
873.137	0.0142829
873.215	0.0142461
873.293	0.0142760
873.371	0.0141550
873.450	0.0144094
873.528	0.0143972
873.606	0.0142860
873.684	0.0143778
873.762	0.0143312
873.840	0.0145277
873.918	0.0144801
873.996	0.0143305
874.075	0.0142728
874.153	0.0144548
874.231	0.0144370
874.309	0.0144459
874.387	0.0144044
874.465	0.0143866
874.543	0.0144217
874.621	0.0142561
874.700	0.0143880
874.778	0.0142632
874.856	0.0142260
874.934	0.0142980
875.012	0.0142725
875.090	0.0141814
875.168	0.0142259
875.246	0.0141476
875.325	0.0142489
875.403	0.0143546
875.481	0.0142106
875.559	0.0143496
875.637	0.0142786
875.715	0.0143163
875.793	0.0142705
875.871	0.0145252
875.950	0.0143741
876.028	0.0143241
876.106	0.0144540
876.184	0.0143865
876.262	0.0143898
876.340	0.0143199
876.418	0.0144296
876.496	0.0143262
876.575	0.0143680
876.653	0.0142688
876.731	0.0142520
876.809	0.0143008
876.887	0.0143210
876.965	0.0143855
877.043	0.0142786
877.121	0.0142976
877.200	0.0142359
877.278	0.0142369
877.356	0.0143185
877.434	0.0142939
877.512	0.0143199
877.590	0.0143685
877.668	0.0142086
877.746	0.0142802
877.825	0.0144144
877.903	0.0144066
877.981	0.0144866
878.059	0.0143259
878.137	0.0143037
878.215	0.0143892
878.293	0.0143221
878.371	0.0144298
878.450	0.0144757
878.528	0.0144749
878.606	0.0144794
878.684	0.0144155
878.762	0.0143704
878.840	0.0142491
878.918	0.0142776
878.996	0.0143029
879.075	0.0143237
879.153	0.0143243
879.231	0.0143833
879.309	0.0142549
879.387	0.0142522
879.465	0.0142635
879.543	0.0141882
879.621	0.0143672
879.700	0.0143643
879.778	0.0143130
879.856	0.0142606
879.934	0.0143214
880.012	0.0144389
880.090	0.0143641
880.168	0.0143909
880.246	0.0142662
880.325	0.0143465
880.403	0.0142768
880.481	0.0144660
880.559	0.0144830
880.637	0.0144438
880.715	0.0143262
880.793	0.0143948
880.871	0.0144128
880.950	0.0144415
881.028	0.0144257
881.106	0.0141782
881.184	0.0145480
881.262	0.0143271
881.340	0.0144297
881.418	0.0144235
881.496	0.0142577
881.575	0.0143152
881.653	0.0143457
881.731	0.0144845
881.809	0.0143552
881.887	0.0143234
881.965	0.0142958
882.043	0.0143195
882.121	0.0143912
882.200	0.0142783
882.278	0.0143768
882.356	0.0143249
882.434	0.0143407
882.512	0.0143439
882.590	0.0142966
882.668	0.0143349
882.746	0.0143194
882.825	0.0144051
882.903	0.0144082
882.981	0.0143557
883.059	0.0143902
883.137	0.0145123
883.215	0.0143951
883.293	0.0143610
883.371	0.0144437
883.450	0.0145613
883.528	0.0145584
883.606	0.0145358
883.684	0.0144063
883.762	0.0143403
883.840	0.0143561
883.918	0.0143728
883.996	0.0143856
884.075	0.0144395
884.153	0.0143617
884.231	0.0144237
884.309	0.0144232
884.387	0.0142611
884.465	0.0143729
884.543	0.0143092
884.621	0.0143939
884.700	0.0143117
884.778	0.0142583
884.856	0.0144092
884.934	0.0144204
885.012	0.0142338
885.090	0.0143828
885.168	0.0143394
885.246	0.0143251
885.325	0.0143220
885.403	0.0142738
885.481	0.0143165
885.559	0.0143774
885.637	0.0143060
885.715	0.0143474
885.793	0.0143484
885.871	0.0143882
885.950	0.0144362
886.028	0.0143514
886.106	0.0143993
886.184	0.0144000
886.262	0.0143352
886.340	0.0143521
886.418	0.0144265
886.496	0.0143034
886.575	0.0143601
886.653	0.0142876
886.731	0.0142997
886.809	0.0143327
886.887	0.0143275
886.965	0.0142270
887.043	0.0143112
887.121	0.0143742
887.200	0.0143600
887.278	0.0142728
887.356	0.0143055
887.434	0.0144250
887.512	0.0143819
887.590	0.0143523
887.668	0.0143551
887.746	0.0143457
887.825	0.0142866
887.903	0.0144661
887.981	0.0143624
888.059	0.0143672
888.137	0.0144651
888.215	0.0143561
888.293	0.0144601
888.371	0.0143508
888.450	0.0143069
888.528	0.0143956
888.606	0.0141855
888.684	0.0144423
888.762	0.0145559
888.840	0.0143903
888.918	0.0143908
888.996	0.0144916
889.075	0.0143319
889.153	0.0142268
889.231	0.0143382
889.309	0.0143850
889.387	0.0143019
889.465	0.0143173
889.543	0.0142708
889.621	0.0143438
889.700	0.0142776
889.778	0.0142500
889.856	0.0142428
889.934	0.0142519
890.012	0.0142442
890.090	0.0142685
890.168	0.0143661
890.246	0.0144272
890.325	0.0143678
890.403	0.0143292
890.481	0.0143309
890.559	0.0144353
890.637	0.0144361
890.715	0.0142761
890.793	0.0144466
890.871	0.0143580
890.950	0.0144804
891.028	0.0144071
891.106	0.0142719
891.184	0.0145022
891.262	0.0143407
891.340	0.0143694
891.418	0.0142590
891.496	0.0141792
891.575	0.0143481
891.653	0.0143027
891.731	0.0143594
891.809	0.0143025
891.887	0.0142391
891.965	0.0141753
892.043	0.0142726
892.121	0.0142773
892.200	0.0142647
892.278	0.0142284
892.356	0.0142213
892.434	0.0144006
892.512	0.0143230
892.590	0.0143559
892.668	0.0145000
892.746	0.0144321
892.825	0.0143401
892.903	0.0144038
892.981	0.0143417
893.059	0.0143707
893.137	0.0143802
893.215	0.0145038
893.293	0.0143374
893.371	0.0142031
893.450	0.0142818
893.528	0.0143365
893.606	0.0143380
893.684	0.0142641
893.762	0.0142485
893.840	0.0142986
893.918	0.0142429
893.996	0.0142657
894.075	0.0142417
894.153	0.0143175
894.231	0.0143804
894.309	0.0142535
894.387	0.0143251
894.465	0.0144277
894.543	0.0144788
894.621	0.0142311
894.700	0.0142722
894.778	0.0143274
894.856	0.0142446
894.934	0.0143111
895.012	0.0143260
895.090	0.0143449
895.168	0.0143956
895.246	0.0144389
895.325	0.0143877
895.403	0.0143518
895.481	0.0143643
895.559	0.0142429
895.637	0.0142247
895.715	0.0144511
895.793	0.0143262
895.871	0.0143475
895.950	0.0142899
896.028	0.0144564
896.106	0.0143674
896.184	0.0142467
896.262	0.0142394
896.340	0.0143745
896.418	0.0142085
896.496	0.0143735
896.575	0.0144038
896.653	0.0143185
896.731	0.0143622
896.809	0.0143159
896.887	0.0144508
896.965	0.0143890
897.043	0.0141885
897.121	0.0143362
897.200	0.0144025
897.278	0.0143737
897.356	0.0142691
897.434	0.0143378
897.512	0.0142218
897.590	0.0142770
897.668	0.0142591
897.746	0.0142358
897.825	0.0141862
897.903	0.0143377
897.981	0.0142784
898.059	0.0142386
898.137	0.0143304
898.215	0.0143334
898.293	0.0143272
898.371	0.0142636
898.450	0.0144360
898.528	0.0144080
898.606	0.0143826
898.684	0.0143826
898.762	0.0144110
898.840	0.0142560
898.918	0.0143093
898.996	0.0141218
899.075	0.0140890
899.153	0.0142501
899.231	0.0141467
899.309	0.0142322
899.387	0.0142610
899.465	0.0143023
899.543	0.0141891
899.621	0.0140778
899.700	0.0142657
899.778	0.0144939
899.856	0.0143481
899.934	0.0145454
900.012	0.0144740
900.090	0.0143710
900.168	0.0145102
900.246	0.0144801
900.325	0.0146242
900.403	0.0145531
900.481	0.0144515
900.559	0.0143822
900.637	0.0143263
900.715	0.0141570
900.793	0.0141213
900.871	0.0140449
900.950	0.0141212
901.028	0.0140298
901.106	0.0140364
901.184	0.0140039
901.262	0.0141559
901.340	0.0142500
901.418	0.0142576
901.496	0.0143017
901.575	0.0143713
901.653	0.0143954
901.731	0.0145596
901.809	0.0145152
901.887	0.0145664
901.965	0.0144524
902.043	0.0143963
902.121	0.0145316
902.200	0.0145619
902.278	0.0145474
902.356	0.0144817
902.434	0.0143310
902.512	0.0144147
902.590	0.0143031
902.668	0.0142107
902.746	0.0143755
902.825	0.0143672
902.903	0.0143179
902.981	0.0142854
903.059	0.0144781
903.137	0.0142919
903.215	0.0142051
903.293	0.0144177
903.371	0.0143716
903.450	0.0142693
903.528	0.0142953
903.606	0.0143021
903.684	0.0143147
903.762	0.0143483
903.840	0.0143309
903.918	0.0142226
903.996	0.0142921
904.075	0.0142793
904.153	0.0143545
904.231	0.0144056
904.309	0.0144569
904.387	0.0145554
904.465	0.0145108
904.543	0.0145240
904.621	0.0146799
904.700	0.0146304
904.778	0.0146667
904.856	0.0146269
904.934	0.0146452
905.012	0.0145335
905.090	0.0145632
905.168	0.0144458
905.246	0.0143982
905.325	0.0143376
905.403	0.0141178
905.481	0.0142451
905.559	0.0141871
905.637	0.0139529
905.715	0.0139661
905.793	0.0140381
905.871	0.0139664
905.950	0.0140150
906.028	0.0140019
906.106	0.0141096
906.184	0.0142741
906.262	0.0143597
906.340	0.0145676
906.418	0.0145029
906.496	0.0144970
906.575	0.0146282
906.653	0.0146514
906.731	0.0145666
906.809	0.0146288
906.887	0.0145403
906.965	0.0145349
907.043	0.0144323
907.121	0.0144279
907.200	0.0142096
907.278	0.0140742
907.356	0.0140889
907.434	0.0139740
907.512	0.0138707
907.590	0.0140010
907.668	0.0141970
907.746	0.0140460
907.825	0.0139828
907.903	0.0141314
907.981	0.0142875
908.059	0.0143169
908.137	0.0145893
908.215	0.0146450
908.293	0.0146305
908.371	0.0147076
908.450	0.0148313
908.528	0.0147858
908.606	0.0147037
908.684	0.0147557
908.762	0.0145761
908.840	0.0145699
908.918	0.0143535
908.996	0.0142682
909.075	0.0142345
909.153	0.0142048
909.231	0.0138876
909.309	0.0138181
909.387	0.0139273
909.465	0.0139439
909.543	0.0139542
909.621	0.0140738
909.700	0.0140081
909.778	0.0142171
909.856	0.0142824
909.934	0.0144269
910.012	0.0144304
910.090	0.0146098
910.168	0.0145988
910.246	0.0147398
910.325	0.0147994
910.403	0.0148174
910.481	0.0147007
910.559	0.0147615
910.637	0.0148085
910.715	0.0145802
910.793	0.0145784
910.871	0.0144971
910.950	0.0144407
911.028	0.0141676
911.106	0.0142091
911.184	0.0139847
911.262	0.0141013
911.340	0.0138921
911.418	0.0138950
911.496	0.0139633
911.575	0.0140352
911.653	0.0139719
911.731	0.0141308
911.809	0.0141376
911.887	0.0142262
911.965	0.0143505
912.043	0.0143681
912.121	0.0143565
912.200	0.0144349
912.278	0.0145036
912.356	0.0146572
912.434	0.0147600
912.512	0.0146198
912.590	0.0147990
912.668	0.0147539
912.746	0.0146506
912.825	0.0146008
912.903	0.0147012
912.981	0.0145832
913.059	0.0144650
913.137	0.0143319
913.215	0.0143678
913.293	0.0141545
913.371	0.0142165
913.450	0.0142513
913.528	0.0141120
913.606	0.0141595
913.684	0.0140661
913.762	0.0140196
913.840	0.0140369
913.918	0.0140484
913.996	0.0141974
914.075	0.0142975
914.153	0.0143771
914.231	0.0144450
914.309	0.0145147
914.387	0.0143798
914.465	0.0146361
914.543	0.0146416
914.621	0.0148239
914.700	0.0145578
914.778	0.0147227
914.856	0.0146493
914.934	0.0146870
915.012	0.0146350
915.090	0.0145584
915.168	0.0145560
915.246	0.0143665
915.325	0.0143273
915.403	0.0142896
915.481	0.0141891
915.559	0.0142321
915.637	0.0141055
915.715	0.0141156
915.793	0.0141031
915.871	0.0141633
915.950	0.0141165
916.028	0.0142940
916.106	0.0142401
916.184	0.0143024
916.262	0.0143835
916.340	0.0144432
916.418	0.0145168
916.496	0.0145308
916.575	0.0144437
916.653	0.0145723
916.731	0.0145157
916.809	0.0145133
916.887	0.0145203
916.965	0.0143906
917.043	0.0145211
917.121	0.0143219
917.200	0.0143906
917.278	0.0142304
917.356	0.0141518
917.434	0.0142221
917.512	0.0142900
917.590	0.0141621
917.668	0.0143051
917.746	0.0142743
917.825	0.0143569
917.903	0.0143031
917.981	0.0143320
918.059	0.0144446
918.137	0.0143678
918.215	0.0145187
918.293	0.0145544
918.371	0.0143806
918.450	0.0146078
918.528	0.0145145
918.606	0.0145249
918.684	0.0144761
918.762	0.0143414
918.840	0.0143855
918.918	0.0144311
918.996	0.0144308
919.075	0.0143439
919.153	0.0142390
919.231	0.0143983
919.309	0.0143283
919.387	0.0142744
919.465	0.0142152
919.543	0.0141642
919.621	0.0141647
919.700	0.0144005
919.778	0.0142057
919.856	0.0142188
919.934	0.0142519
920.012	0.0141671
920.090	0.0143261
920.168	0.0142448
920.246	0.0144277
920.325	0.0144146
920.403	0.0147027
920.481	0.0144682
920.559	0.0144505
920.637	0.0145872
920.715	0.0144922
920.793	0.0145425
920.871	0.0144779
920.950	0.0145085
921.028	0.0144949
921.106	0.0144428
921.184	0.0143702
921.262	0.0144502
921.340	0.0144073
921.418	0.0142130
921.496	0.0143288
921.575	0.0141939
921.653	0.0141008
921.731	0.0140951
921.809	0.0141216
921.887	0.0142400
921.965	0.0142308
922.043	0.0141972
922.121	0.0143159
922.200	0.0143640
922.278	0.0141965
922.356	0.0143294
922.434	0.0144470
922.512	0.0145138
922.590	0.0144556
922.668	0.0144454
922.746	0.0146170
922.825	0.0145608
922.903	0.0146695
922.981	0.0146290
923.059	0.0146178
923.137	0.0145210
923.215	0.0145589
923.293	0.0146452
923.371	0.0145930
923.450	0.0145138
923.528	0.0143590
923.606	0.0144137
923.684	0.0143201
923.762	0.0143214
923.840	0.0144284
923.918	0.0142085
923.996	0.0143340
924.075	0.0142165
924.153	0.0141972
924.231	0.0143046
924.309	0.0143383
924.387	0.0141483
924.465	0.0142743
924.543	0.0142831
924.621	0.0143993
924.700	0.0143537
924.778	0.0144077
924.856	0.0145451
924.934	0.0145169
925.012	0.0145583
925.090	0.0143829
925.168	0.0146669
925.246	0.0146944
925.325	0.0146973
925.403	0.0146291
925.481	0.0147598
925.559	0.0145271
925.637	0.0145329
925.715	0.0144913
925.793	0.0146239
925.871	0.0144537
925.950	0.0143503
926.028	0.0142319
926.106	0.0140826
926.184	0.0143034
926.262	0.0142938
926.340	0.0142586
926.418	0.0141779
926.496	0.0141715
926.575	0.0143420
926.653	0.0144430
926.731	0.0142465
926.809	0.0142597
926.887	0.0144318
926.965	0.0145094
927.043	0.0144067
927.121	0.0143920
927.200	0.0146075
927.278	0.0143557
927.356	0.0144923
927.434	0.0144443
927.512	0.0144169
927.590	0.0144374
927.668	0.0143233
927.746	0.0145860
927.825	0.0145261
927.903	0.0145274
927.981	0.0143986
928.059	0.0143990
928.137	0.0143024
928.215	0.0143051
928.293	0.0143669
928.371	0.0143147
928.450	0.0144058
928.528	0.0144447
928.606	0.0143573
928.684	0.0142860
928.762	0.0143084
928.840	0.0143124
928.918	0.0144115
928.996	0.0144434
929.075	0.0144310
929.153	0.0144135
929.231	0.0144444
929.309	0.0144773
929.387	0.0145193
929.465	0.0143368
929.543	0.0145044
929.621	0.0145595
929.700	0.0144608
929.778	0.0143469
929.856	0.0144038
929.934	0.0143725
930.012	0.0144259
930.090	0.0143764
930.168	0.0143579
930.246	0.0143060
930.325	0.0143757
930.403	0.0143007
930.481	0.0143208
930.559	0.0143329
930.637	0.0143652
930.715	0.0143691
930.793	0.0145374
930.871	0.0144418
930.950	0.0144208
931.028	0.0144643
931.106	0.0144881
931.184	0.0145443
931.262	0.0143224
931.340	0.0143874
931.418	0.0145712
931.496	0.0143401
931.575	0.0144141
931.653	0.0143244
931.731	0.0144195
931.809	0.0144727
931.887	0.0143085
931.965	0.0143107
932.043	0.0143480
932.121	0.0144464
932.200	0.0144311
932.278	0.0144997
932.356	0.0144896
932.434	0.0142786
932.512	0.0145055
932.590	0.0144445
932.668	0.0144798
932.746	0.0144663
932.825	0.0144027
932.903	0.0145982
932.981	0.0144529
933.059	0.0143016
933.137	0.0143840
933.215	0.0143655
933.293	0.0143208
933.371	0.0142078
933.450	0.0143626
933.528	0.0144357
933.606	0.0142265
933.684	0.0142272
933.762	0.0141357
933.840	0.0141418
933.918	0.0142158
933.996	0.0143178
934.075	0.0141593
934.153	0.0143169
934.231	0.0144648
934.309	0.0144166
934.387	0.0144457
934.465	0.0145068
934.543	0.0145441
934.621	0.0146368
934.700	0.0146600
934.778	0.0144555
934.856	0.0146230
934.934	0.0145078
935.012	0.0144825
935.090	0.0143118
935.168	0.0144273
935.246	0.0143434
935.325	0.0142239
935.403	0.0143189
935.481	0.0142783
935.559	0.0142056
935.637	0.0141586
935.715	0.0142087
935.793	0.0142805
935.871	0.0141741
935.950	0.0141930
936.028	0.0142295
936.106	0.0141563
936.184	0.0143648
936.262	0.0141509
936.340	0.0143795
936.418	0.0142406
936.496	0.0145365
936.575	0.0144838
936.653	0.0144783
936.731	0.0145945
936.809	0.0144359
936.887	0.0146058
936.965	0.0146304
937.043	0.0146143
937.121	0.0147472
937.200	0.0146336
937.278	0.0146839
937.356	0.0144017
937.434	0.0144389
937.512	0.0143586
937.590	0.0143767
937.668	0.0143466
937.746	0.0143481
937.825	0.0140856
937.903	0.0141452
937.981	0.0142286
938.059	0.0142180
938.137	0.0142012
938.215	0.0140948
938.293	0.0141940
938.371	0.0142316
938.450	0.0143880
938.528	0.0142793
938.606	0.0143120
938.684	0.0144810
938.762	0.0145338
938.840	0.0145076
938.918	0.0144423
938.996	0.0144835
939.075	0.0144330
939.153	0.0144809
939.231	0.0145401
939.309	0.0144432
939.387	0.0144569
939.465	0.0145932
939.543	0.0142995
939.621	0.0143961
939.700	0.0144569
939.778	0.0144251
939.856	0.0143640
939.934	0.0144601
940.012	0.0143912
940.090	0.0142683
940.168	0.0144427
940.246	0.0144805
940.325	0.0143320
940.403	0.0142780
940.481	0.0142618
940.559	0.0142980
940.637	0.0142804
940.715	0.0143430
940.793	0.0142618
940.871	0.0143965
940.950	0.0144011
941.028	0.0142974
941.106	0.0143446
941.184	0.0142748
941.262	0.0144498
941.340	0.0144425
941.418	0.0144490
941.496	0.0144427
941.575	0.0143018
941.653	0.0144476
941.731	0.0143993
941.809	0.0143816
941.887	0.0143692
941.965	0.0144361
942.043	0.0145374
942.121	0.0144210
942.200	0.0143878
942.278	0.0143652
942.356	0.0144656
942.434	0.0143298
942.512	0.0143993
942.590	0.0143570
942.668	0.0143413
942.746	0.0142799
942.825	0.0141103
942.903	0.0142087
942.981	0.0143200
943.059	0.0141616
943.137	0.0143845
943.215	0.0144292
943.293	0.0142031
943.371	0.0143280
943.450	0.0145114
943.528	0.0143694
943.606	0.0145194
943.684	0.0145036
943.762	0.0143728
943.840	0.0144418
943.918	0.0144027
943.996	0.0145279
944.075	0.0145861
944.153	0.0144890
944.231	0.0144568
944.309	0.0143655
944.387	0.0145301
944.465	0.0144897
944.543	0.0144259
944.621	0.0144946
944.700	0.0144931
944.778	0.0142759
944.856	0.0145798
944.934	0.0144286
945.012	0.0142604
945.090	0.0144022
945.168	0.0143771
945.246	0.0144007
945.325	0.0142515
945.403	0.0143240
945.481	0.0142978
945.559	0.0143113
945.637	0.0143819
945.715	0.0144072
945.793	0.0141977
945.871	0.0143462
945.950	0.0143021
946.028	0.0143024
946.106	0.0144008
946.184	0.0144306
946.262	0.0142791
946.340	0.0143463
946.418	0.0143115
946.496	0.0144030
946.575	0.0145810
946.653	0.0146027
946.731	0.0146365
946.809	0.0145486
946.887	0.0146014
946.965	0.0145005
947.043	0.0145306
947.121	0.0144401
947.200	0.0144118
947.278	0.0145060
947.356	0.0145314
947.434	0.0144808
947.512	0.0145098
947.590	0.0144363
947.668	0.0144554
947.746	0.0144869
947.825	0.0142515
947.903	0.0143056
947.981	0.0143800
948.059	0.0143110
948.137	0.0143400
948.215	0.0144076
948.293	0.0142829
948.371	0.0142923
948.450	0.0144426
948.528	0.0142840
948.606	0.0144151
948.684	0.0145182
948.762	0.0144126
948.840	0.0144803
948.918	0.0143493
948.996	0.0143195
949.075	0.0145491
949.153	0.0144943
949.231	0.0145555
949.309	0.0143863
949.387	0.0144607
949.465	0.0144733
949.543	0.0143902
949.621	0.0144392
949.700	0.0144620
949.778	0.0144092
949.856	0.0144658
949.934	0.0143865
950.012	0.0143952
950.090	0.0143229
950.168	0.0143972
950.246	0.0142931
950.325	0.0142105
950.403	0.0142445
950.481	0.0142464
950.559	0.0142375
950.637	0.0142518
950.715	0.0143450
950.793	0.0143156
950.871	0.0142140
950.950	0.0143402
951.028	0.0142968
951.106	0.0143944
951.184	0.0143939
951.262	0.0142839
951.340	0.0142956
951.418	0.0144994
951.496	0.0144237
951.575	0.0144789
951.653	0.0143224
951.731	0.0145762
951.809	0.0145529
951.887	0.0144631
951.965	0.0144865
952.043	0.0144442
952.121	0.0144254
952.200	0.0144643
952.278	0.0143316
952.356	0.0143414
952.434	0.0144370
952.512	0.0143506
952.590	0.0142906
952.668	0.0143523
952.746	0.0144243
952.825	0.0143845
952.903	0.0143055
952.981	0.0141409
953.059	0.0142441
953.137	0.0143784
953.215	0.0143099
953.293	0.0142955
953.371	0.0141133
953.450	0.0143800
953.528	0.0144150
953.606	0.0143924
953.684	0.0143501
953.762	0.0143467
953.840	0.0143243
953.918	0.0144956
953.996	0.0145856
954.075	0.0144626
954.153	0.0143356
954.231	0.0144646
954.309	0.0146513
954.387	0.0144268
954.465	0.0143961
954.543	0.0144855
954.621	0.0144374
954.700	0.0144050
954.778	0.0142609
954.856	0.0143945
954.934	0.0144227
955.012	0.0142174
955.090	0.0141357
955.168	0.0143032
955.246	0.0142231
955.325	0.0141946
955.403	0.0141604
955.481	0.0142533
955.559	0.0144342
955.637	0.0142476
955.715	0.0142838
955.793	0.0142534
955.871	0.0143317
955.950	0.0143929
956.028	0.0142433
956.106	0.0143588
956.184	0.0142686
956.262	0.0144616
956.340	0.0144000
956.418	0.0142867
956.496	0.0144780
956.575	0.0144529
956.653	0.0143805
956.731	0.0144737
956.809	0.0145130
956.887	0.0145314
956.965	0.0144276
957.043	0.0144122
957.121	0.0145013
957.200	0.0144697
957.278	0.0143153
957.356	0.0144842
957.434	0.0143871
957.512	0.0143980
957.590	0.0143745
957.668	0.0143856
957.746	0.0145171
957.825	0.0143452
957.903	0.0144463
957.981	0.0143905
958.059	0.0144642
958.137	0.0143367
958.215	0.0143338
958.293	0.0143822
958.371	0.0143544
958.450	0.0143553
958.528	0.0142960
958.606	0.0142538
958.684	0.0142609
958.762	0.0143318
958.840	0.0143130
958.918	0.0142287
958.996	0.0144460
959.075	0.0143514
959.153	0.0143560
959.231	0.0144456
959.309	0.0142280
959.387	0.0142953
959.465	0.0144246
959.543	0.0144489
959.621	0.0143837
959.700	0.0143993
959.778	0.0144476
959.856	0.0143825
959.934	0.0144247
960.012	0.0144258
960.090	0.0143653
960.168	0.0143172
960.246	0.0143426
960.325	0.0143549
960.403	0.0143978
960.481	0.0142210
960.559	0.0142385
960.637	0.0143042
960.715	0.0141665
960.793	0.0143181
960.871	0.0143033
960.950	0.0142042
961.028	0.0142367
961.106	0.0142251
961.184	0.0141257
961.262	0.0141921
961.340	0.0141325
961.418	0.0142695
961.496	0.0142020
961.575	0.0142461
961.653	0.0143472
961.731	0.0142415
961.809	0.0142702
961.887	0.0141927
961.965	0.0144630
962.043	0.0144778
962.121	0.0144543
962.200	0.0144750
962.278	0.0144131
962.356	0.0145085
962.434	0.0144392
962.512	0.0144929
962.590	0.0144868
962.668	0.0143786
962.746	0.0143523
962.825	0.0143604
962.903	0.0143770
962.981	0.0142403
963.059	0.0144164
963.137	0.0143208
963.215	0.0142287
963.293	0.0141089
963.371	0.0142771
963.450	0.0142602
963.528	0.0143724
963.606	0.0143983
963.684	0.0142938
963.762	0.0141673
963.840	0.0143125
963.918	0.0144496
963.996	0.0144735
964.075	0.0144129
964.153	0.0144781
964.231	0.0142944
964.309	0.0144735
964.387	0.0144685
964.465	0.0143191
964.543	0.0145062
964.621	0.0143674
964.700	0.0144481
964.778	0.0143198
964.856	0.0144067
964.934	0.0144676
965.012	0.0143378
965.090	0.0143439
965.168	0.0142924
965.246	0.0142970
965.325	0.0143691
965.403	0.0142869
965.481	0.0143654
965.559	0.0143122
965.637	0.0141690
965.715	0.0143085
965.793	0.0144924
965.871	0.0144238
965.950	0.0144056
966.028	0.0142835
966.106	0.0143450
966.184	0.0143410
966.262	0.0144666
966.340	0.0143629
966.418	0.0142941
966.496	0.0141985
966.575	0.0143539
966.653	0.0143149
966.731	0.0141863
966.809	0.0141605
966.887	0.0142429
966.965	0.0143454
967.043	0.0143446
967.121	0.0142535
967.200	0.0142422
967.278	0.0144345
967.356	0.0143732
967.434	0.0142036
967.512	0.0143605
967.590	0.0145453
967.668	0.0143902
967.746	0.0143905
967.825	0.0144206
967.903	0.0144642
967.981	0.0143518
968.059	0.0145304
968.137	0.0145207
968.215	0.0144096
968.293	0.0142849
968.371	0.0143578
968.450	0.0144474
968.528	0.0143445
968.606	0.0143689
968.684	0.0142617
968.762	0.0141781
968.840	0.0142428
968.918	0.0143240
968.996	0.0141812
969.075	0.0142686
969.153	0.0142439
969.231	0.0144427
969.309	0.0143925
969.387	0.0143478
969.465	0.0144239
969.543	0.0144390
969.621	0.0143683
969.700	0.0144897
969.778	0.0144002
969.856	0.0143295
969.934	0.0144118
970.012	0.0144183
970.090	0.0144127
970.168	0.0145750
970.246	0.0143874
970.325	0.0142336
970.403	0.0143461
970.481	0.0143517
970.559	0.0143262
970.637	0.0144676
970.715	0.0143162
970.793	0.0142835
970.871	0.0143916
970.950	0.0143280
971.028	0.0143031
971.106	0.0142932
971.184	0.0143527
971.262	0.0142883
971.340	0.0142648
971.418	0.0143090
971.496	0.0141943
971.575	0.0141984
971.653	0.0144011
971.731	0.0144191
971.809	0.0142717
971.887	0.0143498
971.965	0.0143752
972.043	0.0143628
972.121	0.0144924
972.200	0.0143280
972.278	0.0144203
972.356	0.0145696
972.434	0.0144424
972.512	0.0144698
972.590	0.0143804
972.668	0.0143204
972.746	0.0143036
972.825	0.0143787
972.903	0.0144289
972.981	0.0141788
973.059	0.0142814
973.137	0.0142400
973.215	0.0141198
973.293	0.0143485
973.371	0.0141003
973.450	0.0142471
973.528	0.0143047
973.606	0.0141963
973.684	0.0142301
973.762	0.0144350
973.840	0.0143295
973.918	0.0142292
973.996	0.0142860
974.075	0.0143642
974.153	0.0144205
974.231	0.0143634
974.309	0.0143147
974.387	0.0145570
974.465	0.0144318
974.543	0.0144504
974.621	0.0143563
974.700	0.0144157
974.778	0.0142867
974.856	0.0143143
974.934	0.0143290
975.012	0.0142083
975.090	0.0143517
975.168	0.0142870
975.246	0.0143069
975.325	0.0143013
975.403	0.0143066
975.481	0.0143254
975.559	0.0143011
975.637	0.0142834
975.715	0.0144125
975.793	0.0143650
975.871	0.0144648
975.950	0.0144304
976.028	0.0143229
976.106	0.0143098
976.184	0.0145541
976.262	0.0143967
976.340	0.0144318
976.418	0.0144073
976.496	0.0145199
976.575	0.0146310
976.653	0.0144542
976.731	0.0145517
976.809	0.0144389
976.887	0.0144503
976.965	0.0144517
977.043	0.0143188
977.121	0.0144901
977.200	0.0143655
977.278	0.0143919
977.356	0.0144408
977.434	0.0144059
977.512	0.0144532
977.590	0.0145120
977.668	0.0143427
977.746	0.0143848
977.825	0.0142786
977.903	0.0142899
977.981	0.0142466
978.059	0.0143242
978.137	0.0142889
978.215	0.0142496
978.293	0.0145197
978.371	0.0144390
978.450	0.0143909
978.528	0.0143571
978.606	0.0142236
978.684	0.0143199
978.762	0.0143527
978.840	0.0142957
978.918	0.0144305
978.996	0.0143273
979.075	0.0142867
979.153	0.0142577
979.231	0.0143461
979.309	0.0143959
979.387	0.0144536
979.465	0.0143893
979.543	0.0143926
979.621	0.0142989
979.700	0.0143285
979.778	0.0143980
979.856	0.0143167
979.934	0.0143728
980.012	0.0144120
980.090	0.0144183
980.168	0.0142475
980.246	0.0142757
980.325	0.0143627
980.403	0.0142313
980.481	0.0140645
980.559	0.0143428
980.637	0.0142734
980.715	0.0143658
980.793	0.0142723
980.871	0.0143122
980.950	0.0142709
981.028	0.0142430
981.106	0.0142875
981.184	0.0144109
981.262	0.0142988
981.340	0.0142492
981.418	0.0143682
981.496	0.0143329
981.575	0.0143247
981.653	0.0144749
981.731	0.0144070
981.809	0.0143024
981.887	0.0143597
981.965	0.0142194
982.043	0.0144213
982.121	0.0143501
982.200	0.0142623
982.278	0.0142911
982.356	0.0143460
982.434	0.0142627
982.512	0.0142905
982.590	0.0142147
982.668	0.0143013
982.746	0.0144236
982.825	0.0143929
982.903	0.0143301
982.981	0.0142629
983.059	0.0142094
983.137	0.0142782
983.215	0.0143239
983.293	0.0143280
983.371	0.0142805
983.450	0.0142015
983.528	0.0142942
983.606	0.0143600
983.684	0.0143494
983.762	0.0142248
983.840	0.0142853
983.918	0.0143443
983.996	0.0143931
984.075	0.0144207
984.153	0.0144206
984.231	0.0143719
984.309	0.0144712
984.387	0.0144457
984.465	0.0143901
984.543	0.0144909
984.621	0.0143825
984.700	0.0143886
984.778	0.0142982
984.856	0.0143436
984.934	0.0142418
985.012	0.0141798
985.090	0.0144045
985.168	0.0142521
985.246	0.0141277
985.325	0.0142715
985.403	0.0142419
985.481	0.0143287
985.559	0.0141869
985.637	0.0143391
985.715	0.0143085
985.793	0.0142542
985.871	0.0142739
985.950	0.0142520
986.028	0.0143452
986.106	0.0144424
986.184	0.0143733
986.262	0.0142812
986.340	0.0144468
986.418	0.0143913
986.496	0.0144341
986.575	0.0144930
986.653	0.0143498
986.731	0.0142267
986.809	0.0144292
986.887	0.0143890
986.965	0.0144202
987.043	0.0143552
987.121	0.0143283
987.200	0.0143160
987.278	0.0143041
987.356	0.0144145
987.434	0.0143653
987.512	0.0142396
987.590	0.0142720
987.668	0.0141798
987.746	0.0142358
987.825	0.0144021
987.903	0.0142207
987.981	0.0143102
988.059	0.0143651
988.137	0.0142651
988.215	0.0143168
988.293	0.0144526
988.371	0.0142969
988.450	0.0142242
988.528	0.0143611
988.606	0.0143488
988.684	0.0145116
988.762	0.0144926
988.840	0.0143166
988.918	0.0144949
988.996	0.0144118
989.075	0.0144964
989.153	0.0144105
989.231	0.0144822
989.309	0.0144483
989.387	0.0143536
989.465	0.0142424
989.543	0.0143717
989.621	0.0142437
989.700	0.0142599
989.778	0.0141935
989.856	0.0144078
989.934	0.0142191
990.012	0.0142749
990.090	0.0142001
990.168	0.0142760
990.246	0.0143212
990.325	0.0142422
990.403	0.0143267
990.481	0.0143805
990.559	0.0143796
990.637	0.0142980
990.715	0.0144246
990.793	0.0144421
990.871	0.0143282
990.950	0.0144583
991.028	0.0144275
991.106	0.0144333
991.184	0.0144142
991.262	0.0144128
991.340	0.0143092
991.418	0.0143677
991.496	0.0143346
991.575	0.0142857
991.653	0.0143472
991.731	0.0144071
991.809	0.0142990
991.887	0.0143058
991.965	0.0143967
992.043	0.0143009
992.121	0.0141581
992.200	0.0142931
992.278	0.0143931
992.356	0.0144019
992.434	0.0143456
992.512	0.0143647
992.590	0.0143211
992.668	0.0144061
992.746	0.0143439
992.825	0.0144207
992.903	0.0142953
992.981	0.0143298
993.059	0.0143880
993.137	0.0143654
993.215	0.0144604
993.293	0.0144326
993.371	0.0143695
993.450	0.0145297
993.528	0.0143479
993.606	0.0143453
993.684	0.0143284
993.762	0.0144379
993.840	0.0143605
993.918	0.0143597
993.996	0.0143957
994.075	0.0142381
994.153	0.0144169
994.231	0.0143037
994.309	0.0144112
994.387	0.0142791
994.465	0.0143242
994.543	0.0144311
994.621	0.0143188
994.700	0.0143898
994.778	0.0142733
994.856	0.0143573
994.934	0.0143212
995.012	0.0141982
995.090	0.0142308
995.168	0.0145564
995.246	0.0143871
995.325	0.0144036
995.403	0.0144548
995.481	0.0143192
995.559	0.0143465
995.637	0.0143135
995.715	0.0143589
995.793	0.0145539
995.871	0.0144127
995.950	0.0144595
996.028	0.0144222
996.106	0.0144463
996.184	0.0144116
996.262	0.0143224
996.340	0.0144352
996.418	0.0143214
996.496	0.0145330
996.575	0.0144647
996.653	0.0144354
996.731	0.0144220
996.809	0.0143575
996.887	0.0143185
996.965	0.0143690
997.043	0.0144717
997.121	0.0143074
997.200	0.0143367
997.278	0.0143414
997.356	0.0142232
997.434	0.0142167
997.512	0.0144151
997.590	0.0142452
997.668	0.0143036
997.746	0.0143172
997.825	0.0143604
997.903	0.0143959
997.981	0.0143977
998.059	0.0144468
998.137	0.0143900
998.215	0.0144914
998.293	0.0145821
998.371	0.0145567
998.450	0.0145550
998.528	0.0145652
998.606	0.0142852
998.684	0.0145191
998.762	0.0144015
998.840	0.0142942
998.918	0.0144386
