05/04/2022	21:04:42	Ver.	4.1	UNKNOWN
Optical Delay	678.996401	Delta X		0.078125	Sweeps	1	Scan Rate	0/0
Coordinates	Axis 1	NaN	Axis 2	NaN	Axis 3	NaN	Axis 4	NaN	Axis 5	NaN	Axis 6	0.000000
TX Power	0.000000	RX Power	0.000000

678.996	0.0140470
679.075	0.0140360
679.153	0.0140785
679.231	0.0140536
679.309	0.0138733
679.387	0.0141710
679.465	0.0140048
679.543	0.0141830
679.621	0.0141232
679.700	0.0141805
679.778	0.0140926
679.856	0.0140236
679.934	0.0141546
680.012	0.0141574
680.090	0.0140399
680.168	0.0141992
680.246	0.0141033
680.325	0.0140518
680.403	0.0140535
680.481	0.0142113
680.559	0.0141703
680.637	0.0141631
680.715	0.0140340
680.793	0.0139774
680.871	0.0139767
680.950	0.0140475
681.028	0.0141681
681.106	0.0140844
681.184	0.0140417
681.262	0.0139537
681.340	0.0139027
681.418	0.0140103
681.496	0.0142033
681.575	0.0140279
681.653	0.0139981
681.731	0.0141360
681.809	0.0141260
681.887	0.0140948
681.965	0.0142048
682.043	0.0141944
682.121	0.0140833
682.200	0.0140871
682.278	0.0141442
682.356	0.0140317
682.434	0.0141261
682.512	0.0140824
682.590	0.0141199
682.668	0.0140180
682.746	0.0141348
682.825	0.0139587
682.903	0.0140781
682.981	0.0140598
683.059	0.0141459
683.137	0.0140235
683.215	0.0140910
683.293	0.0139429
683.371	0.0140138
683.450	0.0141769
683.528	0.0140239
683.606	0.0142182
683.684	0.0141161
683.762	0.0141096
683.840	0.0139712
683.918	0.0140993
683.996	0.0141050
684.075	0.0140182
684.153	0.0141344
684.231	0.0140121
684.309	0.0141586
684.387	0.0142390
684.465	0.0141528
684.543	0.0142088
684.621	0.0141284
684.700	0.0140533
684.778	0.0140036
684.856	0.0140777
684.934	0.0140953
685.012	0.0141230
685.090	0.0141647
685.168	0.0140971
685.246	0.0140227
685.325	0.0140284
685.403	0.0141487
685.481	0.0141299
685.559	0.0141100
685.637	0.0139825
685.715	0.0141695
685.793	0.0140321
685.871	0.0140007
685.950	0.0140433
686.028	0.0140865
686.106	0.0142191
686.184	0.0140444
686.262	0.0141388
686.340	0.0140811
686.418	0.0140393
686.496	0.0140181
686.575	0.0140369
686.653	0.0140797
686.731	0.0140882
686.809	0.0141409
686.887	0.0140323
686.965	0.0139999
687.043	0.0141722
687.121	0.0140436
687.200	0.0140936
687.278	0.0139463
687.356	0.0140003
687.434	0.0139953
687.512	0.0139972
687.590	0.0140951
687.668	0.0139689
687.746	0.0141267
687.825	0.0140424
687.903	0.0139488
687.981	0.0139962
688.059	0.0139836
688.137	0.0140416
688.215	0.0141007
688.293	0.0139748
688.371	0.0140827
688.450	0.0139722
688.528	0.0140562
688.606	0.0139799
688.684	0.0140464
688.762	0.0139875
688.840	0.0139891
688.918	0.0140832
688.996	0.0139983
689.075	0.0141145
689.153	0.0140216
689.231	0.0140231
689.309	0.0140162
689.387	0.0139348
689.465	0.0141526
689.543	0.0139918
689.621	0.0141566
689.700	0.0142426
689.778	0.0141124
689.856	0.0140228
689.934	0.0142107
690.012	0.0139805
690.090	0.0140877
690.168	0.0140681
690.246	0.0140269
690.325	0.0140139
690.403	0.0140643
690.481	0.0141045
690.559	0.0140112
690.637	0.0140430
690.715	0.0139182
690.793	0.0138991
690.871	0.0140625
690.950	0.0140321
691.028	0.0139630
691.106	0.0141203
691.184	0.0140343
691.262	0.0140113
691.340	0.0140479
691.418	0.0141208
691.496	0.0140015
691.575	0.0140210
691.653	0.0141479
691.731	0.0141648
691.809	0.0140492
691.887	0.0139630
691.965	0.0140012
692.043	0.0142269
692.121	0.0140414
692.200	0.0139830
692.278	0.0141566
692.356	0.0140348
692.434	0.0140653
692.512	0.0140739
692.590	0.0141263
692.668	0.0139934
692.746	0.0139644
692.825	0.0140187
692.903	0.0140709
692.981	0.0140598
693.059	0.0140385
693.137	0.0141125
693.215	0.0140964
693.293	0.0140518
693.371	0.0140506
693.450	0.0141781
693.528	0.0139967
693.606	0.0139509
693.684	0.0141396
693.762	0.0141472
693.840	0.0140716
693.918	0.0140435
693.996	0.0140288
694.075	0.0140108
694.153	0.0139794
694.231	0.0140302
694.309	0.0141335
694.387	0.0140951
694.465	0.0141010
694.543	0.0140286
694.621	0.0139191
694.700	0.0140471
694.778	0.0140273
694.856	0.0140026
694.934	0.0140218
695.012	0.0141258
695.090	0.0140811
695.168	0.0140691
695.246	0.0140984
695.325	0.0141380
695.403	0.0140791
695.481	0.0140737
695.559	0.0139842
695.637	0.0141277
695.715	0.0141617
695.793	0.0140147
695.871	0.0138725
695.950	0.0140353
696.028	0.0140580
696.106	0.0140260
696.184	0.0140739
696.262	0.0139637
696.340	0.0140701
696.418	0.0142169
696.496	0.0141259
696.575	0.0140881
696.653	0.0140266
696.731	0.0141741
696.809	0.0141499
696.887	0.0139899
696.965	0.0139592
697.043	0.0141386
697.121	0.0140961
697.200	0.0140963
697.278	0.0140485
697.356	0.0140889
697.434	0.0140106
697.512	0.0140323
697.590	0.0141483
697.668	0.0141733
697.746	0.0140097
697.825	0.0141387
697.903	0.0141818
697.981	0.0141087
698.059	0.0139969
698.137	0.0140588
698.215	0.0141615
698.293	0.0141330
698.371	0.0140088
698.450	0.0140796
698.528	0.0140724
698.606	0.0140924
698.684	0.0141043
698.762	0.0140164
698.840	0.0139861
698.918	0.0139519
698.996	0.0141110
699.075	0.0140739
699.153	0.0140170
699.231	0.0141241
699.309	0.0141100
699.387	0.0139552
699.465	0.0139406
699.543	0.0140838
699.621	0.0140884
699.700	0.0139596
699.778	0.0139522
699.856	0.0140410
699.934	0.0139607
700.012	0.0141351
700.090	0.0140307
700.168	0.0139139
700.246	0.0139484
700.325	0.0141630
700.403	0.0141183
700.481	0.0139816
700.559	0.0140246
700.637	0.0141021
700.715	0.0139842
700.793	0.0140125
700.871	0.0140338
700.950	0.0140396
701.028	0.0140716
701.106	0.0140643
701.184	0.0140102
701.262	0.0141086
701.340	0.0140240
701.418	0.0139417
701.496	0.0140194
701.575	0.0141531
701.653	0.0140191
701.731	0.0139231
701.809	0.0140871
701.887	0.0139621
701.965	0.0139802
702.043	0.0140411
702.121	0.0139108
702.200	0.0139950
702.278	0.0140279
702.356	0.0138898
702.434	0.0139284
702.512	0.0139998
702.590	0.0141121
702.668	0.0140690
702.746	0.0142516
702.825	0.0141238
702.903	0.0141753
702.981	0.0141410
703.059	0.0141394
703.137	0.0141695
703.215	0.0142426
703.293	0.0140951
703.371	0.0142064
703.450	0.0141321
703.528	0.0141290
703.606	0.0140634
703.684	0.0140875
703.762	0.0140642
703.840	0.0141223
703.918	0.0141387
703.996	0.0139422
704.075	0.0140765
704.153	0.0140703
704.231	0.0140689
704.309	0.0141008
704.387	0.0139501
704.465	0.0140330
704.543	0.0139242
704.621	0.0138665
704.700	0.0138055
704.778	0.0138618
704.856	0.0136934
704.934	0.0137212
705.012	0.0135970
705.090	0.0136769
705.168	0.0137932
705.246	0.0137403
705.325	0.0137749
705.403	0.0138776
705.481	0.0140013
705.559	0.0140495
705.637	0.0140377
705.715	0.0142974
705.793	0.0146529
705.871	0.0147815
705.950	0.0149751
706.028	0.0151204
706.106	0.0153787
706.184	0.0151329
706.262	0.0148443
706.340	0.0146995
706.418	0.0145511
706.496	0.0141856
706.575	0.0138327
706.653	0.0132829
706.731	0.0130724
706.809	0.0128439
706.887	0.0128297
706.965	0.0125933
707.043	0.0127386
707.121	0.0129259
707.200	0.0130484
707.278	0.0131258
707.356	0.0134491
707.434	0.0135659
707.512	0.0137104
707.590	0.0139141
707.668	0.0141287
707.746	0.0143232
707.825	0.0147195
707.903	0.0151171
707.981	0.0155291
708.059	0.0155730
708.137	0.0158768
708.215	0.0159750
708.293	0.0157077
708.371	0.0155502
708.450	0.0152548
708.528	0.0147958
708.606	0.0144307
708.684	0.0141432
708.762	0.0136205
708.840	0.0131184
708.918	0.0128513
708.996	0.0128301
709.075	0.0127390
709.153	0.0126538
709.231	0.0127128
709.309	0.0125822
709.387	0.0123594
709.465	0.0120695
709.543	0.0120741
709.621	0.0120947
709.700	0.0122460
709.778	0.0125317
709.856	0.0131058
709.934	0.0136068
710.012	0.0144391
710.090	0.0150129
710.168	0.0154546
710.246	0.0158674
710.325	0.0162398
710.403	0.0164981
710.481	0.0167458
710.559	0.0168670
710.637	0.0169250
710.715	0.0167994
710.793	0.0163961
710.871	0.0161985
710.950	0.0156254
711.028	0.0151326
711.106	0.0143974
711.184	0.0136829
711.262	0.0129123
711.340	0.0125306
711.418	0.0118240
711.496	0.0113139
711.575	0.0109348
711.653	0.0107256
711.731	0.0107012
711.809	0.0105829
711.887	0.0107732
711.965	0.0114090
712.043	0.0120036
712.121	0.0127613
712.200	0.0137122
712.278	0.0146568
712.356	0.0155346
712.434	0.0163419
712.512	0.0167196
712.590	0.0170452
712.668	0.0171243
712.746	0.0171758
712.825	0.0171161
712.903	0.0168565
712.981	0.0168130
713.059	0.0165671
713.137	0.0161621
713.215	0.0158643
713.293	0.0152335
713.371	0.0145791
713.450	0.0137413
713.528	0.0130669
713.606	0.0124161
713.684	0.0120010
713.762	0.0116811
713.840	0.0114977
713.918	0.0114487
713.996	0.0115858
714.075	0.0115199
714.153	0.0115801
714.231	0.0116898
714.309	0.0120203
714.387	0.0123550
714.465	0.0128054
714.543	0.0130923
714.621	0.0136824
714.700	0.0142498
714.778	0.0147172
714.856	0.0150360
714.934	0.0153230
715.012	0.0157326
715.090	0.0158185
715.168	0.0159532
715.246	0.0161122
715.325	0.0160748
715.403	0.0160919
715.481	0.0159161
715.559	0.0156931
715.637	0.0153738
715.715	0.0149128
715.793	0.0143925
715.871	0.0140878
715.950	0.0138083
716.028	0.0134422
716.106	0.0134072
716.184	0.0132614
716.262	0.0131795
716.340	0.0133003
716.418	0.0132281
716.496	0.0132509
716.575	0.0132868
716.653	0.0133572
716.731	0.0133928
716.809	0.0134743
716.887	0.0133231
716.965	0.0132732
717.043	0.0130605
717.121	0.0132284
717.200	0.0133564
717.278	0.0135318
717.356	0.0137524
717.434	0.0140009
717.512	0.0143768
717.590	0.0145844
717.668	0.0148751
717.746	0.0149731
717.825	0.0150595
717.903	0.0151868
717.981	0.0152961
718.059	0.0150968
718.137	0.0149455
718.215	0.0148728
718.293	0.0146737
718.371	0.0145273
718.450	0.0143018
718.528	0.0142937
718.606	0.0141528
718.684	0.0140646
718.762	0.0140361
718.840	0.0138329
718.918	0.0137541
718.996	0.0134882
719.075	0.0132458
719.153	0.0129419
719.231	0.0128511
719.309	0.0127147
719.387	0.0126456
719.465	0.0127285
719.543	0.0128088
719.621	0.0129497
719.700	0.0130701
719.778	0.0131908
719.856	0.0135404
719.934	0.0139143
720.012	0.0141547
720.090	0.0144871
720.168	0.0149786
720.246	0.0154171
720.325	0.0157052
720.403	0.0158297
720.481	0.0157533
720.559	0.0157229
720.637	0.0155868
720.715	0.0152422
720.793	0.0149649
720.871	0.0146680
720.950	0.0142760
721.028	0.0138400
721.106	0.0133578
721.184	0.0130572
721.262	0.0128722
721.340	0.0127311
721.418	0.0124546
721.496	0.0123647
721.575	0.0123769
721.653	0.0123218
721.731	0.0124458
721.809	0.0125954
721.887	0.0127409
721.965	0.0129562
722.043	0.0133148
722.121	0.0137067
722.200	0.0140653
722.278	0.0142760
722.356	0.0146642
722.434	0.0151745
722.512	0.0154661
722.590	0.0155740
722.668	0.0156507
722.746	0.0157454
722.825	0.0158350
722.903	0.0160353
722.981	0.0158219
723.059	0.0157338
723.137	0.0155346
723.215	0.0152576
723.293	0.0148553
723.371	0.0142337
723.450	0.0137915
723.528	0.0134258
723.606	0.0131464
723.684	0.0127605
723.762	0.0124746
723.840	0.0120573
723.918	0.0121481
723.996	0.0119657
724.075	0.0120409
724.153	0.0124718
724.231	0.0124912
724.309	0.0129869
724.387	0.0133346
724.465	0.0137287
724.543	0.0142871
724.621	0.0147284
724.700	0.0152563
724.778	0.0156227
724.856	0.0157956
724.934	0.0159953
725.012	0.0160480
725.090	0.0159043
725.168	0.0157829
725.246	0.0153648
725.325	0.0149650
725.403	0.0145956
725.481	0.0140785
725.559	0.0135750
725.637	0.0134029
725.715	0.0127213
725.793	0.0126189
725.871	0.0125079
725.950	0.0122478
726.028	0.0123408
726.106	0.0124825
726.184	0.0126367
726.262	0.0130773
726.340	0.0133146
726.418	0.0134359
726.496	0.0137106
726.575	0.0142010
726.653	0.0144196
726.731	0.0147493
726.809	0.0150951
726.887	0.0153425
726.965	0.0152210
727.043	0.0156040
727.121	0.0157383
727.200	0.0157233
727.278	0.0157747
727.356	0.0157364
727.434	0.0155683
727.512	0.0153407
727.590	0.0151392
727.668	0.0149083
727.746	0.0144778
727.825	0.0139240
727.903	0.0134441
727.981	0.0132349
728.059	0.0125407
728.137	0.0122451
728.215	0.0118103
728.293	0.0117091
728.371	0.0115732
728.450	0.0116096
728.528	0.0116946
728.606	0.0118592
728.684	0.0120657
728.762	0.0124651
728.840	0.0130373
728.918	0.0137955
728.996	0.0143274
729.075	0.0150624
729.153	0.0155522
729.231	0.0160177
729.309	0.0164583
729.387	0.0166324
729.465	0.0166368
729.543	0.0165495
729.621	0.0164307
729.700	0.0162455
729.778	0.0158906
729.856	0.0154487
729.934	0.0151125
730.012	0.0145703
730.090	0.0141592
730.168	0.0136749
730.246	0.0134055
730.325	0.0129341
730.403	0.0125256
730.481	0.0123266
730.559	0.0121976
730.637	0.0121998
730.715	0.0123004
730.793	0.0124738
730.871	0.0125350
730.950	0.0126894
731.028	0.0129848
731.106	0.0131351
731.184	0.0134266
731.262	0.0139291
731.340	0.0140881
731.418	0.0144946
731.496	0.0147387
731.575	0.0151249
731.653	0.0153020
731.731	0.0155095
731.809	0.0155804
731.887	0.0158253
731.965	0.0156837
732.043	0.0155811
732.121	0.0156132
732.200	0.0153259
732.278	0.0150328
732.356	0.0149158
732.434	0.0145539
732.512	0.0142092
732.590	0.0138901
732.668	0.0135221
732.746	0.0132079
732.825	0.0128353
732.903	0.0126311
732.981	0.0123773
733.059	0.0123399
733.137	0.0123412
733.215	0.0123992
733.293	0.0125604
733.371	0.0127518
733.450	0.0128617
733.528	0.0133035
733.606	0.0137798
733.684	0.0140440
733.762	0.0144230
733.840	0.0146958
733.918	0.0149173
733.996	0.0153808
734.075	0.0154767
734.153	0.0155949
734.231	0.0157764
734.309	0.0156917
734.387	0.0154890
734.465	0.0154721
734.543	0.0152628
734.621	0.0149091
734.700	0.0146687
734.778	0.0145684
734.856	0.0142973
734.934	0.0139445
735.012	0.0137621
735.090	0.0134244
735.168	0.0133222
735.246	0.0131960
735.325	0.0131210
735.403	0.0130477
735.481	0.0129462
735.559	0.0128798
735.637	0.0129532
735.715	0.0128565
735.793	0.0128317
735.871	0.0130153
735.950	0.0131826
736.028	0.0132841
736.106	0.0135165
736.184	0.0137526
736.262	0.0139107
736.340	0.0141171
736.418	0.0144952
736.496	0.0145931
736.575	0.0148399
736.653	0.0151241
736.731	0.0152612
736.809	0.0154996
736.887	0.0155562
736.965	0.0155798
737.043	0.0155717
737.121	0.0153530
737.200	0.0151434
737.278	0.0148787
737.356	0.0144433
737.434	0.0141915
737.512	0.0138119
737.590	0.0135134
737.668	0.0132648
737.746	0.0129315
737.825	0.0126606
737.903	0.0125591
737.981	0.0126692
738.059	0.0125821
738.137	0.0126680
738.215	0.0129185
738.293	0.0131332
738.371	0.0133974
738.450	0.0136483
738.528	0.0139793
738.606	0.0142854
738.684	0.0144720
738.762	0.0148391
738.840	0.0150420
738.918	0.0152229
738.996	0.0153239
739.075	0.0154202
739.153	0.0153439
739.231	0.0153544
739.309	0.0152198
739.387	0.0150562
739.465	0.0148326
739.543	0.0146450
739.621	0.0144382
739.700	0.0141216
739.778	0.0138309
739.856	0.0137171
739.934	0.0134668
740.012	0.0134079
740.090	0.0130843
740.168	0.0130067
740.246	0.0127623
740.325	0.0127860
740.403	0.0127888
740.481	0.0127605
740.559	0.0127566
740.637	0.0130293
740.715	0.0131610
740.793	0.0134691
740.871	0.0136501
740.950	0.0139919
741.028	0.0142504
741.106	0.0145975
741.184	0.0148270
741.262	0.0151797
741.340	0.0152522
741.418	0.0154010
741.496	0.0155601
741.575	0.0155190
741.653	0.0155934
741.731	0.0155006
741.809	0.0153090
741.887	0.0151987
741.965	0.0150198
742.043	0.0147498
742.121	0.0144625
742.200	0.0142328
742.278	0.0138488
742.356	0.0134676
742.434	0.0130628
742.512	0.0130057
742.590	0.0127732
742.668	0.0126822
742.746	0.0125494
742.825	0.0125809
742.903	0.0124437
742.981	0.0125947
743.059	0.0128145
743.137	0.0132305
743.215	0.0132867
743.293	0.0135901
743.371	0.0138161
743.450	0.0142229
743.528	0.0143604
743.606	0.0145053
743.684	0.0147244
743.762	0.0149607
743.840	0.0150927
743.918	0.0152587
743.996	0.0152070
744.075	0.0152484
744.153	0.0152200
744.231	0.0152154
744.309	0.0151070
744.387	0.0148318
744.465	0.0147141
744.543	0.0146857
744.621	0.0144021
744.700	0.0141161
744.778	0.0137984
744.856	0.0137215
744.934	0.0134109
745.012	0.0132962
745.090	0.0130669
745.168	0.0129712
745.246	0.0129286
745.325	0.0129607
745.403	0.0127901
745.481	0.0128299
745.559	0.0129156
745.637	0.0130248
745.715	0.0130746
745.793	0.0132336
745.871	0.0136025
745.950	0.0138624
746.028	0.0142125
746.106	0.0142770
746.184	0.0145844
746.262	0.0146387
746.340	0.0149072
746.418	0.0150461
746.496	0.0151321
746.575	0.0152068
746.653	0.0151869
746.731	0.0153525
746.809	0.0151933
746.887	0.0149903
746.965	0.0149466
747.043	0.0147273
747.121	0.0144473
747.200	0.0141545
747.278	0.0139906
747.356	0.0139041
747.434	0.0135999
747.512	0.0135007
747.590	0.0133807
747.668	0.0132446
747.746	0.0129848
747.825	0.0129745
747.903	0.0129498
747.981	0.0129776
748.059	0.0130997
748.137	0.0130882
748.215	0.0133773
748.293	0.0134092
748.371	0.0136336
748.450	0.0139181
748.528	0.0140721
748.606	0.0141456
748.684	0.0143490
748.762	0.0145624
748.840	0.0147074
748.918	0.0148561
748.996	0.0148181
749.075	0.0147979
749.153	0.0148695
749.231	0.0148635
749.309	0.0147980
749.387	0.0148580
749.465	0.0146762
749.543	0.0145062
749.621	0.0143019
749.700	0.0142193
749.778	0.0140370
749.856	0.0137203
749.934	0.0136624
750.012	0.0135777
750.090	0.0133807
750.168	0.0133997
750.246	0.0132874
750.325	0.0132189
750.403	0.0131611
750.481	0.0131835
750.559	0.0132810
750.637	0.0134376
750.715	0.0134225
750.793	0.0135722
750.871	0.0138147
750.950	0.0139702
751.028	0.0140964
751.106	0.0143302
751.184	0.0145633
751.262	0.0145248
751.340	0.0145672
751.418	0.0147742
751.496	0.0148853
751.575	0.0148624
751.653	0.0148898
751.731	0.0149318
751.809	0.0148796
751.887	0.0147781
751.965	0.0147476
752.043	0.0143741
752.121	0.0143887
752.200	0.0142303
752.278	0.0140965
752.356	0.0139181
752.434	0.0137460
752.512	0.0136168
752.590	0.0135728
752.668	0.0135130
752.746	0.0134767
752.825	0.0132086
752.903	0.0132159
752.981	0.0132774
753.059	0.0132644
753.137	0.0134545
753.215	0.0135486
753.293	0.0136002
753.371	0.0137858
753.450	0.0139825
753.528	0.0141135
753.606	0.0141246
753.684	0.0142765
753.762	0.0143246
753.840	0.0144381
753.918	0.0144013
753.996	0.0146563
754.075	0.0147057
754.153	0.0147034
754.231	0.0146585
754.309	0.0147260
754.387	0.0145271
754.465	0.0144814
754.543	0.0142983
754.621	0.0142518
754.700	0.0140398
754.778	0.0140820
754.856	0.0138011
754.934	0.0137923
755.012	0.0138173
755.090	0.0137400
755.168	0.0137354
755.246	0.0135075
755.325	0.0135042
755.403	0.0135263
755.481	0.0135355
755.559	0.0135293
755.637	0.0135922
755.715	0.0136667
755.793	0.0137958
755.871	0.0138091
755.950	0.0138210
756.028	0.0140382
756.106	0.0140583
756.184	0.0142554
756.262	0.0142691
756.340	0.0142872
756.418	0.0144484
756.496	0.0145760
756.575	0.0143759
756.653	0.0145993
756.731	0.0146010
756.809	0.0145910
756.887	0.0143161
756.965	0.0142658
757.043	0.0143958
757.121	0.0143755
757.200	0.0140472
757.278	0.0140055
757.356	0.0138448
757.434	0.0138747
757.512	0.0137865
757.590	0.0136709
757.668	0.0134882
757.746	0.0135410
757.825	0.0134991
757.903	0.0135816
757.981	0.0134937
758.059	0.0134778
758.137	0.0137650
758.215	0.0136157
758.293	0.0137028
758.371	0.0139114
758.450	0.0139642
758.528	0.0142323
758.606	0.0142989
758.684	0.0142622
758.762	0.0142016
758.840	0.0143839
758.918	0.0143786
758.996	0.0145306
759.075	0.0146156
759.153	0.0145964
759.231	0.0144892
759.309	0.0144163
759.387	0.0143560
759.465	0.0143565
759.543	0.0142805
759.621	0.0143294
759.700	0.0140684
759.778	0.0140273
759.856	0.0140269
759.934	0.0139475
760.012	0.0139085
760.090	0.0136862
760.168	0.0137771
760.246	0.0136086
760.325	0.0135837
760.403	0.0136393
760.481	0.0137529
760.559	0.0138538
760.637	0.0137068
760.715	0.0138142
760.793	0.0137850
760.871	0.0138036
760.950	0.0140092
761.028	0.0140569
761.106	0.0141412
761.184	0.0142204
761.262	0.0142218
761.340	0.0143632
761.418	0.0142902
761.496	0.0144544
761.575	0.0144714
761.653	0.0145538
761.731	0.0144391
761.809	0.0144337
761.887	0.0143640
761.965	0.0142299
762.043	0.0141673
762.121	0.0142086
762.200	0.0140926
762.278	0.0140137
762.356	0.0139267
762.434	0.0138940
762.512	0.0137652
762.590	0.0137539
762.668	0.0138577
762.746	0.0136820
762.825	0.0137926
762.903	0.0137572
762.981	0.0136988
763.059	0.0137445
763.137	0.0137383
763.215	0.0137029
763.293	0.0139333
763.371	0.0139792
763.450	0.0139144
763.528	0.0138865
763.606	0.0140371
763.684	0.0141230
763.762	0.0141927
763.840	0.0141384
763.918	0.0142628
763.996	0.0142541
764.075	0.0143096
764.153	0.0143659
764.231	0.0144053
764.309	0.0142154
764.387	0.0142121
764.465	0.0144420
764.543	0.0142660
764.621	0.0140606
764.700	0.0141251
764.778	0.0140916
764.856	0.0141772
764.934	0.0140221
765.012	0.0140182
765.090	0.0140141
765.168	0.0138863
765.246	0.0138340
765.325	0.0137782
765.403	0.0137820
765.481	0.0137022
765.559	0.0136326
765.637	0.0137522
765.715	0.0138240
765.793	0.0138174
765.871	0.0139186
765.950	0.0138297
766.028	0.0139285
766.106	0.0140289
766.184	0.0138992
766.262	0.0140412
766.340	0.0141470
766.418	0.0141788
766.496	0.0142717
766.575	0.0143243
766.653	0.0142678
766.731	0.0144435
766.809	0.0142229
766.887	0.0143286
766.965	0.0142731
767.043	0.0143004
767.121	0.0142309
767.200	0.0142291
767.278	0.0141576
767.356	0.0141821
767.434	0.0141660
767.512	0.0138776
767.590	0.0139041
767.668	0.0138277
767.746	0.0139254
767.825	0.0138437
767.903	0.0138154
767.981	0.0136826
768.059	0.0136105
768.137	0.0137553
768.215	0.0136482
768.293	0.0136495
768.371	0.0137543
768.450	0.0137908
768.528	0.0137139
768.606	0.0139146
768.684	0.0139647
768.762	0.0139127
768.840	0.0139037
768.918	0.0140590
768.996	0.0142162
769.075	0.0140202
769.153	0.0142814
769.231	0.0142583
769.309	0.0143768
769.387	0.0143502
769.465	0.0144226
769.543	0.0142768
769.621	0.0142924
769.700	0.0142905
769.778	0.0143160
769.856	0.0142307
769.934	0.0142348
770.012	0.0141798
770.090	0.0140697
770.168	0.0139063
770.246	0.0138586
770.325	0.0138757
770.403	0.0138194
770.481	0.0138875
770.559	0.0138581
770.637	0.0137674
770.715	0.0137807
770.793	0.0136924
770.871	0.0137875
770.950	0.0136864
771.028	0.0136756
771.106	0.0138297
771.184	0.0140364
771.262	0.0139893
771.340	0.0140980
771.418	0.0140393
771.496	0.0139957
771.575	0.0141255
771.653	0.0140542
771.731	0.0140762
771.809	0.0141751
771.887	0.0142062
771.965	0.0142528
772.043	0.0140205
772.121	0.0142530
772.200	0.0143083
772.278	0.0141308
772.356	0.0142099
772.434	0.0139991
772.512	0.0141071
772.590	0.0139894
772.668	0.0140404
772.746	0.0140503
772.825	0.0140337
772.903	0.0139712
772.981	0.0138809
773.059	0.0139779
773.137	0.0139022
773.215	0.0139195
773.293	0.0139105
773.371	0.0139192
773.450	0.0139207
773.528	0.0139851
773.606	0.0139478
773.684	0.0138237
773.762	0.0138976
773.840	0.0138758
773.918	0.0140174
773.996	0.0141467
774.075	0.0140676
774.153	0.0141899
774.231	0.0141125
774.309	0.0141908
774.387	0.0141046
774.465	0.0141200
774.543	0.0142358
774.621	0.0141882
774.700	0.0141233
774.778	0.0141044
774.856	0.0142474
774.934	0.0141521
775.012	0.0140762
775.090	0.0140385
775.168	0.0141296
775.246	0.0140642
775.325	0.0141542
775.403	0.0140920
775.481	0.0139471
775.559	0.0140709
775.637	0.0140559
775.715	0.0139922
775.793	0.0139071
775.871	0.0138696
775.950	0.0138848
776.028	0.0140218
776.106	0.0139861
776.184	0.0139346
776.262	0.0140031
776.340	0.0140455
776.418	0.0139923
776.496	0.0140438
776.575	0.0139781
776.653	0.0140389
776.731	0.0142014
776.809	0.0141230
776.887	0.0139525
776.965	0.0139899
777.043	0.0139591
777.121	0.0141718
777.200	0.0141398
777.278	0.0140964
777.356	0.0141306
777.434	0.0139572
777.512	0.0141180
777.590	0.0140890
777.668	0.0141282
777.746	0.0141080
777.825	0.0141741
777.903	0.0141023
777.981	0.0140087
778.059	0.0140058
778.137	0.0139866
778.215	0.0140482
778.293	0.0140775
778.371	0.0139890
778.450	0.0140060
778.528	0.0139110
778.606	0.0138926
778.684	0.0140363
778.762	0.0139837
778.840	0.0139820
778.918	0.0139377
778.996	0.0140256
779.075	0.0139900
779.153	0.0139330
779.231	0.0141460
779.309	0.0140836
779.387	0.0141322
779.465	0.0142394
779.543	0.0141842
779.621	0.0141040
779.700	0.0141357
779.778	0.0141730
779.856	0.0142760
779.934	0.0140533
780.012	0.0141902
780.090	0.0141225
780.168	0.0140958
780.246	0.0140578
780.325	0.0140372
780.403	0.0141465
780.481	0.0140392
780.559	0.0139484
780.637	0.0140489
780.715	0.0140443
780.793	0.0139347
780.871	0.0138612
780.950	0.0139412
781.028	0.0138610
781.106	0.0138806
781.184	0.0138680
781.262	0.0138837
781.340	0.0139032
781.418	0.0140192
781.496	0.0139484
781.575	0.0139650
781.653	0.0141381
781.731	0.0141018
781.809	0.0140430
781.887	0.0139714
781.965	0.0139874
782.043	0.0141065
782.121	0.0141309
782.200	0.0140150
782.278	0.0141033
782.356	0.0140771
782.434	0.0141728
782.512	0.0140906
782.590	0.0141852
782.668	0.0142325
782.746	0.0139951
782.825	0.0141081
782.903	0.0141019
782.981	0.0140308
783.059	0.0139297
783.137	0.0139847
783.215	0.0139748
783.293	0.0138783
783.371	0.0139716
783.450	0.0138788
783.528	0.0139683
783.606	0.0139286
783.684	0.0139757
783.762	0.0138893
783.840	0.0139749
783.918	0.0140725
783.996	0.0139842
784.075	0.0140624
784.153	0.0139362
784.231	0.0141579
784.309	0.0140949
784.387	0.0141217
784.465	0.0142054
784.543	0.0141246
784.621	0.0140976
784.700	0.0140318
784.778	0.0140460
784.856	0.0141610
784.934	0.0140908
785.012	0.0141208
785.090	0.0141563
785.168	0.0140201
785.246	0.0140431
785.325	0.0140671
785.403	0.0139595
785.481	0.0140150
785.559	0.0140122
785.637	0.0140052
785.715	0.0139483
785.793	0.0139540
785.871	0.0138197
785.950	0.0138314
786.028	0.0138783
786.106	0.0139281
786.184	0.0139824
786.262	0.0140225
786.340	0.0139739
786.418	0.0139005
786.496	0.0142010
786.575	0.0138110
786.653	0.0139818
786.731	0.0140513
786.809	0.0141244
786.887	0.0139651
786.965	0.0140432
787.043	0.0142521
787.121	0.0140784
787.200	0.0142509
787.278	0.0141101
787.356	0.0141685
787.434	0.0142451
787.512	0.0142207
787.590	0.0141595
787.668	0.0141602
787.746	0.0139957
787.825	0.0140651
787.903	0.0139913
787.981	0.0140107
788.059	0.0140263
788.137	0.0139447
788.215	0.0138860
788.293	0.0139268
788.371	0.0138422
788.450	0.0138428
788.528	0.0138744
788.606	0.0140095
788.684	0.0139181
788.762	0.0139119
788.840	0.0139980
788.918	0.0139562
788.996	0.0139354
789.075	0.0139761
789.153	0.0141593
789.231	0.0141645
789.309	0.0140414
789.387	0.0140633
789.465	0.0141707
789.543	0.0141076
789.621	0.0140849
789.700	0.0141821
789.778	0.0141758
789.856	0.0142307
789.934	0.0141685
790.012	0.0140787
790.090	0.0140829
790.168	0.0141166
790.246	0.0140874
790.325	0.0140845
790.403	0.0141965
790.481	0.0140853
790.559	0.0140577
790.637	0.0139913
790.715	0.0141025
790.793	0.0140595
790.871	0.0139267
790.950	0.0140976
791.028	0.0140229
791.106	0.0139605
791.184	0.0138122
791.262	0.0138884
791.340	0.0139889
791.418	0.0139980
791.496	0.0139462
791.575	0.0140797
791.653	0.0141724
791.731	0.0140759
791.809	0.0140483
791.887	0.0138866
791.965	0.0139391
792.043	0.0140464
792.121	0.0139716
792.200	0.0139613
792.278	0.0140074
792.356	0.0140973
792.434	0.0140342
792.512	0.0141490
792.590	0.0141201
792.668	0.0141804
792.746	0.0141096
792.825	0.0139813
792.903	0.0141047
792.981	0.0141152
793.059	0.0141615
793.137	0.0141713
793.215	0.0141528
793.293	0.0140453
793.371	0.0140334
793.450	0.0140038
793.528	0.0140006
793.606	0.0140406
793.684	0.0139688
793.762	0.0140022
793.840	0.0140047
793.918	0.0139998
793.996	0.0139835
794.075	0.0139672
794.153	0.0138716
794.231	0.0139761
794.309	0.0139950
794.387	0.0141309
794.465	0.0141833
794.543	0.0140372
794.621	0.0139874
794.700	0.0140562
794.778	0.0140192
794.856	0.0140752
794.934	0.0140832
795.012	0.0140391
795.090	0.0141601
795.168	0.0140716
795.246	0.0142242
795.325	0.0140533
795.403	0.0140275
795.481	0.0140781
795.559	0.0141678
795.637	0.0139981
795.715	0.0141196
795.793	0.0141942
795.871	0.0142043
795.950	0.0139586
796.028	0.0139680
796.106	0.0140727
796.184	0.0139946
796.262	0.0140114
796.340	0.0140050
796.418	0.0140672
796.496	0.0139783
796.575	0.0140371
796.653	0.0138005
796.731	0.0138466
796.809	0.0141187
796.887	0.0140777
796.965	0.0140661
797.043	0.0140334
797.121	0.0141157
797.200	0.0139780
797.278	0.0140922
797.356	0.0142105
797.434	0.0141780
797.512	0.0140730
797.590	0.0139947
797.668	0.0140009
797.746	0.0140133
797.825	0.0141523
797.903	0.0141924
797.981	0.0140512
798.059	0.0141228
798.137	0.0140260
798.215	0.0141447
798.293	0.0141389
798.371	0.0140851
798.450	0.0140607
798.528	0.0141152
798.606	0.0141152
798.684	0.0140920
798.762	0.0141148
798.840	0.0140037
798.918	0.0140382
798.996	0.0141820
799.075	0.0141042
799.153	0.0140665
799.231	0.0140199
799.309	0.0140755
799.387	0.0140788
799.465	0.0141173
799.543	0.0141099
799.621	0.0141402
799.700	0.0140688
799.778	0.0140578
799.856	0.0140588
799.934	0.0140783
800.012	0.0141257
800.090	0.0141406
800.168	0.0142307
800.246	0.0140717
800.325	0.0140616
800.403	0.0141099
800.481	0.0142222
800.559	0.0141408
800.637	0.0140610
800.715	0.0141491
800.793	0.0140858
800.871	0.0140323
800.950	0.0139029
801.028	0.0139537
801.106	0.0139720
801.184	0.0140517
801.262	0.0140512
801.340	0.0140193
801.418	0.0139914
801.496	0.0140498
801.575	0.0141527
801.653	0.0139848
801.731	0.0140813
801.809	0.0142403
801.887	0.0140618
801.965	0.0141222
802.043	0.0142680
802.121	0.0142190
802.200	0.0142290
802.278	0.0141360
802.356	0.0141446
802.434	0.0141364
802.512	0.0141405
802.590	0.0140348
802.668	0.0139670
802.746	0.0140777
802.825	0.0139837
802.903	0.0139033
802.981	0.0139211
803.059	0.0138601
803.137	0.0139633
803.215	0.0139644
803.293	0.0139050
803.371	0.0138763
803.450	0.0139521
803.528	0.0139802
803.606	0.0140221
803.684	0.0141510
803.762	0.0141236
803.840	0.0140819
803.918	0.0141618
803.996	0.0141317
804.075	0.0142159
804.153	0.0141158
804.231	0.0141570
804.309	0.0141129
804.387	0.0142104
804.465	0.0141219
804.543	0.0142189
804.621	0.0142327
804.700	0.0141462
804.778	0.0141338
804.856	0.0140916
804.934	0.0140511
805.012	0.0139574
805.090	0.0139771
805.168	0.0140350
805.246	0.0139723
805.325	0.0140725
805.403	0.0139824
805.481	0.0140530
805.559	0.0140157
805.637	0.0139598
805.715	0.0140533
805.793	0.0140207
805.871	0.0139198
805.950	0.0139735
806.028	0.0139522
806.106	0.0140395
806.184	0.0138921
806.262	0.0140997
806.340	0.0140394
806.418	0.0141795
806.496	0.0140366
806.575	0.0141087
806.653	0.0141706
806.731	0.0140993
806.809	0.0140064
806.887	0.0141819
806.965	0.0141779
807.043	0.0142196
807.121	0.0141577
807.200	0.0141801
807.278	0.0140668
807.356	0.0141785
807.434	0.0141559
807.512	0.0139178
807.590	0.0139467
807.668	0.0140585
807.746	0.0139643
807.825	0.0139330
807.903	0.0140607
807.981	0.0140402
808.059	0.0140204
808.137	0.0139276
808.215	0.0139329
808.293	0.0138831
808.371	0.0138834
808.450	0.0141396
808.528	0.0140887
808.606	0.0140139
808.684	0.0140501
808.762	0.0142950
808.840	0.0141721
808.918	0.0140781
808.996	0.0141239
809.075	0.0142059
809.153	0.0139631
809.231	0.0141201
809.309	0.0141446
809.387	0.0142339
809.465	0.0141301
809.543	0.0141297
809.621	0.0141941
809.700	0.0141949
809.778	0.0140897
809.856	0.0140926
809.934	0.0140566
810.012	0.0140114
810.090	0.0140194
810.168	0.0140222
810.246	0.0140423
810.325	0.0140282
810.403	0.0140023
810.481	0.0139970
810.559	0.0139059
810.637	0.0138744
810.715	0.0139397
810.793	0.0139698
810.871	0.0140752
810.950	0.0141272
811.028	0.0140305
811.106	0.0139304
811.184	0.0139663
811.262	0.0139916
811.340	0.0140347
811.418	0.0140676
811.496	0.0141936
811.575	0.0143122
811.653	0.0142037
811.731	0.0141995
811.809	0.0140458
811.887	0.0140720
811.965	0.0141273
812.043	0.0141075
812.121	0.0140361
812.200	0.0140599
812.278	0.0141118
812.356	0.0140842
812.434	0.0139615
812.512	0.0138902
812.590	0.0139487
812.668	0.0138606
812.746	0.0139287
812.825	0.0139117
812.903	0.0138733
812.981	0.0139066
813.059	0.0139420
813.137	0.0140401
813.215	0.0140660
813.293	0.0139366
813.371	0.0139955
813.450	0.0139908
813.528	0.0139218
813.606	0.0141365
813.684	0.0142193
813.762	0.0141093
813.840	0.0142496
813.918	0.0141427
813.996	0.0141941
814.075	0.0142983
814.153	0.0141680
814.231	0.0142050
814.309	0.0141569
814.387	0.0142422
814.465	0.0141708
814.543	0.0140488
814.621	0.0142002
814.700	0.0139516
814.778	0.0139564
814.856	0.0139874
814.934	0.0138660
815.012	0.0138285
815.090	0.0139574
815.168	0.0138332
815.246	0.0138017
815.325	0.0138286
815.403	0.0139655
815.481	0.0140124
815.559	0.0139846
815.637	0.0140308
815.715	0.0140495
815.793	0.0140562
815.871	0.0139356
815.950	0.0140839
816.028	0.0141039
816.106	0.0142690
816.184	0.0141582
816.262	0.0142865
816.340	0.0143320
816.418	0.0142110
816.496	0.0142469
816.575	0.0142520
816.653	0.0141337
816.731	0.0140723
816.809	0.0141440
816.887	0.0142227
816.965	0.0141068
817.043	0.0141023
817.121	0.0140907
817.200	0.0139997
817.278	0.0138998
817.356	0.0138055
817.434	0.0139225
817.512	0.0140993
817.590	0.0138457
817.668	0.0139179
817.746	0.0140108
817.825	0.0139261
817.903	0.0139420
817.981	0.0139425
818.059	0.0140581
818.137	0.0139729
818.215	0.0139448
818.293	0.0141286
818.371	0.0141367
818.450	0.0140223
818.528	0.0139790
818.606	0.0141486
818.684	0.0143004
818.762	0.0142120
818.840	0.0141108
818.918	0.0142036
818.996	0.0142879
819.075	0.0141996
819.153	0.0140756
819.231	0.0142181
819.309	0.0140926
819.387	0.0142059
819.465	0.0142245
819.543	0.0140188
819.621	0.0140622
819.700	0.0141605
819.778	0.0141023
819.856	0.0140379
819.934	0.0139482
820.012	0.0139599
820.090	0.0139288
820.168	0.0139238
820.246	0.0139585
820.325	0.0139252
820.403	0.0141280
820.481	0.0139722
820.559	0.0140048
820.637	0.0140543
820.715	0.0140644
820.793	0.0141428
820.871	0.0138955
820.950	0.0141337
821.028	0.0141144
821.106	0.0141843
821.184	0.0142040
821.262	0.0140366
821.340	0.0139413
821.418	0.0140096
821.496	0.0141570
821.575	0.0142583
821.653	0.0141692
821.731	0.0141848
821.809	0.0142017
821.887	0.0140077
821.965	0.0140221
822.043	0.0140417
822.121	0.0141016
822.200	0.0140091
822.278	0.0141329
822.356	0.0141499
822.434	0.0140874
822.512	0.0141744
822.590	0.0140691
822.668	0.0140855
822.746	0.0141630
822.825	0.0140632
822.903	0.0140073
822.981	0.0141570
823.059	0.0140783
823.137	0.0142413
823.215	0.0140899
823.293	0.0142070
823.371	0.0140822
823.450	0.0140843
823.528	0.0141853
823.606	0.0141764
823.684	0.0141184
823.762	0.0141237
823.840	0.0141382
823.918	0.0140932
823.996	0.0140295
824.075	0.0140126
824.153	0.0140511
824.231	0.0139937
824.309	0.0139567
824.387	0.0139345
824.465	0.0138837
824.543	0.0139758
824.621	0.0140244
824.700	0.0140262
824.778	0.0139789
824.856	0.0139586
824.934	0.0139280
825.012	0.0139780
825.090	0.0139614
825.168	0.0140987
825.246	0.0141095
825.325	0.0138686
825.403	0.0139956
825.481	0.0140936
825.559	0.0140191
825.637	0.0139568
825.715	0.0140948
825.793	0.0140588
825.871	0.0141404
825.950	0.0142234
826.028	0.0138995
826.106	0.0139081
826.184	0.0141146
826.262	0.0140417
826.340	0.0140401
826.418	0.0140709
826.496	0.0141051
826.575	0.0141089
826.653	0.0140910
826.731	0.0140069
826.809	0.0140871
826.887	0.0139584
826.965	0.0140989
827.043	0.0140112
827.121	0.0140646
827.200	0.0142282
827.278	0.0141995
827.356	0.0140963
827.434	0.0140581
827.512	0.0143018
827.590	0.0140263
827.668	0.0140787
827.746	0.0141564
827.825	0.0141859
827.903	0.0141615
827.981	0.0141193
828.059	0.0139821
828.137	0.0141017
828.215	0.0140314
828.293	0.0140823
828.371	0.0139696
828.450	0.0140784
828.528	0.0140485
828.606	0.0140888
828.684	0.0141037
828.762	0.0141103
828.840	0.0139864
828.918	0.0140912
828.996	0.0140048
829.075	0.0142201
829.153	0.0140931
829.231	0.0139558
829.309	0.0141432
829.387	0.0140771
829.465	0.0141555
829.543	0.0140872
829.621	0.0141602
829.700	0.0141431
829.778	0.0142500
829.856	0.0141824
829.934	0.0141212
830.012	0.0141919
830.090	0.0142225
830.168	0.0142345
830.246	0.0140601
830.325	0.0141232
830.403	0.0141264
830.481	0.0141120
830.559	0.0141569
830.637	0.0140503
830.715	0.0139730
830.793	0.0139610
830.871	0.0140933
830.950	0.0140278
831.028	0.0140079
831.106	0.0140329
831.184	0.0139394
831.262	0.0139787
831.340	0.0140314
831.418	0.0141798
831.496	0.0139840
831.575	0.0139831
831.653	0.0141394
831.731	0.0141194
831.809	0.0141106
831.887	0.0142490
831.965	0.0140919
832.043	0.0140677
832.121	0.0139479
832.200	0.0141644
832.278	0.0139507
832.356	0.0141634
832.434	0.0140801
832.512	0.0139838
832.590	0.0140067
832.668	0.0139313
832.746	0.0141434
832.825	0.0140600
832.903	0.0140990
832.981	0.0140842
833.059	0.0138800
833.137	0.0140091
833.215	0.0140546
833.293	0.0141228
833.371	0.0139790
833.450	0.0141669
833.528	0.0141505
833.606	0.0141400
833.684	0.0140720
833.762	0.0140997
833.840	0.0140691
833.918	0.0142249
833.996	0.0141243
834.075	0.0141820
834.153	0.0141506
834.231	0.0141199
834.309	0.0140821
834.387	0.0140584
834.465	0.0140086
834.543	0.0140038
834.621	0.0141380
834.700	0.0141402
834.778	0.0140731
834.856	0.0140190
834.934	0.0140038
835.012	0.0142058
835.090	0.0141185
835.168	0.0142271
835.246	0.0140966
835.325	0.0141389
835.403	0.0142401
835.481	0.0142966
835.559	0.0141859
835.637	0.0141139
835.715	0.0141171
835.793	0.0140710
835.871	0.0141055
835.950	0.0140701
836.028	0.0141187
836.106	0.0141734
836.184	0.0140195
836.262	0.0140342
836.340	0.0139297
836.418	0.0139935
836.496	0.0139057
836.575	0.0138699
836.653	0.0138808
836.731	0.0138947
836.809	0.0141055
836.887	0.0139626
836.965	0.0140076
837.043	0.0139122
837.121	0.0140179
837.200	0.0139669
837.278	0.0140766
837.356	0.0141759
837.434	0.0140147
837.512	0.0142488
837.590	0.0140359
837.668	0.0142043
837.746	0.0140595
837.825	0.0142058
837.903	0.0142140
837.981	0.0142826
838.059	0.0140262
838.137	0.0141571
838.215	0.0142011
838.293	0.0142827
838.371	0.0139828
838.450	0.0139449
838.528	0.0140305
838.606	0.0138907
838.684	0.0140455
838.762	0.0140623
838.840	0.0139816
838.918	0.0138903
838.996	0.0139872
839.075	0.0140255
839.153	0.0139953
839.231	0.0140018
839.309	0.0139616
839.387	0.0139201
839.465	0.0138924
839.543	0.0138345
839.621	0.0139955
839.700	0.0140199
839.778	0.0140165
839.856	0.0140388
839.934	0.0139421
840.012	0.0142312
840.090	0.0141585
840.168	0.0140138
840.246	0.0141077
840.325	0.0141415
840.403	0.0141709
840.481	0.0141257
840.559	0.0141989
840.637	0.0141811
840.715	0.0141759
840.793	0.0142569
840.871	0.0140740
840.950	0.0141326
841.028	0.0140974
841.106	0.0140285
841.184	0.0139127
841.262	0.0138029
841.340	0.0139968
841.418	0.0141908
841.496	0.0140472
841.575	0.0138240
841.653	0.0140478
841.731	0.0140382
841.809	0.0139572
841.887	0.0139648
841.965	0.0140395
842.043	0.0139375
842.121	0.0140630
842.200	0.0140408
842.278	0.0139934
842.356	0.0140520
842.434	0.0139645
842.512	0.0138905
842.590	0.0139371
842.668	0.0139554
842.746	0.0139068
842.825	0.0139948
842.903	0.0140204
842.981	0.0140332
843.059	0.0140943
843.137	0.0140595
843.215	0.0140794
843.293	0.0140520
843.371	0.0143014
843.450	0.0142736
843.528	0.0140248
843.606	0.0140849
843.684	0.0140941
843.762	0.0141006
843.840	0.0141283
843.918	0.0140640
843.996	0.0141668
844.075	0.0140540
844.153	0.0140079
844.231	0.0139647
844.309	0.0140840
844.387	0.0139232
844.465	0.0138078
844.543	0.0139343
844.621	0.0139835
844.700	0.0138820
844.778	0.0138894
844.856	0.0139407
844.934	0.0138330
845.012	0.0138464
845.090	0.0140383
845.168	0.0138951
845.246	0.0141130
845.325	0.0143130
845.403	0.0140307
845.481	0.0142118
845.559	0.0141783
845.637	0.0141441
845.715	0.0141634
845.793	0.0141786
845.871	0.0141451
845.950	0.0140410
846.028	0.0141920
846.106	0.0141884
846.184	0.0141505
846.262	0.0140426
846.340	0.0140769
846.418	0.0141230
846.496	0.0140922
846.575	0.0139956
846.653	0.0140508
846.731	0.0139804
846.809	0.0137674
846.887	0.0139594
846.965	0.0140131
847.043	0.0139514
847.121	0.0140258
847.200	0.0138278
847.278	0.0138865
847.356	0.0139616
847.434	0.0138324
847.512	0.0138974
847.590	0.0140183
847.668	0.0140937
847.746	0.0140391
847.825	0.0141029
847.903	0.0142390
847.981	0.0141302
848.059	0.0141290
848.137	0.0142236
848.215	0.0142320
848.293	0.0142184
848.371	0.0143068
848.450	0.0141345
848.528	0.0141198
848.606	0.0141286
848.684	0.0142278
848.762	0.0141817
848.840	0.0141540
848.918	0.0140441
848.996	0.0139200
849.075	0.0140115
849.153	0.0140351
849.231	0.0140298
849.309	0.0138322
849.387	0.0137734
849.465	0.0141025
849.543	0.0138152
849.621	0.0137884
849.700	0.0141200
849.778	0.0140216
849.856	0.0140784
849.934	0.0139623
850.012	0.0140511
850.090	0.0140734
850.168	0.0140852
850.246	0.0141801
850.325	0.0140979
850.403	0.0141814
850.481	0.0142744
850.559	0.0143319
850.637	0.0142941
850.715	0.0140963
850.793	0.0140871
850.871	0.0140970
850.950	0.0140598
851.028	0.0141868
851.106	0.0141974
851.184	0.0141013
851.262	0.0140631
851.340	0.0139475
851.418	0.0139249
851.496	0.0139027
851.575	0.0139071
851.653	0.0139040
851.731	0.0138638
851.809	0.0140064
851.887	0.0138303
851.965	0.0138395
852.043	0.0139780
852.121	0.0139597
852.200	0.0139432
852.278	0.0140592
852.356	0.0139814
852.434	0.0140656
852.512	0.0140563
852.590	0.0140824
852.668	0.0139949
852.746	0.0140781
852.825	0.0142043
852.903	0.0141679
852.981	0.0141064
853.059	0.0141204
853.137	0.0141694
853.215	0.0141805
853.293	0.0141656
853.371	0.0141107
853.450	0.0141704
853.528	0.0141891
853.606	0.0140903
853.684	0.0140454
853.762	0.0140897
853.840	0.0141060
853.918	0.0138811
853.996	0.0138210
854.075	0.0138299
854.153	0.0138130
854.231	0.0139778
854.309	0.0139780
854.387	0.0139235
854.465	0.0139854
854.543	0.0139875
854.621	0.0140285
854.700	0.0140012
854.778	0.0139703
854.856	0.0141064
854.934	0.0140211
855.012	0.0141122
855.090	0.0141822
855.168	0.0140719
855.246	0.0140365
855.325	0.0142338
855.403	0.0142181
855.481	0.0141469
855.559	0.0140697
855.637	0.0140987
855.715	0.0141360
855.793	0.0141846
855.871	0.0141228
855.950	0.0140630
856.028	0.0139705
856.106	0.0139925
856.184	0.0138735
856.262	0.0139790
856.340	0.0139902
856.418	0.0140644
856.496	0.0142715
856.575	0.0140491
856.653	0.0140498
856.731	0.0140335
856.809	0.0139714
856.887	0.0140778
856.965	0.0140441
857.043	0.0139659
857.121	0.0141224
857.200	0.0142169
857.278	0.0140141
857.356	0.0141088
857.434	0.0140469
857.512	0.0141522
857.590	0.0140598
857.668	0.0141671
857.746	0.0141219
857.825	0.0140528
857.903	0.0140498
857.981	0.0141199
858.059	0.0140735
858.137	0.0139060
858.215	0.0141300
858.293	0.0141246
858.371	0.0141260
858.450	0.0139366
858.528	0.0138790
858.606	0.0140944
858.684	0.0140707
858.762	0.0140458
858.840	0.0140720
858.918	0.0140819
858.996	0.0140925
859.075	0.0140573
859.153	0.0140354
859.231	0.0141051
859.309	0.0141519
859.387	0.0139989
859.465	0.0139463
859.543	0.0141761
859.621	0.0140894
859.700	0.0141032
859.778	0.0139713
859.856	0.0140826
859.934	0.0141376
860.012	0.0141362
860.090	0.0141014
860.168	0.0138943
860.246	0.0140321
860.325	0.0141599
860.403	0.0140062
860.481	0.0139398
860.559	0.0140226
860.637	0.0140311
860.715	0.0141759
860.793	0.0141098
860.871	0.0138783
860.950	0.0140394
861.028	0.0141013
861.106	0.0139720
861.184	0.0141379
861.262	0.0140684
861.340	0.0140375
861.418	0.0140497
861.496	0.0140370
861.575	0.0140243
861.653	0.0141084
861.731	0.0141483
861.809	0.0141708
861.887	0.0140797
861.965	0.0140775
862.043	0.0139883
862.121	0.0141877
862.200	0.0141944
862.278	0.0140316
862.356	0.0142237
862.434	0.0141503
862.512	0.0141522
862.590	0.0141418
862.668	0.0139672
862.746	0.0141305
862.825	0.0140695
862.903	0.0139803
862.981	0.0140310
863.059	0.0140617
863.137	0.0139771
863.215	0.0140041
863.293	0.0138929
863.371	0.0139355
863.450	0.0139566
863.528	0.0138712
863.606	0.0139094
863.684	0.0137837
863.762	0.0139414
863.840	0.0140314
863.918	0.0138959
863.996	0.0140056
864.075	0.0141637
864.153	0.0140382
864.231	0.0139532
864.309	0.0140623
864.387	0.0141775
864.465	0.0140018
864.543	0.0140656
864.621	0.0141690
864.700	0.0141682
864.778	0.0142002
864.856	0.0141816
864.934	0.0142027
865.012	0.0141563
865.090	0.0142437
865.168	0.0141501
865.246	0.0142075
865.325	0.0141661
865.403	0.0142600
865.481	0.0141136
865.559	0.0140807
865.637	0.0139929
865.715	0.0140348
865.793	0.0141415
865.871	0.0140455
865.950	0.0138924
866.028	0.0139888
866.106	0.0140119
866.184	0.0139663
866.262	0.0140120
866.340	0.0140775
866.418	0.0139200
866.496	0.0141984
866.575	0.0139861
866.653	0.0140659
866.731	0.0141145
866.809	0.0140119
866.887	0.0141024
866.965	0.0141354
867.043	0.0140935
867.121	0.0142117
867.200	0.0140952
867.278	0.0141016
867.356	0.0141044
867.434	0.0140781
867.512	0.0140366
867.590	0.0141869
867.668	0.0141048
867.746	0.0141549
867.825	0.0141151
867.903	0.0140455
867.981	0.0140102
868.059	0.0140919
868.137	0.0139983
868.215	0.0139025
868.293	0.0140958
868.371	0.0140053
868.450	0.0139674
868.528	0.0139660
868.606	0.0138640
868.684	0.0140064
868.762	0.0140791
868.840	0.0140639
868.918	0.0138807
868.996	0.0140015
869.075	0.0140904
869.153	0.0142605
869.231	0.0141004
869.309	0.0138689
869.387	0.0142236
869.465	0.0142477
869.543	0.0142861
869.621	0.0141708
869.700	0.0140994
869.778	0.0142551
869.856	0.0142174
869.934	0.0141121
870.012	0.0140528
870.090	0.0142633
870.168	0.0139642
870.246	0.0140168
870.325	0.0140660
870.403	0.0139697
870.481	0.0139565
870.559	0.0140127
870.637	0.0139613
870.715	0.0139510
870.793	0.0140105
870.871	0.0139114
870.950	0.0140108
871.028	0.0139626
871.106	0.0138571
871.184	0.0139635
871.262	0.0140987
871.340	0.0140362
871.418	0.0140332
871.496	0.0140402
871.575	0.0141140
871.653	0.0140726
871.731	0.0141170
871.809	0.0141885
871.887	0.0141174
871.965	0.0140881
872.043	0.0141907
872.121	0.0141806
872.200	0.0141106
872.278	0.0142460
872.356	0.0142400
872.434	0.0140501
872.512	0.0140310
872.590	0.0140000
872.668	0.0140763
872.746	0.0140588
872.825	0.0139822
872.903	0.0138950
872.981	0.0140417
873.059	0.0140916
873.137	0.0139311
873.215	0.0139830
873.293	0.0141151
873.371	0.0140256
873.450	0.0139532
873.528	0.0140513
873.606	0.0141232
873.684	0.0139828
873.762	0.0139995
873.840	0.0141390
873.918	0.0140022
873.996	0.0139755
874.075	0.0140887
874.153	0.0140257
874.231	0.0140408
874.309	0.0140397
874.387	0.0141631
874.465	0.0140443
874.543	0.0141633
874.621	0.0141805
874.700	0.0141488
874.778	0.0140749
874.856	0.0141803
874.934	0.0140773
875.012	0.0140912
875.090	0.0140806
875.168	0.0140391
875.246	0.0140109
875.325	0.0140238
875.403	0.0140190
875.481	0.0142110
875.559	0.0140462
875.637	0.0140206
875.715	0.0139462
875.793	0.0141152
875.871	0.0140319
875.950	0.0139124
876.028	0.0139798
876.106	0.0139940
876.184	0.0141620
876.262	0.0139611
876.340	0.0141514
876.418	0.0141181
876.496	0.0141209
876.575	0.0141434
876.653	0.0140057
876.731	0.0141724
876.809	0.0141894
876.887	0.0140580
876.965	0.0140517
877.043	0.0141037
877.121	0.0139610
877.200	0.0140757
877.278	0.0140211
877.356	0.0141429
877.434	0.0139000
877.512	0.0140955
877.590	0.0141162
877.668	0.0140041
877.746	0.0139491
877.825	0.0139075
877.903	0.0139078
877.981	0.0139703
878.059	0.0139298
878.137	0.0140175
878.215	0.0139196
878.293	0.0139693
878.371	0.0138994
878.450	0.0139482
878.528	0.0140596
878.606	0.0140714
878.684	0.0141038
878.762	0.0140410
878.840	0.0139996
878.918	0.0141774
878.996	0.0141315
879.075	0.0142356
879.153	0.0141248
879.231	0.0140509
879.309	0.0139947
879.387	0.0139214
879.465	0.0139861
879.543	0.0139988
879.621	0.0140536
879.700	0.0139910
879.778	0.0141714
879.856	0.0140868
879.934	0.0139645
880.012	0.0140244
880.090	0.0141485
880.168	0.0140418
880.246	0.0140145
880.325	0.0141071
880.403	0.0140707
880.481	0.0140063
880.559	0.0140829
880.637	0.0140164
880.715	0.0140421
880.793	0.0139986
880.871	0.0140479
880.950	0.0139281
881.028	0.0139777
881.106	0.0138979
881.184	0.0140625
881.262	0.0140353
881.340	0.0140465
881.418	0.0140372
881.496	0.0141621
881.575	0.0141824
881.653	0.0141325
881.731	0.0140182
881.809	0.0140591
881.887	0.0139999
881.965	0.0140415
882.043	0.0140015
882.121	0.0140797
882.200	0.0140206
882.278	0.0139139
882.356	0.0140108
882.434	0.0140043
882.512	0.0140676
882.590	0.0139654
882.668	0.0140411
882.746	0.0139164
882.825	0.0139956
882.903	0.0140016
882.981	0.0138723
883.059	0.0140359
883.137	0.0139156
883.215	0.0140388
883.293	0.0140594
883.371	0.0140285
883.450	0.0140284
883.528	0.0140672
883.606	0.0140504
883.684	0.0140194
883.762	0.0140887
883.840	0.0140269
883.918	0.0142323
883.996	0.0141282
884.075	0.0140745
884.153	0.0140535
884.231	0.0141250
884.309	0.0141774
884.387	0.0141158
884.465	0.0140918
884.543	0.0141975
884.621	0.0140939
884.700	0.0140210
884.778	0.0140122
884.856	0.0140752
884.934	0.0139887
885.012	0.0140620
885.090	0.0141845
885.168	0.0141677
885.246	0.0139804
885.325	0.0138977
885.403	0.0139900
885.481	0.0140150
885.559	0.0140009
885.637	0.0141531
885.715	0.0140146
885.793	0.0139953
885.871	0.0141837
885.950	0.0140351
886.028	0.0140531
886.106	0.0141085
886.184	0.0141801
886.262	0.0141578
886.340	0.0140669
886.418	0.0141028
886.496	0.0141130
886.575	0.0140979
886.653	0.0141148
886.731	0.0141796
886.809	0.0140951
886.887	0.0142128
886.965	0.0140643
887.043	0.0140547
887.121	0.0139987
887.200	0.0140632
887.278	0.0138758
887.356	0.0139318
887.434	0.0138831
887.512	0.0140621
887.590	0.0139505
887.668	0.0139475
887.746	0.0139325
887.825	0.0140564
887.903	0.0139194
887.981	0.0139819
888.059	0.0139005
888.137	0.0140502
888.215	0.0141023
888.293	0.0139474
888.371	0.0139861
888.450	0.0141951
888.528	0.0140759
888.606	0.0140803
888.684	0.0141227
888.762	0.0141942
888.840	0.0140967
888.918	0.0141876
888.996	0.0142452
889.075	0.0141257
889.153	0.0140527
889.231	0.0140940
889.309	0.0140322
889.387	0.0141193
889.465	0.0138296
889.543	0.0139484
889.621	0.0141287
889.700	0.0139643
889.778	0.0139481
889.856	0.0139881
889.934	0.0140925
890.012	0.0138370
890.090	0.0139419
890.168	0.0140310
890.246	0.0140622
890.325	0.0139844
890.403	0.0141416
890.481	0.0140164
890.559	0.0139701
890.637	0.0138781
890.715	0.0139886
890.793	0.0140061
890.871	0.0139635
890.950	0.0139970
891.028	0.0140038
891.106	0.0140578
891.184	0.0140533
891.262	0.0140702
891.340	0.0141145
891.418	0.0140189
891.496	0.0141363
891.575	0.0140103
891.653	0.0139621
891.731	0.0139149
891.809	0.0139886
891.887	0.0139575
891.965	0.0139450
892.043	0.0139410
892.121	0.0141505
892.200	0.0140894
892.278	0.0139980
892.356	0.0139439
892.434	0.0139196
892.512	0.0139505
892.590	0.0140999
892.668	0.0140688
892.746	0.0139091
892.825	0.0140675
892.903	0.0139929
892.981	0.0139348
893.059	0.0140550
893.137	0.0140814
893.215	0.0140005
893.293	0.0141073
893.371	0.0139742
893.450	0.0139498
893.528	0.0140832
893.606	0.0140858
893.684	0.0141499
893.762	0.0140186
893.840	0.0140324
893.918	0.0140847
893.996	0.0139887
894.075	0.0141376
894.153	0.0140915
894.231	0.0139809
894.309	0.0140843
894.387	0.0139906
894.465	0.0141399
894.543	0.0139994
894.621	0.0139241
894.700	0.0141505
894.778	0.0141535
894.856	0.0140745
894.934	0.0139704
895.012	0.0139680
895.090	0.0140669
895.168	0.0141433
895.246	0.0140847
895.325	0.0140237
895.403	0.0140887
895.481	0.0141578
895.559	0.0142896
895.637	0.0140956
895.715	0.0141257
895.793	0.0140907
895.871	0.0142205
895.950	0.0141301
896.028	0.0140693
896.106	0.0140102
896.184	0.0141210
896.262	0.0140979
896.340	0.0141507
896.418	0.0140524
896.496	0.0141652
896.575	0.0140633
896.653	0.0140413
896.731	0.0141509
896.809	0.0139835
896.887	0.0139372
896.965	0.0139947
897.043	0.0140571
897.121	0.0139514
897.200	0.0139769
897.278	0.0140997
897.356	0.0139786
897.434	0.0140279
897.512	0.0139577
897.590	0.0139800
897.668	0.0141461
897.746	0.0141502
897.825	0.0142314
897.903	0.0142738
897.981	0.0142384
898.059	0.0142404
898.137	0.0141923
898.215	0.0142190
898.293	0.0142510
898.371	0.0140585
898.450	0.0140580
898.528	0.0141402
898.606	0.0141764
898.684	0.0141195
898.762	0.0141131
898.840	0.0140762
898.918	0.0140565
898.996	0.0140035
899.075	0.0139846
899.153	0.0140394
899.231	0.0140924
899.309	0.0140297
899.387	0.0140561
899.465	0.0140414
899.543	0.0141133
899.621	0.0140079
899.700	0.0141029
899.778	0.0140708
899.856	0.0141106
899.934	0.0141035
900.012	0.0141600
900.090	0.0140591
900.168	0.0141480
900.246	0.0140115
900.325	0.0140865
900.403	0.0140044
900.481	0.0139483
900.559	0.0140111
900.637	0.0140881
900.715	0.0139966
900.793	0.0139974
900.871	0.0139646
900.950	0.0139844
901.028	0.0139010
901.106	0.0139916
901.184	0.0140593
901.262	0.0142123
901.340	0.0139932
901.418	0.0140977
901.496	0.0140398
901.575	0.0140154
901.653	0.0140485
901.731	0.0141302
901.809	0.0142387
901.887	0.0142556
901.965	0.0142567
902.043	0.0143229
902.121	0.0144279
902.200	0.0143075
902.278	0.0143825
902.356	0.0144765
902.434	0.0143192
902.512	0.0142201
902.590	0.0141484
902.668	0.0140240
902.746	0.0139541
902.825	0.0138488
902.903	0.0138008
902.981	0.0138704
903.059	0.0138264
903.137	0.0137962
903.215	0.0136702
903.293	0.0136962
903.371	0.0138042
903.450	0.0138686
903.528	0.0139030
903.606	0.0140468
903.684	0.0141557
903.762	0.0141351
903.840	0.0141044
903.918	0.0141993
903.996	0.0143936
904.075	0.0143021
904.153	0.0143234
904.231	0.0144804
904.309	0.0144286
904.387	0.0145438
904.465	0.0142986
904.543	0.0143616
904.621	0.0142254
904.700	0.0141785
904.778	0.0139982
904.856	0.0140166
904.934	0.0140039
905.012	0.0137101
905.090	0.0139054
905.168	0.0137004
905.246	0.0137294
905.325	0.0134826
905.403	0.0137747
905.481	0.0138114
905.559	0.0136875
905.637	0.0137563
905.715	0.0138305
905.793	0.0139108
905.871	0.0139637
905.950	0.0140045
906.028	0.0140524
906.106	0.0141892
906.184	0.0141623
906.262	0.0142693
906.340	0.0142074
906.418	0.0141717
906.496	0.0141369
906.575	0.0143041
906.653	0.0142876
906.731	0.0143312
906.809	0.0141393
906.887	0.0141807
906.965	0.0141298
907.043	0.0141058
907.121	0.0140864
907.200	0.0141418
907.278	0.0140741
907.356	0.0141621
907.434	0.0141020
907.512	0.0140785
907.590	0.0140233
907.668	0.0139317
907.746	0.0139612
907.825	0.0138462
907.903	0.0138337
907.981	0.0139758
908.059	0.0140856
908.137	0.0139824
908.215	0.0140313
908.293	0.0140984
908.371	0.0140657
908.450	0.0140852
908.528	0.0140676
908.606	0.0139935
908.684	0.0139305
908.762	0.0141733
908.840	0.0139896
908.918	0.0141891
908.996	0.0141620
909.075	0.0141930
909.153	0.0142566
909.231	0.0140968
909.309	0.0142503
909.387	0.0142233
909.465	0.0140712
909.543	0.0142078
909.621	0.0142295
909.700	0.0142908
909.778	0.0142255
909.856	0.0141859
909.934	0.0142648
910.012	0.0141220
910.090	0.0142085
910.168	0.0141183
910.246	0.0141842
910.325	0.0141952
910.403	0.0140313
910.481	0.0139176
910.559	0.0141134
910.637	0.0140829
910.715	0.0139754
910.793	0.0139381
910.871	0.0139841
910.950	0.0140157
911.028	0.0140655
911.106	0.0139790
911.184	0.0138599
911.262	0.0138303
911.340	0.0140585
911.418	0.0140537
911.496	0.0140296
911.575	0.0140000
911.653	0.0140863
911.731	0.0141888
911.809	0.0141828
911.887	0.0141717
911.965	0.0142885
912.043	0.0142649
912.121	0.0143721
912.200	0.0143196
912.278	0.0143339
912.356	0.0143143
912.434	0.0143391
912.512	0.0142479
912.590	0.0141490
912.668	0.0141616
912.746	0.0139777
912.825	0.0139447
912.903	0.0138597
912.981	0.0138984
913.059	0.0138308
913.137	0.0139487
913.215	0.0137502
913.293	0.0138888
913.371	0.0138659
913.450	0.0137384
913.528	0.0138419
913.606	0.0140121
913.684	0.0139317
913.762	0.0140648
913.840	0.0140853
913.918	0.0140539
913.996	0.0141499
914.075	0.0142458
914.153	0.0141606
914.231	0.0141842
914.309	0.0142086
914.387	0.0141416
914.465	0.0143376
914.543	0.0143593
914.621	0.0144238
914.700	0.0143727
914.778	0.0142487
914.856	0.0142245
914.934	0.0141192
915.012	0.0139758
915.090	0.0140325
915.168	0.0140783
915.246	0.0139814
915.325	0.0139414
915.403	0.0138690
915.481	0.0137343
915.559	0.0136490
915.637	0.0138741
915.715	0.0137832
915.793	0.0139140
915.871	0.0138680
915.950	0.0137859
916.028	0.0139630
916.106	0.0138737
916.184	0.0140703
916.262	0.0141856
916.340	0.0141347
916.418	0.0139641
916.496	0.0141163
916.575	0.0142027
916.653	0.0143423
916.731	0.0142561
916.809	0.0143083
916.887	0.0143295
916.965	0.0143192
917.043	0.0143235
917.121	0.0142268
917.200	0.0141232
917.278	0.0139813
917.356	0.0139176
917.434	0.0140336
917.512	0.0138851
917.590	0.0140341
917.668	0.0138320
917.746	0.0137972
917.825	0.0139610
917.903	0.0137504
917.981	0.0140946
918.059	0.0140355
918.137	0.0138476
918.215	0.0139357
918.293	0.0140102
918.371	0.0140412
918.450	0.0141523
918.528	0.0141186
918.606	0.0141257
918.684	0.0141879
918.762	0.0141121
918.840	0.0141602
918.918	0.0140173
918.996	0.0141023
919.075	0.0141356
919.153	0.0141375
919.231	0.0141172
919.309	0.0141300
919.387	0.0141122
919.465	0.0140972
919.543	0.0142136
919.621	0.0140134
919.700	0.0139483
919.778	0.0140094
919.856	0.0140439
919.934	0.0140046
920.012	0.0139201
920.090	0.0139335
920.168	0.0137897
920.246	0.0139661
920.325	0.0139699
920.403	0.0138191
920.481	0.0139534
920.559	0.0139968
920.637	0.0139537
920.715	0.0139208
920.793	0.0138667
920.871	0.0140958
920.950	0.0141100
921.028	0.0142352
921.106	0.0141304
921.184	0.0141607
921.262	0.0141840
921.340	0.0140717
921.418	0.0141025
921.496	0.0141073
921.575	0.0139715
921.653	0.0140247
921.731	0.0141002
921.809	0.0139144
921.887	0.0140768
921.965	0.0141081
922.043	0.0140173
922.121	0.0140765
922.200	0.0140000
922.278	0.0139592
922.356	0.0140456
922.434	0.0141494
922.512	0.0140536
922.590	0.0139466
922.668	0.0140985
922.746	0.0140836
922.825	0.0140424
922.903	0.0141002
922.981	0.0138683
923.059	0.0140339
923.137	0.0140403
923.215	0.0139608
923.293	0.0139722
923.371	0.0140415
923.450	0.0139362
923.528	0.0139613
923.606	0.0140466
923.684	0.0141462
923.762	0.0140182
923.840	0.0140229
923.918	0.0141099
923.996	0.0140919
924.075	0.0140469
924.153	0.0140563
924.231	0.0141159
924.309	0.0141693
924.387	0.0140971
924.465	0.0140321
924.543	0.0139397
924.621	0.0139584
924.700	0.0140481
924.778	0.0140215
924.856	0.0139887
924.934	0.0138477
925.012	0.0140703
925.090	0.0139521
925.168	0.0139938
925.246	0.0140453
925.325	0.0140985
925.403	0.0141296
925.481	0.0140105
925.559	0.0141659
925.637	0.0141682
925.715	0.0142706
925.793	0.0141653
925.871	0.0141158
925.950	0.0140215
926.028	0.0141119
926.106	0.0140762
926.184	0.0140244
926.262	0.0139501
926.340	0.0140055
926.418	0.0140469
926.496	0.0139386
926.575	0.0140548
926.653	0.0139402
926.731	0.0139230
926.809	0.0138556
926.887	0.0139999
926.965	0.0139651
927.043	0.0138728
927.121	0.0140411
927.200	0.0138728
927.278	0.0139197
927.356	0.0140398
927.434	0.0139851
927.512	0.0140389
927.590	0.0139654
927.668	0.0141770
927.746	0.0141603
927.825	0.0140415
927.903	0.0141286
927.981	0.0141762
928.059	0.0141518
928.137	0.0141708
928.215	0.0141766
928.293	0.0143549
928.371	0.0143835
928.450	0.0142630
928.528	0.0141554
928.606	0.0142888
928.684	0.0142057
928.762	0.0141714
928.840	0.0142017
928.918	0.0141249
928.996	0.0140893
929.075	0.0141447
929.153	0.0140937
929.231	0.0140157
929.309	0.0139650
929.387	0.0139441
929.465	0.0139510
929.543	0.0139497
929.621	0.0139320
929.700	0.0140340
929.778	0.0140145
929.856	0.0140352
929.934	0.0139467
930.012	0.0140475
930.090	0.0141087
930.168	0.0141418
930.246	0.0140651
930.325	0.0140873
930.403	0.0142451
930.481	0.0142540
930.559	0.0142255
930.637	0.0140400
930.715	0.0142429
930.793	0.0142060
930.871	0.0141724
930.950	0.0142606
931.028	0.0140793
931.106	0.0141627
931.184	0.0141769
931.262	0.0141039
931.340	0.0139422
931.418	0.0140179
931.496	0.0140057
931.575	0.0139867
931.653	0.0139177
931.731	0.0138944
931.809	0.0139591
931.887	0.0139236
931.965	0.0139146
932.043	0.0139302
932.121	0.0137952
932.200	0.0139201
932.278	0.0139537
932.356	0.0139420
932.434	0.0139867
932.512	0.0141045
932.590	0.0140333
932.668	0.0139968
932.746	0.0140802
932.825	0.0141325
932.903	0.0141246
932.981	0.0142436
933.059	0.0141941
933.137	0.0141848
933.215	0.0142073
933.293	0.0142509
933.371	0.0142859
933.450	0.0141007
933.528	0.0141504
933.606	0.0141339
933.684	0.0142243
933.762	0.0140945
933.840	0.0141179
933.918	0.0140202
933.996	0.0140196
934.075	0.0139878
934.153	0.0138776
934.231	0.0139978
934.309	0.0138799
934.387	0.0139469
934.465	0.0138972
934.543	0.0140623
934.621	0.0141078
934.700	0.0139646
934.778	0.0139561
934.856	0.0139978
934.934	0.0140518
935.012	0.0140355
935.090	0.0139885
935.168	0.0141396
935.246	0.0141495
935.325	0.0141118
935.403	0.0140420
935.481	0.0141635
935.559	0.0141017
935.637	0.0142340
935.715	0.0142613
935.793	0.0141595
935.871	0.0141288
935.950	0.0142154
936.028	0.0140872
936.106	0.0140584
936.184	0.0140420
936.262	0.0140893
936.340	0.0140150
936.418	0.0140954
936.496	0.0140929
936.575	0.0140181
936.653	0.0140348
936.731	0.0140820
936.809	0.0139326
936.887	0.0140288
936.965	0.0139619
937.043	0.0138200
937.121	0.0138292
937.200	0.0142267
937.278	0.0140850
937.356	0.0138931
937.434	0.0139945
937.512	0.0140166
937.590	0.0141593
937.668	0.0141003
937.746	0.0141036
937.825	0.0141387
937.903	0.0141392
937.981	0.0142092
938.059	0.0141110
938.137	0.0142054
938.215	0.0141458
938.293	0.0143077
938.371	0.0142074
938.450	0.0140734
938.528	0.0141494
938.606	0.0141347
938.684	0.0141930
938.762	0.0140945
938.840	0.0141567
938.918	0.0140588
938.996	0.0139121
939.075	0.0139283
939.153	0.0139050
939.231	0.0138843
939.309	0.0138132
939.387	0.0138709
939.465	0.0139717
939.543	0.0139423
939.621	0.0139840
939.700	0.0139260
939.778	0.0140256
939.856	0.0140350
939.934	0.0138176
940.012	0.0138612
940.090	0.0140143
940.168	0.0141987
940.246	0.0139616
940.325	0.0140262
940.403	0.0141571
940.481	0.0140858
940.559	0.0141256
940.637	0.0140628
940.715	0.0140677
940.793	0.0141125
940.871	0.0140451
940.950	0.0141206
941.028	0.0142545
941.106	0.0139943
941.184	0.0139002
941.262	0.0141031
941.340	0.0140147
941.418	0.0140956
941.496	0.0140182
941.575	0.0139706
941.653	0.0139526
941.731	0.0138137
941.809	0.0139809
941.887	0.0139271
941.965	0.0140665
942.043	0.0140939
942.121	0.0140032
942.200	0.0141260
942.278	0.0140453
942.356	0.0141320
942.434	0.0141436
942.512	0.0140641
942.590	0.0141108
942.668	0.0141183
942.746	0.0141661
942.825	0.0140309
942.903	0.0140594
942.981	0.0139850
943.059	0.0140485
943.137	0.0140771
943.215	0.0141937
943.293	0.0141656
943.371	0.0139866
943.450	0.0140646
943.528	0.0141375
943.606	0.0141137
943.684	0.0141173
943.762	0.0141061
943.840	0.0141364
943.918	0.0140260
943.996	0.0140954
944.075	0.0139043
944.153	0.0140443
944.231	0.0140160
944.309	0.0139713
944.387	0.0140734
944.465	0.0140285
944.543	0.0141000
944.621	0.0140202
944.700	0.0139958
944.778	0.0141762
944.856	0.0139045
944.934	0.0140307
945.012	0.0140185
945.090	0.0139793
945.168	0.0140885
945.246	0.0140482
945.325	0.0139431
945.403	0.0141084
945.481	0.0140314
945.559	0.0139936
945.637	0.0140362
945.715	0.0140787
945.793	0.0140962
945.871	0.0141217
945.950	0.0140652
946.028	0.0140457
946.106	0.0139929
946.184	0.0138674
946.262	0.0140336
946.340	0.0140606
946.418	0.0139660
946.496	0.0140382
946.575	0.0140244
946.653	0.0139072
946.731	0.0138948
946.809	0.0139906
946.887	0.0139716
946.965	0.0138289
947.043	0.0138425
947.121	0.0139668
947.200	0.0139955
947.278	0.0139368
947.356	0.0140696
947.434	0.0139421
947.512	0.0138377
947.590	0.0138892
947.668	0.0141058
947.746	0.0141337
947.825	0.0139486
947.903	0.0140296
947.981	0.0141310
948.059	0.0138557
948.137	0.0140369
948.215	0.0141574
948.293	0.0139732
948.371	0.0140376
948.450	0.0140614
948.528	0.0139930
948.606	0.0140685
948.684	0.0140361
948.762	0.0139336
948.840	0.0139783
948.918	0.0139331
948.996	0.0140081
949.075	0.0140083
949.153	0.0139088
949.231	0.0138953
949.309	0.0138840
949.387	0.0139796
949.465	0.0139846
949.543	0.0139030
949.621	0.0139603
949.700	0.0140742
949.778	0.0140430
949.856	0.0140734
949.934	0.0140118
950.012	0.0139758
950.090	0.0141055
950.168	0.0142280
950.246	0.0140090
950.325	0.0139747
950.403	0.0140888
950.481	0.0139758
950.559	0.0140406
950.637	0.0139434
950.715	0.0139388
950.793	0.0139369
950.871	0.0140935
950.950	0.0139939
951.028	0.0139171
951.106	0.0140581
951.184	0.0139614
951.262	0.0139915
951.340	0.0140746
951.418	0.0140301
951.496	0.0139473
951.575	0.0140430
951.653	0.0140896
951.731	0.0141032
951.809	0.0140693
951.887	0.0141179
951.965	0.0142569
952.043	0.0140269
952.121	0.0140004
952.200	0.0139585
952.278	0.0138838
952.356	0.0138971
952.434	0.0139426
952.512	0.0139239
952.590	0.0140369
952.668	0.0140086
952.746	0.0139274
952.825	0.0139993
952.903	0.0139919
952.981	0.0140845
953.059	0.0139608
953.137	0.0140936
953.215	0.0140736
953.293	0.0141206
953.371	0.0139869
953.450	0.0140980
953.528	0.0138846
953.606	0.0140644
953.684	0.0141075
953.762	0.0140710
953.840	0.0140113
953.918	0.0140328
953.996	0.0140210
954.075	0.0140186
954.153	0.0139865
954.231	0.0140234
954.309	0.0139285
954.387	0.0141647
954.465	0.0140479
954.543	0.0139678
954.621	0.0140604
954.700	0.0140003
954.778	0.0139828
954.856	0.0141123
954.934	0.0141073
955.012	0.0140491
955.090	0.0140542
955.168	0.0139137
955.246	0.0140480
955.325	0.0139727
955.403	0.0139361
955.481	0.0140100
955.559	0.0138014
955.637	0.0139266
955.715	0.0140638
955.793	0.0140018
955.871	0.0140331
955.950	0.0141442
956.028	0.0141644
956.106	0.0140613
956.184	0.0141161
956.262	0.0141721
956.340	0.0141816
956.418	0.0141270
956.496	0.0142365
956.575	0.0142193
956.653	0.0142177
956.731	0.0141868
956.809	0.0141653
956.887	0.0141454
956.965	0.0141289
957.043	0.0141290
957.121	0.0139953
957.200	0.0139122
957.278	0.0139360
957.356	0.0139855
957.434	0.0140028
957.512	0.0140027
957.590	0.0140059
957.668	0.0139751
957.746	0.0139613
957.825	0.0139993
957.903	0.0139915
957.981	0.0140185
958.059	0.0140989
958.137	0.0139986
958.215	0.0141106
958.293	0.0141148
958.371	0.0140934
958.450	0.0140858
958.528	0.0140557
958.606	0.0141335
958.684	0.0140229
958.762	0.0139496
958.840	0.0139842
958.918	0.0140735
958.996	0.0140242
959.075	0.0140446
959.153	0.0140391
959.231	0.0139684
959.309	0.0140574
959.387	0.0141748
959.465	0.0138609
959.543	0.0139175
959.621	0.0138898
959.700	0.0139090
959.778	0.0140600
959.856	0.0140522
959.934	0.0140076
960.012	0.0139735
960.090	0.0140919
960.168	0.0142090
960.246	0.0139468
960.325	0.0140708
960.403	0.0140462
960.481	0.0139767
960.559	0.0141302
960.637	0.0140834
960.715	0.0139584
960.793	0.0140404
960.871	0.0138801
960.950	0.0138271
961.028	0.0138686
961.106	0.0140002
961.184	0.0139225
961.262	0.0140264
961.340	0.0139565
961.418	0.0140440
961.496	0.0140248
961.575	0.0139286
961.653	0.0140732
961.731	0.0141068
961.809	0.0141267
961.887	0.0140509
961.965	0.0139495
962.043	0.0139800
962.121	0.0141614
962.200	0.0141628
962.278	0.0140320
962.356	0.0141689
962.434	0.0140133
962.512	0.0140279
962.590	0.0139915
962.668	0.0139729
962.746	0.0140396
962.825	0.0140977
962.903	0.0140379
962.981	0.0139378
963.059	0.0140276
963.137	0.0139568
963.215	0.0141256
963.293	0.0141329
963.371	0.0139589
963.450	0.0140958
963.528	0.0141085
963.606	0.0140368
963.684	0.0140440
963.762	0.0140322
963.840	0.0141106
963.918	0.0140209
963.996	0.0139520
964.075	0.0140107
964.153	0.0140032
964.231	0.0139597
964.309	0.0141006
964.387	0.0140173
964.465	0.0141294
964.543	0.0141798
964.621	0.0140311
964.700	0.0140170
964.778	0.0140302
964.856	0.0141754
964.934	0.0141917
965.012	0.0141228
965.090	0.0138818
965.168	0.0138655
965.246	0.0140555
965.325	0.0139280
965.403	0.0141306
965.481	0.0140920
965.559	0.0140556
965.637	0.0139851
965.715	0.0141206
965.793	0.0140107
965.871	0.0141055
965.950	0.0139749
966.028	0.0140866
966.106	0.0140133
966.184	0.0141588
966.262	0.0140292
966.340	0.0140940
966.418	0.0140901
966.496	0.0141560
966.575	0.0140060
966.653	0.0140820
966.731	0.0140780
966.809	0.0142339
966.887	0.0140519
966.965	0.0142255
967.043	0.0140623
967.121	0.0140957
967.200	0.0139858
967.278	0.0139826
967.356	0.0139651
967.434	0.0140332
967.512	0.0139273
967.590	0.0139905
967.668	0.0138107
967.746	0.0139817
967.825	0.0139947
967.903	0.0139228
967.981	0.0140699
968.059	0.0140347
968.137	0.0140408
968.215	0.0140498
968.293	0.0141604
968.371	0.0140031
968.450	0.0140945
968.528	0.0139914
968.606	0.0140275
968.684	0.0140638
968.762	0.0139744
968.840	0.0139557
968.918	0.0140901
968.996	0.0141031
969.075	0.0139888
969.153	0.0140407
969.231	0.0140736
969.309	0.0140507
969.387	0.0139845
969.465	0.0140544
969.543	0.0139433
969.621	0.0139426
969.700	0.0141766
969.778	0.0138978
969.856	0.0139933
969.934	0.0141208
970.012	0.0140933
970.090	0.0140813
970.168	0.0140905
970.246	0.0140923
970.325	0.0142091
970.403	0.0140562
970.481	0.0141155
970.559	0.0141277
970.637	0.0141608
970.715	0.0141680
970.793	0.0139761
970.871	0.0139793
970.950	0.0141776
971.028	0.0140661
971.106	0.0139251
971.184	0.0141624
971.262	0.0139951
971.340	0.0140364
971.418	0.0140343
971.496	0.0140313
971.575	0.0141594
971.653	0.0139884
971.731	0.0140508
971.809	0.0138956
971.887	0.0140771
971.965	0.0139827
972.043	0.0141260
972.121	0.0140921
972.200	0.0140628
972.278	0.0139909
972.356	0.0139770
972.434	0.0139909
972.512	0.0141151
972.590	0.0140543
972.668	0.0140752
972.746	0.0140302
972.825	0.0140616
972.903	0.0141660
972.981	0.0141235
973.059	0.0139472
973.137	0.0140260
973.215	0.0141737
973.293	0.0141918
973.371	0.0141860
973.450	0.0140886
973.528	0.0141666
973.606	0.0140816
973.684	0.0141233
973.762	0.0140263
973.840	0.0139203
973.918	0.0139157
973.996	0.0140245
974.075	0.0138874
974.153	0.0140046
974.231	0.0140236
974.309	0.0139528
974.387	0.0139009
974.465	0.0138039
974.543	0.0140019
974.621	0.0140716
974.700	0.0140301
974.778	0.0140397
974.856	0.0139152
974.934	0.0140643
975.012	0.0139182
975.090	0.0140292
975.168	0.0138136
975.246	0.0139296
975.325	0.0141296
975.403	0.0140060
975.481	0.0141531
975.559	0.0140238
975.637	0.0140620
975.715	0.0140424
975.793	0.0140336
975.871	0.0140747
975.950	0.0140210
976.028	0.0140315
976.106	0.0139023
976.184	0.0139589
976.262	0.0140838
976.340	0.0139317
976.418	0.0140480
976.496	0.0140725
976.575	0.0140157
976.653	0.0140594
976.731	0.0140249
976.809	0.0139072
976.887	0.0140651
976.965	0.0139918
977.043	0.0139919
977.121	0.0141365
977.200	0.0140347
977.278	0.0140188
977.356	0.0140520
977.434	0.0139700
977.512	0.0140908
977.590	0.0141078
977.668	0.0139594
977.746	0.0138321
977.825	0.0140646
977.903	0.0140692
977.981	0.0140767
978.059	0.0140272
978.137	0.0140858
978.215	0.0140184
978.293	0.0139394
978.371	0.0139894
978.450	0.0139946
978.528	0.0140585
978.606	0.0140057
978.684	0.0139868
978.762	0.0140372
978.840	0.0140810
978.918	0.0141859
978.996	0.0139625
979.075	0.0140806
979.153	0.0140286
979.231	0.0139876
979.309	0.0141187
979.387	0.0141023
979.465	0.0140411
979.543	0.0139194
979.621	0.0140216
979.700	0.0141299
979.778	0.0140589
979.856	0.0139102
979.934	0.0140691
980.012	0.0141214
980.090	0.0141827
980.168	0.0140930
980.246	0.0139304
980.325	0.0139517
980.403	0.0140962
980.481	0.0139788
980.559	0.0139930
980.637	0.0140667
980.715	0.0140482
980.793	0.0139103
980.871	0.0140190
980.950	0.0139968
981.028	0.0140946
981.106	0.0140765
981.184	0.0140883
981.262	0.0140163
981.340	0.0141735
981.418	0.0140990
981.496	0.0141286
981.575	0.0140659
981.653	0.0140091
981.731	0.0140520
981.809	0.0139178
981.887	0.0140611
981.965	0.0139931
982.043	0.0138268
982.121	0.0139468
982.200	0.0139297
982.278	0.0140074
982.356	0.0138803
982.434	0.0140562
982.512	0.0140588
982.590	0.0139978
982.668	0.0139378
982.746	0.0138902
982.825	0.0140462
982.903	0.0140887
982.981	0.0140359
983.059	0.0139737
983.137	0.0141541
983.215	0.0140618
983.293	0.0139442
983.371	0.0140769
983.450	0.0139975
983.528	0.0140449
983.606	0.0140988
983.684	0.0139893
983.762	0.0141432
983.840	0.0140626
983.918	0.0141045
983.996	0.0139861
984.075	0.0139939
984.153	0.0140605
984.231	0.0139320
984.309	0.0139881
984.387	0.0141555
984.465	0.0140353
984.543	0.0139304
984.621	0.0138452
984.700	0.0140626
984.778	0.0140809
984.856	0.0138551
984.934	0.0140220
985.012	0.0139424
985.090	0.0139774
985.168	0.0140700
985.246	0.0140421
985.325	0.0140308
985.403	0.0140504
985.481	0.0140684
985.559	0.0140159
985.637	0.0142142
985.715	0.0141766
985.793	0.0141288
985.871	0.0140586
985.950	0.0140082
986.028	0.0140844
986.106	0.0140863
986.184	0.0140157
986.262	0.0140395
986.340	0.0139529
986.418	0.0139368
986.496	0.0139513
986.575	0.0140730
986.653	0.0140298
986.731	0.0141006
986.809	0.0140408
986.887	0.0140258
986.965	0.0139413
987.043	0.0139938
987.121	0.0140244
987.200	0.0138997
987.278	0.0139151
987.356	0.0139085
987.434	0.0140743
987.512	0.0139767
987.590	0.0139306
987.668	0.0140444
987.746	0.0140213
987.825	0.0140261
987.903	0.0141360
987.981	0.0140998
988.059	0.0140240
988.137	0.0140938
988.215	0.0141847
988.293	0.0141515
988.371	0.0141032
988.450	0.0141719
988.528	0.0141119
988.606	0.0142281
988.684	0.0141498
988.762	0.0140990
988.840	0.0140375
988.918	0.0141683
988.996	0.0141350
989.075	0.0140623
989.153	0.0140894
989.231	0.0140729
989.309	0.0140027
989.387	0.0139893
989.465	0.0139060
989.543	0.0140916
989.621	0.0140630
989.700	0.0140853
989.778	0.0140327
989.856	0.0139896
989.934	0.0139214
990.012	0.0140884
990.090	0.0139491
990.168	0.0140768
990.246	0.0140892
990.325	0.0140825
990.403	0.0140202
990.481	0.0140600
990.559	0.0140801
990.637	0.0141764
990.715	0.0140214
990.793	0.0140012
990.871	0.0140806
990.950	0.0142018
991.028	0.0139731
991.106	0.0140671
991.184	0.0140591
991.262	0.0141228
991.340	0.0141655
991.418	0.0141115
991.496	0.0140164
991.575	0.0140186
991.653	0.0140321
991.731	0.0140650
991.809	0.0139632
991.887	0.0139328
991.965	0.0139854
992.043	0.0139983
992.121	0.0140442
992.200	0.0139563
992.278	0.0140596
992.356	0.0141085
992.434	0.0140498
992.512	0.0139515
992.590	0.0140318
992.668	0.0142289
992.746	0.0141817
992.825	0.0140661
992.903	0.0142382
992.981	0.0141931
993.059	0.0142944
993.137	0.0142238
993.215	0.0141431
993.293	0.0141015
993.371	0.0141949
993.450	0.0142529
993.528	0.0142097
993.606	0.0141705
993.684	0.0140762
993.762	0.0141927
993.840	0.0140746
993.918	0.0139182
993.996	0.0141034
994.075	0.0141586
994.153	0.0139999
994.231	0.0139892
994.309	0.0138201
994.387	0.0138971
994.465	0.0140005
994.543	0.0140778
994.621	0.0139330
994.700	0.0140780
994.778	0.0139322
994.856	0.0139951
994.934	0.0140352
995.012	0.0141002
995.090	0.0141360
995.168	0.0139154
995.246	0.0140274
995.325	0.0140759
995.403	0.0140339
995.481	0.0141598
995.559	0.0140986
995.637	0.0139925
995.715	0.0140343
995.793	0.0140430
995.871	0.0141547
995.950	0.0140200
996.028	0.0141473
996.106	0.0140166
996.184	0.0140771
996.262	0.0139746
996.340	0.0138640
996.418	0.0139262
996.496	0.0140094
996.575	0.0138758
996.653	0.0139991
996.731	0.0140089
996.809	0.0140019
996.887	0.0140546
996.965	0.0139774
997.043	0.0140459
997.121	0.0141779
997.200	0.0140933
997.278	0.0140955
997.356	0.0140594
997.434	0.0140241
997.512	0.0140987
997.590	0.0140762
997.668	0.0141521
997.746	0.0140607
997.825	0.0140577
997.903	0.0141233
997.981	0.0140606
998.059	0.0139770
998.137	0.0139605
998.215	0.0140205
998.293	0.0139942
998.371	0.0141048
998.450	0.0139653
998.528	0.0139683
998.606	0.0139494
998.684	0.0140795
998.762	0.0140311
998.840	0.0139687
998.918	0.0139916
