05/04/2022	21:05:22	Ver.	4.1	UNKNOWN
Optical Delay	678.996401	Delta X		0.078125	Sweeps	1	Scan Rate	0/0
Coordinates	Axis 1	NaN	Axis 2	NaN	Axis 3	NaN	Axis 4	NaN	Axis 5	NaN	Axis 6	0.000000
TX Power	0.000000	RX Power	0.000000

678.996	0.0145138
679.075	0.0145413
679.153	0.0144689
679.231	0.0144720
679.309	0.0145066
679.387	0.0144410
679.465	0.0145081
679.543	0.0146471
679.621	0.0147020
679.700	0.0145619
679.778	0.0144031
679.856	0.0144126
679.934	0.0144202
680.012	0.0144806
680.090	0.0145406
680.168	0.0146314
680.246	0.0145605
680.325	0.0144199
680.403	0.0145542
680.481	0.0145561
680.559	0.0144953
680.637	0.0145922
680.715	0.0144501
680.793	0.0145943
680.871	0.0147268
680.950	0.0145032
681.028	0.0144273
681.106	0.0145650
681.184	0.0145536
681.262	0.0144839
681.340	0.0145567
681.418	0.0145643
681.496	0.0146680
681.575	0.0145239
681.653	0.0145361
681.731	0.0144720
681.809	0.0144736
681.887	0.0145538
681.965	0.0145048
682.043	0.0144994
682.121	0.0146123
682.200	0.0145210
682.278	0.0145585
682.356	0.0145282
682.434	0.0143759
682.512	0.0145315
682.590	0.0145318
682.668	0.0144913
682.746	0.0143484
682.825	0.0145028
682.903	0.0145502
682.981	0.0146374
683.059	0.0145599
683.137	0.0144951
683.215	0.0144646
683.293	0.0146108
683.371	0.0144920
683.450	0.0143943
683.528	0.0145722
683.606	0.0144917
683.684	0.0145432
683.762	0.0146151
683.840	0.0144700
683.918	0.0146151
683.996	0.0146257
684.075	0.0144583
684.153	0.0144342
684.231	0.0144873
684.309	0.0146256
684.387	0.0145192
684.465	0.0145007
684.543	0.0146030
684.621	0.0145319
684.700	0.0144296
684.778	0.0144700
684.856	0.0143961
684.934	0.0145511
685.012	0.0145444
685.090	0.0146172
685.168	0.0144695
685.246	0.0144965
685.325	0.0144926
685.403	0.0146413
685.481	0.0144829
685.559	0.0144308
685.637	0.0144546
685.715	0.0145211
685.793	0.0144061
685.871	0.0144984
685.950	0.0144418
686.028	0.0145542
686.106	0.0144869
686.184	0.0145562
686.262	0.0144887
686.340	0.0145010
686.418	0.0143822
686.496	0.0145677
686.575	0.0145264
686.653	0.0145503
686.731	0.0145302
686.809	0.0143380
686.887	0.0146102
686.965	0.0144571
687.043	0.0144955
687.121	0.0144131
687.200	0.0145848
687.278	0.0144494
687.356	0.0145403
687.434	0.0145297
687.512	0.0145042
687.590	0.0145374
687.668	0.0144146
687.746	0.0145501
687.825	0.0146201
687.903	0.0145121
687.981	0.0145515
688.059	0.0143989
688.137	0.0143417
688.215	0.0147040
688.293	0.0145968
688.371	0.0145202
688.450	0.0145101
688.528	0.0146165
688.606	0.0145202
688.684	0.0145682
688.762	0.0144982
688.840	0.0145821
688.918	0.0145398
688.996	0.0144373
689.075	0.0144700
689.153	0.0145308
689.231	0.0145519
689.309	0.0144144
689.387	0.0144888
689.465	0.0145106
689.543	0.0145486
689.621	0.0144247
689.700	0.0144310
689.778	0.0145362
689.856	0.0143486
689.934	0.0145513
690.012	0.0145456
690.090	0.0144852
690.168	0.0143959
690.246	0.0145702
690.325	0.0145393
690.403	0.0144333
690.481	0.0144522
690.559	0.0145611
690.637	0.0143344
690.715	0.0144921
690.793	0.0145701
690.871	0.0145751
690.950	0.0146059
691.028	0.0144646
691.106	0.0146165
691.184	0.0145029
691.262	0.0144997
691.340	0.0144220
691.418	0.0143882
691.496	0.0144634
691.575	0.0144471
691.653	0.0144540
691.731	0.0145999
691.809	0.0145657
691.887	0.0146527
691.965	0.0145935
692.043	0.0145152
692.121	0.0145334
692.200	0.0145539
692.278	0.0144601
692.356	0.0144323
692.434	0.0145084
692.512	0.0144604
692.590	0.0145789
692.668	0.0144144
692.746	0.0145329
692.825	0.0144732
692.903	0.0146756
692.981	0.0145375
693.059	0.0145630
693.137	0.0145821
693.215	0.0145149
693.293	0.0143970
693.371	0.0146175
693.450	0.0144682
693.528	0.0144754
693.606	0.0145483
693.684	0.0146044
693.762	0.0144628
693.840	0.0145284
693.918	0.0145811
693.996	0.0145248
694.075	0.0146060
694.153	0.0146490
694.231	0.0145084
694.309	0.0146711
694.387	0.0145968
694.465	0.0144301
694.543	0.0146767
694.621	0.0145052
694.700	0.0145678
694.778	0.0146268
694.856	0.0145740
694.934	0.0144971
695.012	0.0144853
695.090	0.0144496
695.168	0.0144806
695.246	0.0145567
695.325	0.0145638
695.403	0.0146051
695.481	0.0144853
695.559	0.0145224
695.637	0.0145571
695.715	0.0145247
695.793	0.0145055
695.871	0.0145509
695.950	0.0145826
696.028	0.0145513
696.106	0.0144954
696.184	0.0145095
696.262	0.0145115
696.340	0.0144436
696.418	0.0144521
696.496	0.0144241
696.575	0.0144981
696.653	0.0144916
696.731	0.0145448
696.809	0.0144789
696.887	0.0144873
696.965	0.0145132
697.043	0.0146644
697.121	0.0146712
697.200	0.0145493
697.278	0.0145962
697.356	0.0145502
697.434	0.0144991
697.512	0.0146828
697.590	0.0145157
697.668	0.0145072
697.746	0.0144092
697.825	0.0145870
697.903	0.0146156
697.981	0.0145130
698.059	0.0144947
698.137	0.0144154
698.215	0.0144931
698.293	0.0146148
698.371	0.0145707
698.450	0.0145073
698.528	0.0145268
698.606	0.0144567
698.684	0.0145148
698.762	0.0146437
698.840	0.0145680
698.918	0.0146404
698.996	0.0146571
699.075	0.0143790
699.153	0.0145626
699.231	0.0145562
699.309	0.0144986
699.387	0.0144476
699.465	0.0144791
699.543	0.0146436
699.621	0.0145599
699.700	0.0146253
699.778	0.0144418
699.856	0.0146339
699.934	0.0146194
700.012	0.0144505
700.090	0.0144850
700.168	0.0145720
700.246	0.0146078
700.325	0.0144302
700.403	0.0144946
700.481	0.0145486
700.559	0.0145692
700.637	0.0144520
700.715	0.0145998
700.793	0.0145542
700.871	0.0144320
700.950	0.0145615
701.028	0.0146341
701.106	0.0145132
701.184	0.0147237
701.262	0.0146154
701.340	0.0146513
701.418	0.0147014
701.496	0.0147337
701.575	0.0145916
701.653	0.0146579
701.731	0.0146276
701.809	0.0146791
701.887	0.0146737
701.965	0.0145634
702.043	0.0146879
702.121	0.0146834
702.200	0.0144255
702.278	0.0146504
702.356	0.0147290
702.434	0.0146372
702.512	0.0146008
702.590	0.0145749
702.668	0.0146995
702.746	0.0144743
702.825	0.0145794
702.903	0.0146012
702.981	0.0146309
703.059	0.0146756
703.137	0.0145609
703.215	0.0145652
703.293	0.0147527
703.371	0.0145471
703.450	0.0146822
703.528	0.0146490
703.606	0.0147656
703.684	0.0147230
703.762	0.0145876
703.840	0.0145992
703.918	0.0146866
703.996	0.0145116
704.075	0.0144328
704.153	0.0143200
704.231	0.0144269
704.309	0.0144023
704.387	0.0144118
704.465	0.0144341
704.543	0.0143139
704.621	0.0141776
704.700	0.0141355
704.778	0.0142921
704.856	0.0143600
704.934	0.0143872
705.012	0.0144016
705.090	0.0146220
705.168	0.0145411
705.246	0.0145688
705.325	0.0149483
705.403	0.0150482
705.481	0.0152029
705.559	0.0152445
705.637	0.0152369
705.715	0.0151888
705.793	0.0152062
705.871	0.0148588
705.950	0.0145719
706.028	0.0142850
706.106	0.0140132
706.184	0.0137551
706.262	0.0136506
706.340	0.0134434
706.418	0.0136205
706.496	0.0136509
706.575	0.0136146
706.653	0.0136299
706.731	0.0139140
706.809	0.0140042
706.887	0.0141583
706.965	0.0144540
707.043	0.0147404
707.121	0.0150684
707.200	0.0152421
707.278	0.0154654
707.356	0.0156563
707.434	0.0157590
707.512	0.0158922
707.590	0.0159745
707.668	0.0159547
707.746	0.0157414
707.825	0.0157437
707.903	0.0156841
707.981	0.0153339
708.059	0.0148266
708.137	0.0145831
708.215	0.0142413
708.293	0.0137978
708.371	0.0133760
708.450	0.0131146
708.528	0.0130222
708.606	0.0128517
708.684	0.0129544
708.762	0.0131244
708.840	0.0130696
708.918	0.0131767
708.996	0.0133979
709.075	0.0133835
709.153	0.0133764
709.231	0.0134372
709.309	0.0138001
709.387	0.0141808
709.465	0.0144437
709.543	0.0148704
709.621	0.0152300
709.700	0.0155435
709.778	0.0161029
709.856	0.0162171
709.934	0.0164135
710.012	0.0166092
710.090	0.0167902
710.168	0.0168079
710.246	0.0165833
710.325	0.0163026
710.403	0.0160901
710.481	0.0156166
710.559	0.0151161
710.637	0.0144246
710.715	0.0137101
710.793	0.0131605
710.871	0.0126258
710.950	0.0123407
711.028	0.0121075
711.106	0.0119871
711.184	0.0117650
711.262	0.0117588
711.340	0.0118703
711.418	0.0121004
711.496	0.0124056
711.575	0.0129213
711.653	0.0135020
711.731	0.0141003
711.809	0.0149312
711.887	0.0155453
711.965	0.0163479
712.043	0.0167619
712.121	0.0171195
712.200	0.0172874
712.278	0.0172536
712.356	0.0171634
712.434	0.0169961
712.512	0.0167319
712.590	0.0162884
712.668	0.0161572
712.746	0.0157922
712.825	0.0153668
712.903	0.0148110
712.981	0.0144790
713.059	0.0142785
713.137	0.0138449
713.215	0.0136492
713.293	0.0134791
713.371	0.0133423
713.450	0.0129761
713.528	0.0126547
713.606	0.0125103
713.684	0.0126871
713.762	0.0123244
713.840	0.0124405
713.918	0.0123628
713.996	0.0125611
714.075	0.0129063
714.153	0.0132739
714.231	0.0137225
714.309	0.0143197
714.387	0.0147830
714.465	0.0150938
714.543	0.0157230
714.621	0.0160251
714.700	0.0162534
714.778	0.0166447
714.856	0.0166119
714.934	0.0165965
715.012	0.0164851
715.090	0.0163853
715.168	0.0161655
715.246	0.0159318
715.325	0.0156803
715.403	0.0151427
715.481	0.0149689
715.559	0.0146452
715.637	0.0142949
715.715	0.0140572
715.793	0.0138190
715.871	0.0137791
715.950	0.0136926
716.028	0.0136302
716.106	0.0135853
716.184	0.0133612
716.262	0.0133208
716.340	0.0133838
716.418	0.0132876
716.496	0.0131570
716.575	0.0130173
716.653	0.0131865
716.731	0.0131276
716.809	0.0133558
716.887	0.0136277
716.965	0.0137881
717.043	0.0141941
717.121	0.0145567
717.200	0.0149089
717.278	0.0154050
717.356	0.0158157
717.434	0.0159847
717.512	0.0162200
717.590	0.0162536
717.668	0.0161933
717.746	0.0162600
717.825	0.0158633
717.903	0.0156044
717.981	0.0153176
718.059	0.0150700
718.137	0.0146591
718.215	0.0144701
718.293	0.0142525
718.371	0.0139693
718.450	0.0139175
718.528	0.0138110
718.606	0.0136150
718.684	0.0136824
718.762	0.0134711
718.840	0.0133187
718.918	0.0131989
718.996	0.0131454
719.075	0.0134830
719.153	0.0135611
719.231	0.0135847
719.309	0.0137852
719.387	0.0141051
719.465	0.0143803
719.543	0.0145090
719.621	0.0148433
719.700	0.0152691
719.778	0.0154478
719.856	0.0157478
719.934	0.0157843
720.012	0.0155879
720.090	0.0158056
720.168	0.0156722
720.246	0.0155918
720.325	0.0154732
720.403	0.0152962
720.481	0.0149162
720.559	0.0146198
720.637	0.0142834
720.715	0.0140408
720.793	0.0137453
720.871	0.0136290
720.950	0.0132929
721.028	0.0132469
721.106	0.0130956
721.184	0.0131236
721.262	0.0130948
721.340	0.0132363
721.418	0.0134576
721.496	0.0136288
721.575	0.0138191
721.653	0.0140723
721.731	0.0141142
721.809	0.0144471
721.887	0.0147928
721.965	0.0151212
722.043	0.0153448
722.121	0.0154733
722.200	0.0156958
722.278	0.0159673
722.356	0.0158875
722.434	0.0158662
722.512	0.0157146
722.590	0.0155767
722.668	0.0155289
722.746	0.0151646
722.825	0.0151331
722.903	0.0149418
722.981	0.0146365
723.059	0.0143982
723.137	0.0142840
723.215	0.0139188
723.293	0.0138950
723.371	0.0136905
723.450	0.0134686
723.528	0.0134027
723.606	0.0133052
723.684	0.0134811
723.762	0.0133914
723.840	0.0133838
723.918	0.0137089
723.996	0.0138548
724.075	0.0140256
724.153	0.0143372
724.231	0.0148953
724.309	0.0150095
724.387	0.0150879
724.465	0.0155138
724.543	0.0156390
724.621	0.0157066
724.700	0.0157595
724.778	0.0156773
724.856	0.0152792
724.934	0.0150491
725.012	0.0148324
725.090	0.0145171
725.168	0.0141341
725.246	0.0138045
725.325	0.0135229
725.403	0.0133457
725.481	0.0131783
725.559	0.0131802
725.637	0.0132439
725.715	0.0135315
725.793	0.0139024
725.871	0.0140318
725.950	0.0143742
726.028	0.0147028
726.106	0.0150099
726.184	0.0152666
726.262	0.0153545
726.340	0.0156335
726.418	0.0157568
726.496	0.0157791
726.575	0.0157867
726.653	0.0156604
726.731	0.0156679
726.809	0.0156548
726.887	0.0154266
726.965	0.0152192
727.043	0.0150115
727.121	0.0149327
727.200	0.0146102
727.278	0.0142766
727.356	0.0141140
727.434	0.0138461
727.512	0.0136388
727.590	0.0133603
727.668	0.0131572
727.746	0.0130334
727.825	0.0128233
727.903	0.0128363
727.981	0.0127424
728.059	0.0127341
728.137	0.0128767
728.215	0.0130494
728.293	0.0134201
728.371	0.0136155
728.450	0.0140685
728.528	0.0144123
728.606	0.0149881
728.684	0.0155162
728.762	0.0159321
728.840	0.0163285
728.918	0.0164751
728.996	0.0166789
729.075	0.0166923
729.153	0.0166968
729.231	0.0165971
729.309	0.0164857
729.387	0.0160103
729.465	0.0156779
729.543	0.0154128
729.621	0.0150274
729.700	0.0145676
729.778	0.0141512
729.856	0.0137634
729.934	0.0134235
730.012	0.0130117
730.090	0.0127565
730.168	0.0126204
730.246	0.0125058
730.325	0.0127858
730.403	0.0128242
730.481	0.0130294
730.559	0.0134070
730.637	0.0137321
730.715	0.0138406
730.793	0.0142683
730.871	0.0144222
730.950	0.0146274
731.028	0.0150584
731.106	0.0152930
731.184	0.0154252
731.262	0.0156120
731.340	0.0157185
731.418	0.0157234
731.496	0.0157722
731.575	0.0156544
731.653	0.0156652
731.731	0.0154057
731.809	0.0152163
731.887	0.0151917
731.965	0.0149516
732.043	0.0147001
732.121	0.0146843
732.200	0.0143976
732.278	0.0142439
732.356	0.0139796
732.434	0.0139043
732.512	0.0136745
732.590	0.0134384
732.668	0.0134805
732.746	0.0135217
732.825	0.0134577
732.903	0.0132718
732.981	0.0133755
733.059	0.0134921
733.137	0.0136116
733.215	0.0140283
733.293	0.0141872
733.371	0.0144446
733.450	0.0146912
733.528	0.0150719
733.606	0.0153067
733.684	0.0156062
733.762	0.0157249
733.840	0.0156687
733.918	0.0159215
733.996	0.0159681
734.075	0.0157811
734.153	0.0155447
734.231	0.0154490
734.309	0.0151202
734.387	0.0148573
734.465	0.0145362
734.543	0.0141869
734.621	0.0138567
734.700	0.0137172
734.778	0.0135793
734.856	0.0133900
734.934	0.0132398
735.012	0.0133450
735.090	0.0134175
735.168	0.0133591
735.246	0.0135258
735.325	0.0137047
735.403	0.0138062
735.481	0.0140241
735.559	0.0141895
735.637	0.0142368
735.715	0.0143055
735.793	0.0146273
735.871	0.0149207
735.950	0.0149077
736.028	0.0150677
736.106	0.0151003
736.184	0.0152181
736.262	0.0151710
736.340	0.0154791
736.418	0.0154692
736.496	0.0152563
736.575	0.0153508
736.653	0.0152779
736.731	0.0151012
736.809	0.0151246
736.887	0.0147769
736.965	0.0147071
737.043	0.0144440
737.121	0.0143005
737.200	0.0140782
737.278	0.0138239
737.356	0.0136852
737.434	0.0135261
737.512	0.0133972
737.590	0.0133978
737.668	0.0134060
737.746	0.0135323
737.825	0.0136683
737.903	0.0137884
737.981	0.0139149
738.059	0.0143336
738.137	0.0147375
738.215	0.0149171
738.293	0.0151221
738.371	0.0154445
738.450	0.0155048
738.528	0.0157236
738.606	0.0157584
738.684	0.0156474
738.762	0.0158640
738.840	0.0155862
738.918	0.0155303
738.996	0.0152613
739.075	0.0151919
739.153	0.0150625
739.231	0.0146124
739.309	0.0142622
739.387	0.0140198
739.465	0.0139342
739.543	0.0136630
739.621	0.0133715
739.700	0.0132417
739.778	0.0132730
739.856	0.0131862
739.934	0.0131156
740.012	0.0131482
740.090	0.0134950
740.168	0.0136347
740.246	0.0136961
740.325	0.0139580
740.403	0.0141871
740.481	0.0144124
740.559	0.0147250
740.637	0.0149879
740.715	0.0150817
740.793	0.0152586
740.871	0.0153670
740.950	0.0156312
741.028	0.0157005
741.106	0.0156187
741.184	0.0155231
741.262	0.0155865
741.340	0.0155674
741.418	0.0155362
741.496	0.0155051
741.575	0.0152689
741.653	0.0148993
741.731	0.0148666
741.809	0.0146622
741.887	0.0141733
741.965	0.0141029
742.043	0.0138971
742.121	0.0137312
742.200	0.0136008
742.278	0.0133138
742.356	0.0132162
742.434	0.0132578
742.512	0.0132616
742.590	0.0131930
742.668	0.0132812
742.746	0.0135658
742.825	0.0136049
742.903	0.0136337
742.981	0.0139819
743.059	0.0141762
743.137	0.0145142
743.215	0.0148431
743.293	0.0149770
743.371	0.0151751
743.450	0.0152245
743.528	0.0155199
743.606	0.0155127
743.684	0.0156127
743.762	0.0155254
743.840	0.0155931
743.918	0.0155637
743.996	0.0153835
744.075	0.0152747
744.153	0.0150488
744.231	0.0148166
744.309	0.0146104
744.387	0.0142975
744.465	0.0141704
744.543	0.0141870
744.621	0.0137243
744.700	0.0135387
744.778	0.0134585
744.856	0.0134468
744.934	0.0134708
745.012	0.0133920
745.090	0.0135487
745.168	0.0135729
745.246	0.0136861
745.325	0.0137866
745.403	0.0139525
745.481	0.0141728
745.559	0.0143909
745.637	0.0145720
745.715	0.0148142
745.793	0.0149310
745.871	0.0151006
745.950	0.0152497
746.028	0.0152551
746.106	0.0151945
746.184	0.0154507
746.262	0.0155362
746.340	0.0153420
746.418	0.0153541
746.496	0.0151309
746.575	0.0152077
746.653	0.0151411
746.731	0.0148457
746.809	0.0146255
746.887	0.0144588
746.965	0.0144071
747.043	0.0140834
747.121	0.0140287
747.200	0.0139259
747.278	0.0138151
747.356	0.0136835
747.434	0.0138522
747.512	0.0136138
747.590	0.0136465
747.668	0.0137642
747.746	0.0136875
747.825	0.0139735
747.903	0.0139578
747.981	0.0140877
748.059	0.0141936
748.137	0.0144608
748.215	0.0148904
748.293	0.0149309
748.371	0.0149271
748.450	0.0149412
748.528	0.0149857
748.606	0.0151008
748.684	0.0151256
748.762	0.0149422
748.840	0.0151855
748.918	0.0151572
748.996	0.0149788
749.075	0.0148956
749.153	0.0147771
749.231	0.0148085
749.309	0.0145045
749.387	0.0143618
749.465	0.0142107
749.543	0.0141827
749.621	0.0140783
749.700	0.0139652
749.778	0.0139826
749.856	0.0140607
749.934	0.0139011
750.012	0.0140136
750.090	0.0138821
750.168	0.0140836
750.246	0.0141119
750.325	0.0142963
750.403	0.0143433
750.481	0.0144295
750.559	0.0145627
750.637	0.0146776
750.715	0.0146806
750.793	0.0149168
750.871	0.0148715
750.950	0.0150657
751.028	0.0150243
751.106	0.0152423
751.184	0.0152698
751.262	0.0150457
751.340	0.0150674
751.418	0.0151355
751.496	0.0151242
751.575	0.0149989
751.653	0.0149988
751.731	0.0149409
751.809	0.0146346
751.887	0.0144563
751.965	0.0144415
752.043	0.0141900
752.121	0.0140972
752.200	0.0139962
752.278	0.0140129
752.356	0.0138889
752.434	0.0139058
752.512	0.0139757
752.590	0.0139663
752.668	0.0138910
752.746	0.0138425
752.825	0.0138979
752.903	0.0141143
752.981	0.0141518
753.059	0.0143134
753.137	0.0143954
753.215	0.0145346
753.293	0.0146836
753.371	0.0147444
753.450	0.0149050
753.528	0.0147865
753.606	0.0149267
753.684	0.0148079
753.762	0.0149139
753.840	0.0148875
753.918	0.0148802
753.996	0.0148523
754.075	0.0149165
754.153	0.0147736
754.231	0.0146000
754.309	0.0145862
754.387	0.0143626
754.465	0.0143022
754.543	0.0143071
754.621	0.0142155
754.700	0.0140243
754.778	0.0139247
754.856	0.0139762
754.934	0.0139782
755.012	0.0138589
755.090	0.0139479
755.168	0.0139289
755.246	0.0141451
755.325	0.0140884
755.403	0.0141630
755.481	0.0142974
755.559	0.0144888
755.637	0.0144721
755.715	0.0147228
755.793	0.0147453
755.871	0.0149064
755.950	0.0149155
756.028	0.0150207
756.106	0.0149802
756.184	0.0150306
756.262	0.0149589
756.340	0.0150748
756.418	0.0148941
756.496	0.0148410
756.575	0.0147712
756.653	0.0146803
756.731	0.0145659
756.809	0.0143854
756.887	0.0143478
756.965	0.0142259
757.043	0.0141141
757.121	0.0141241
757.200	0.0140239
757.278	0.0140513
757.356	0.0139671
757.434	0.0139137
757.512	0.0138924
757.590	0.0139230
757.668	0.0140037
757.746	0.0140629
757.825	0.0141422
757.903	0.0143179
757.981	0.0143517
758.059	0.0143865
758.137	0.0146337
758.215	0.0146241
758.293	0.0145350
758.371	0.0147231
758.450	0.0147606
758.528	0.0148140
758.606	0.0149401
758.684	0.0149123
758.762	0.0148126
758.840	0.0148466
758.918	0.0149446
758.996	0.0148386
759.075	0.0147266
759.153	0.0148243
759.231	0.0148090
759.309	0.0146985
759.387	0.0145990
759.465	0.0144704
759.543	0.0144698
759.621	0.0143911
759.700	0.0143631
759.778	0.0141837
759.856	0.0143545
759.934	0.0143357
760.012	0.0143082
760.090	0.0143121
760.168	0.0140731
760.246	0.0142677
760.325	0.0142900
760.403	0.0143465
760.481	0.0143387
760.559	0.0144812
760.637	0.0144358
760.715	0.0144836
760.793	0.0144460
760.871	0.0145017
760.950	0.0145898
761.028	0.0147264
761.106	0.0147879
761.184	0.0147256
761.262	0.0148730
761.340	0.0148346
761.418	0.0149229
761.496	0.0147546
761.575	0.0147246
761.653	0.0147415
761.731	0.0146590
761.809	0.0145455
761.887	0.0145488
761.965	0.0145275
762.043	0.0144282
762.121	0.0144653
762.200	0.0143233
762.278	0.0142817
762.356	0.0142949
762.434	0.0142285
762.512	0.0141242
762.590	0.0141421
762.668	0.0142056
762.746	0.0140979
762.825	0.0141760
762.903	0.0141237
762.981	0.0142609
763.059	0.0144481
763.137	0.0145140
763.215	0.0144262
763.293	0.0145218
763.371	0.0144559
763.450	0.0145882
763.528	0.0147305
763.606	0.0146854
763.684	0.0147734
763.762	0.0148584
763.840	0.0148279
763.918	0.0146042
763.996	0.0147411
764.075	0.0147888
764.153	0.0146754
764.231	0.0146613
764.309	0.0147234
764.387	0.0147115
764.465	0.0146097
764.543	0.0145525
764.621	0.0145572
764.700	0.0145007
764.778	0.0145081
764.856	0.0142784
764.934	0.0141624
765.012	0.0141947
765.090	0.0142199
765.168	0.0140793
765.246	0.0140379
765.325	0.0140719
765.403	0.0141814
765.481	0.0142085
765.559	0.0141449
765.637	0.0142640
765.715	0.0143584
765.793	0.0144852
765.871	0.0143906
765.950	0.0146510
766.028	0.0145871
766.106	0.0146474
766.184	0.0148005
766.262	0.0146917
766.340	0.0146466
766.418	0.0147621
766.496	0.0146093
766.575	0.0145611
766.653	0.0148130
766.731	0.0147241
766.809	0.0146870
766.887	0.0147127
766.965	0.0145354
767.043	0.0146471
767.121	0.0144714
767.200	0.0143688
767.278	0.0143513
767.356	0.0143975
767.434	0.0143053
767.512	0.0143188
767.590	0.0143424
767.668	0.0142589
767.746	0.0141965
767.825	0.0142436
767.903	0.0142982
767.981	0.0142233
768.059	0.0143324
768.137	0.0142374
768.215	0.0143504
768.293	0.0142579
768.371	0.0143906
768.450	0.0143862
768.528	0.0144611
768.606	0.0145800
768.684	0.0144592
768.762	0.0144711
768.840	0.0146490
768.918	0.0147444
768.996	0.0144228
769.075	0.0145880
769.153	0.0147289
769.231	0.0147131
769.309	0.0147437
769.387	0.0146776
769.465	0.0146331
769.543	0.0147491
769.621	0.0146963
769.700	0.0144546
769.778	0.0144482
769.856	0.0145254
769.934	0.0144637
770.012	0.0143024
770.090	0.0143725
770.168	0.0143725
770.246	0.0142491
770.325	0.0144109
770.403	0.0142463
770.481	0.0145050
770.559	0.0143366
770.637	0.0142324
770.715	0.0142830
770.793	0.0143035
770.871	0.0143725
770.950	0.0144247
771.028	0.0144535
771.106	0.0144059
771.184	0.0144045
771.262	0.0144764
771.340	0.0144114
771.418	0.0146159
771.496	0.0148496
771.575	0.0145931
771.653	0.0146177
771.731	0.0145542
771.809	0.0146043
771.887	0.0146419
771.965	0.0145885
772.043	0.0146355
772.121	0.0146607
772.200	0.0146408
772.278	0.0145827
772.356	0.0145104
772.434	0.0145473
772.512	0.0145062
772.590	0.0143855
772.668	0.0143779
772.746	0.0144183
772.825	0.0145169
772.903	0.0144218
772.981	0.0143027
773.059	0.0143876
773.137	0.0142455
773.215	0.0144426
773.293	0.0144060
773.371	0.0143730
773.450	0.0144214
773.528	0.0144151
773.606	0.0143961
773.684	0.0145072
773.762	0.0143924
773.840	0.0144914
773.918	0.0146069
773.996	0.0146131
774.075	0.0146271
774.153	0.0146525
774.231	0.0147029
774.309	0.0146475
774.387	0.0146288
774.465	0.0146210
774.543	0.0147980
774.621	0.0145752
774.700	0.0146198
774.778	0.0145216
774.856	0.0144147
774.934	0.0145498
775.012	0.0146052
775.090	0.0145233
775.168	0.0144138
775.246	0.0145031
775.325	0.0143892
775.403	0.0143328
775.481	0.0144112
775.559	0.0144982
775.637	0.0142840
775.715	0.0143314
775.793	0.0145646
775.871	0.0144899
775.950	0.0144300
776.028	0.0144125
776.106	0.0145292
776.184	0.0145653
776.262	0.0144479
776.340	0.0145653
776.418	0.0145370
776.496	0.0147263
776.575	0.0145535
776.653	0.0145087
776.731	0.0146046
776.809	0.0145513
776.887	0.0145805
776.965	0.0146514
777.043	0.0147215
777.121	0.0145670
777.200	0.0145285
777.278	0.0145132
777.356	0.0144920
777.434	0.0145097
777.512	0.0145204
777.590	0.0144588
777.668	0.0144545
777.746	0.0144563
777.825	0.0144255
777.903	0.0144031
777.981	0.0142364
778.059	0.0144637
778.137	0.0144367
778.215	0.0144076
778.293	0.0143873
778.371	0.0144034
778.450	0.0144895
778.528	0.0145629
778.606	0.0144254
778.684	0.0144878
778.762	0.0145395
778.840	0.0144942
778.918	0.0146071
778.996	0.0145963
779.075	0.0146503
779.153	0.0146265
779.231	0.0145650
779.309	0.0146234
779.387	0.0146755
779.465	0.0146473
779.543	0.0147044
779.621	0.0146765
779.700	0.0146588
779.778	0.0147263
779.856	0.0146185
779.934	0.0146112
780.012	0.0145787
780.090	0.0146103
780.168	0.0145896
780.246	0.0145485
780.325	0.0143326
780.403	0.0142964
780.481	0.0147199
780.559	0.0145522
780.637	0.0143779
780.715	0.0141833
780.793	0.0143431
780.871	0.0143803
780.950	0.0144291
781.028	0.0142614
781.106	0.0143790
781.184	0.0145354
781.262	0.0145399
781.340	0.0145142
781.418	0.0144830
781.496	0.0146413
781.575	0.0145361
781.653	0.0146368
781.731	0.0145921
781.809	0.0146119
781.887	0.0146085
781.965	0.0145853
782.043	0.0146436
782.121	0.0146280
782.200	0.0145000
782.278	0.0145111
782.356	0.0144817
782.434	0.0145190
782.512	0.0144524
782.590	0.0144230
782.668	0.0144628
782.746	0.0144984
782.825	0.0143992
782.903	0.0143473
782.981	0.0143520
783.059	0.0143230
783.137	0.0145325
783.215	0.0143840
783.293	0.0145536
783.371	0.0144584
783.450	0.0143446
783.528	0.0145267
783.606	0.0143704
783.684	0.0144997
783.762	0.0145371
783.840	0.0145106
783.918	0.0145495
783.996	0.0144605
784.075	0.0145621
784.153	0.0145632
784.231	0.0145507
784.309	0.0147444
784.387	0.0147470
784.465	0.0146423
784.543	0.0147037
784.621	0.0145844
784.700	0.0145325
784.778	0.0144975
784.856	0.0145213
784.934	0.0146774
785.012	0.0144555
785.090	0.0145399
785.168	0.0142502
785.246	0.0142982
785.325	0.0142729
785.403	0.0145459
785.481	0.0143797
785.559	0.0143441
785.637	0.0144588
785.715	0.0144810
785.793	0.0143838
785.871	0.0144032
785.950	0.0144491
786.028	0.0143870
786.106	0.0144203
786.184	0.0143745
786.262	0.0144440
786.340	0.0143793
786.418	0.0145038
786.496	0.0144694
786.575	0.0146007
786.653	0.0146869
786.731	0.0145242
786.809	0.0145102
786.887	0.0145455
786.965	0.0146838
787.043	0.0147095
787.121	0.0146109
787.200	0.0144871
787.278	0.0144508
787.356	0.0144750
787.434	0.0145869
787.512	0.0143531
787.590	0.0143654
787.668	0.0143611
787.746	0.0143472
787.825	0.0142323
787.903	0.0142848
787.981	0.0145178
788.059	0.0144346
788.137	0.0143180
788.215	0.0144733
788.293	0.0143014
788.371	0.0144601
788.450	0.0143853
788.528	0.0144567
788.606	0.0144918
788.684	0.0145755
788.762	0.0143455
788.840	0.0144980
788.918	0.0145812
788.996	0.0145043
789.075	0.0147362
789.153	0.0146625
789.231	0.0145368
789.309	0.0146362
789.387	0.0146342
789.465	0.0148363
789.543	0.0146375
789.621	0.0144984
789.700	0.0146196
789.778	0.0144812
789.856	0.0144301
789.934	0.0146397
790.012	0.0144357
790.090	0.0143703
790.168	0.0144976
790.246	0.0145086
790.325	0.0145153
790.403	0.0144334
790.481	0.0144743
790.559	0.0144661
790.637	0.0144117
790.715	0.0144675
790.793	0.0144330
790.871	0.0144307
790.950	0.0145165
791.028	0.0144485
791.106	0.0144160
791.184	0.0144554
791.262	0.0144500
791.340	0.0145130
791.418	0.0145218
791.496	0.0144556
791.575	0.0145177
791.653	0.0144987
791.731	0.0146478
791.809	0.0145264
791.887	0.0144024
791.965	0.0144525
792.043	0.0144450
792.121	0.0145549
792.200	0.0144441
792.278	0.0144543
792.356	0.0144044
792.434	0.0144967
792.512	0.0145150
792.590	0.0144967
792.668	0.0146085
792.746	0.0146305
792.825	0.0146622
792.903	0.0145316
792.981	0.0145374
793.059	0.0143626
793.137	0.0144049
793.215	0.0144080
793.293	0.0143909
793.371	0.0144022
793.450	0.0143914
793.528	0.0141754
793.606	0.0143798
793.684	0.0145502
793.762	0.0144566
793.840	0.0144756
793.918	0.0144222
793.996	0.0144761
794.075	0.0145446
794.153	0.0145655
794.231	0.0145715
794.309	0.0145775
794.387	0.0145850
794.465	0.0145296
794.543	0.0146328
794.621	0.0147546
794.700	0.0145466
794.778	0.0145773
794.856	0.0146606
794.934	0.0145995
795.012	0.0145525
795.090	0.0146394
795.168	0.0144408
795.246	0.0144756
795.325	0.0146084
795.403	0.0145052
795.481	0.0144767
795.559	0.0144470
795.637	0.0146745
795.715	0.0144961
795.793	0.0145766
795.871	0.0145280
795.950	0.0144063
796.028	0.0144032
796.106	0.0143484
796.184	0.0144951
796.262	0.0144222
796.340	0.0144492
796.418	0.0145093
796.496	0.0144807
796.575	0.0143024
796.653	0.0144628
796.731	0.0144825
796.809	0.0144775
796.887	0.0144688
796.965	0.0146452
797.043	0.0145197
797.121	0.0146653
797.200	0.0146458
797.278	0.0145129
797.356	0.0145667
797.434	0.0144914
797.512	0.0145422
797.590	0.0146441
797.668	0.0145526
797.746	0.0144751
797.825	0.0144557
797.903	0.0144672
797.981	0.0146449
798.059	0.0144395
798.137	0.0144279
798.215	0.0145229
798.293	0.0144696
798.371	0.0145637
798.450	0.0144718
798.528	0.0144593
798.606	0.0143970
798.684	0.0145767
798.762	0.0145377
798.840	0.0144321
798.918	0.0144975
798.996	0.0146603
799.075	0.0145091
799.153	0.0144738
799.231	0.0143497
799.309	0.0144246
799.387	0.0144870
799.465	0.0144839
799.543	0.0143926
799.621	0.0144180
799.700	0.0145081
799.778	0.0144193
799.856	0.0143934
799.934	0.0145103
800.012	0.0144356
800.090	0.0145485
800.168	0.0145215
800.246	0.0145602
800.325	0.0144572
800.403	0.0145311
800.481	0.0145801
800.559	0.0144981
800.637	0.0146339
800.715	0.0145320
800.793	0.0144852
800.871	0.0145285
800.950	0.0145580
801.028	0.0144849
801.106	0.0146033
801.184	0.0144601
801.262	0.0144682
801.340	0.0144398
801.418	0.0145950
801.496	0.0145544
801.575	0.0145262
801.653	0.0144954
801.731	0.0144468
801.809	0.0142262
801.887	0.0144920
801.965	0.0143365
802.043	0.0144345
802.121	0.0143661
802.200	0.0145232
802.278	0.0144994
802.356	0.0144797
802.434	0.0143662
802.512	0.0144586
802.590	0.0144538
802.668	0.0145777
802.746	0.0145183
802.825	0.0144986
802.903	0.0145249
802.981	0.0146564
803.059	0.0145382
803.137	0.0147273
803.215	0.0146105
803.293	0.0146555
803.371	0.0146006
803.450	0.0147229
803.528	0.0145049
803.606	0.0146227
803.684	0.0146665
803.762	0.0143992
803.840	0.0145384
803.918	0.0145104
803.996	0.0145693
804.075	0.0144077
804.153	0.0145012
804.231	0.0145080
804.309	0.0144289
804.387	0.0143105
804.465	0.0143867
804.543	0.0144170
804.621	0.0143543
804.700	0.0143296
804.778	0.0142719
804.856	0.0143752
804.934	0.0143577
805.012	0.0143423
805.090	0.0143211
805.168	0.0144785
805.246	0.0145410
805.325	0.0144417
805.403	0.0142271
805.481	0.0143682
805.559	0.0144959
805.637	0.0144871
805.715	0.0145795
805.793	0.0145435
805.871	0.0146056
805.950	0.0147137
806.028	0.0145396
806.106	0.0145979
806.184	0.0145517
806.262	0.0144487
806.340	0.0146381
806.418	0.0146994
806.496	0.0145862
806.575	0.0145528
806.653	0.0145428
806.731	0.0144498
806.809	0.0144920
806.887	0.0144556
806.965	0.0145712
807.043	0.0143683
807.121	0.0142698
807.200	0.0143585
807.278	0.0143275
807.356	0.0143878
807.434	0.0142631
807.512	0.0143456
807.590	0.0143385
807.668	0.0144471
807.746	0.0144796
807.825	0.0143976
807.903	0.0144151
807.981	0.0145276
808.059	0.0145292
808.137	0.0145847
808.215	0.0146361
808.293	0.0146198
808.371	0.0147233
808.450	0.0147230
808.528	0.0147314
808.606	0.0147042
808.684	0.0145457
808.762	0.0146013
808.840	0.0145761
808.918	0.0146720
808.996	0.0146218
809.075	0.0145307
809.153	0.0145738
809.231	0.0145925
809.309	0.0145477
809.387	0.0144817
809.465	0.0144405
809.543	0.0144270
809.621	0.0144717
809.700	0.0143845
809.778	0.0144351
809.856	0.0144776
809.934	0.0144203
810.012	0.0144234
810.090	0.0142899
810.168	0.0143313
810.246	0.0144461
810.325	0.0143227
810.403	0.0143451
810.481	0.0143975
810.559	0.0145051
810.637	0.0145026
810.715	0.0144328
810.793	0.0145171
810.871	0.0144852
810.950	0.0144214
811.028	0.0143276
811.106	0.0145255
811.184	0.0145468
811.262	0.0146433
811.340	0.0146265
811.418	0.0147125
811.496	0.0145147
811.575	0.0144160
811.653	0.0146072
811.731	0.0144722
811.809	0.0145819
811.887	0.0145233
811.965	0.0144938
812.043	0.0145317
812.121	0.0144518
812.200	0.0143080
812.278	0.0143940
812.356	0.0143464
812.434	0.0144080
812.512	0.0143113
812.590	0.0143839
812.668	0.0144214
812.746	0.0145597
812.825	0.0146761
812.903	0.0144132
812.981	0.0143948
813.059	0.0144376
813.137	0.0144403
813.215	0.0145606
813.293	0.0145944
813.371	0.0143966
813.450	0.0146182
813.528	0.0145151
813.606	0.0145412
813.684	0.0145470
813.762	0.0146700
813.840	0.0145790
813.918	0.0145196
813.996	0.0146706
814.075	0.0145245
814.153	0.0145014
814.231	0.0144564
814.309	0.0143983
814.387	0.0144218
814.465	0.0142734
814.543	0.0144833
814.621	0.0145123
814.700	0.0144102
814.778	0.0144147
814.856	0.0141598
814.934	0.0143890
815.012	0.0143483
815.090	0.0142959
815.168	0.0144607
815.246	0.0144176
815.325	0.0144283
815.403	0.0144412
815.481	0.0144891
815.559	0.0144513
815.637	0.0145075
815.715	0.0144456
815.793	0.0145643
815.871	0.0145360
815.950	0.0146621
816.028	0.0146409
816.106	0.0145598
816.184	0.0145323
816.262	0.0144629
816.340	0.0145397
816.418	0.0144588
816.496	0.0145651
816.575	0.0145840
816.653	0.0143813
816.731	0.0143422
816.809	0.0145545
816.887	0.0144456
816.965	0.0143644
817.043	0.0143757
817.121	0.0144042
817.200	0.0144795
817.278	0.0144606
817.356	0.0144892
817.434	0.0144237
817.512	0.0144669
817.590	0.0143681
817.668	0.0144781
817.746	0.0143570
817.825	0.0143598
817.903	0.0145543
817.981	0.0144433
818.059	0.0144605
818.137	0.0145072
818.215	0.0146190
818.293	0.0146179
818.371	0.0145253
818.450	0.0145583
818.528	0.0145580
818.606	0.0147112
818.684	0.0145058
818.762	0.0145404
818.840	0.0146223
818.918	0.0144654
818.996	0.0144778
819.075	0.0146440
819.153	0.0144939
819.231	0.0146422
819.309	0.0145777
819.387	0.0144316
819.465	0.0146194
819.543	0.0146736
819.621	0.0144421
819.700	0.0144167
819.778	0.0145013
819.856	0.0144733
819.934	0.0143505
820.012	0.0145351
820.090	0.0145741
820.168	0.0145311
820.246	0.0143935
820.325	0.0144115
820.403	0.0144421
820.481	0.0144461
820.559	0.0145170
820.637	0.0145882
820.715	0.0145503
820.793	0.0145972
820.871	0.0145008
820.950	0.0146242
821.028	0.0145043
821.106	0.0145123
821.184	0.0145504
821.262	0.0146272
821.340	0.0145005
821.418	0.0144160
821.496	0.0147012
821.575	0.0145891
821.653	0.0145813
821.731	0.0144746
821.809	0.0144704
821.887	0.0145870
821.965	0.0145948
822.043	0.0145004
822.121	0.0144920
822.200	0.0145132
822.278	0.0145060
822.356	0.0146392
822.434	0.0146066
822.512	0.0146842
822.590	0.0146062
822.668	0.0145824
822.746	0.0146082
822.825	0.0145307
822.903	0.0145831
822.981	0.0145506
823.059	0.0145776
823.137	0.0144666
823.215	0.0144335
823.293	0.0145127
823.371	0.0144349
823.450	0.0144086
823.528	0.0144198
823.606	0.0144667
823.684	0.0142686
823.762	0.0144448
823.840	0.0144352
823.918	0.0144602
823.996	0.0145925
824.075	0.0145665
824.153	0.0145275
824.231	0.0144897
824.309	0.0145020
824.387	0.0145247
824.465	0.0143462
824.543	0.0144109
824.621	0.0145370
824.700	0.0145977
824.778	0.0145745
824.856	0.0144115
824.934	0.0146246
825.012	0.0145261
825.090	0.0144036
825.168	0.0144907
825.246	0.0146156
825.325	0.0145602
825.403	0.0144588
825.481	0.0145934
825.559	0.0146692
825.637	0.0145560
825.715	0.0146063
825.793	0.0146265
825.871	0.0146167
825.950	0.0145627
826.028	0.0144816
826.106	0.0145484
826.184	0.0145694
826.262	0.0145726
826.340	0.0145540
826.418	0.0146251
826.496	0.0144366
826.575	0.0145436
826.653	0.0145847
826.731	0.0145218
826.809	0.0144394
826.887	0.0146362
826.965	0.0147164
827.043	0.0145654
827.121	0.0145470
827.200	0.0145766
827.278	0.0145547
827.356	0.0145946
827.434	0.0145370
827.512	0.0145884
827.590	0.0145982
827.668	0.0144747
827.746	0.0145325
827.825	0.0145537
827.903	0.0146331
827.981	0.0144644
828.059	0.0145135
828.137	0.0145760
828.215	0.0142982
828.293	0.0143869
828.371	0.0144471
828.450	0.0144760
828.528	0.0143931
828.606	0.0145083
828.684	0.0145443
828.762	0.0145017
828.840	0.0146290
828.918	0.0144893
828.996	0.0144437
829.075	0.0145473
829.153	0.0144818
829.231	0.0145052
829.309	0.0144961
829.387	0.0145786
829.465	0.0146072
829.543	0.0147078
829.621	0.0146587
829.700	0.0145264
829.778	0.0146300
829.856	0.0145705
829.934	0.0146701
830.012	0.0145444
830.090	0.0145930
830.168	0.0145660
830.246	0.0145510
830.325	0.0144685
830.403	0.0144477
830.481	0.0145712
830.559	0.0145738
830.637	0.0146164
830.715	0.0145014
830.793	0.0144719
830.871	0.0145969
830.950	0.0144583
831.028	0.0144926
831.106	0.0144660
831.184	0.0144838
831.262	0.0143232
831.340	0.0145023
831.418	0.0147247
831.496	0.0145618
831.575	0.0145276
831.653	0.0145609
831.731	0.0145808
831.809	0.0145195
831.887	0.0145434
831.965	0.0145998
832.043	0.0144722
832.121	0.0145567
832.200	0.0144183
832.278	0.0144512
832.356	0.0145889
832.434	0.0144858
832.512	0.0144240
832.590	0.0144434
832.668	0.0144296
832.746	0.0145253
832.825	0.0143981
832.903	0.0145728
832.981	0.0144975
833.059	0.0145374
833.137	0.0145168
833.215	0.0144008
833.293	0.0145308
833.371	0.0145159
833.450	0.0145579
833.528	0.0144646
833.606	0.0145282
833.684	0.0146454
833.762	0.0143551
833.840	0.0145173
833.918	0.0145690
833.996	0.0145648
834.075	0.0144994
834.153	0.0146115
834.231	0.0146020
834.309	0.0145467
834.387	0.0145646
834.465	0.0144822
834.543	0.0145741
834.621	0.0145737
834.700	0.0145226
834.778	0.0146568
834.856	0.0145356
834.934	0.0145801
835.012	0.0144856
835.090	0.0145415
835.168	0.0143932
835.246	0.0144444
835.325	0.0145306
835.403	0.0144398
835.481	0.0145510
835.559	0.0146096
835.637	0.0143668
835.715	0.0142125
835.793	0.0143358
835.871	0.0143670
835.950	0.0145427
836.028	0.0144498
836.106	0.0142881
836.184	0.0143207
836.262	0.0144217
836.340	0.0142400
836.418	0.0143848
836.496	0.0145105
836.575	0.0143867
836.653	0.0145856
836.731	0.0145947
836.809	0.0146280
836.887	0.0144041
836.965	0.0145114
837.043	0.0143941
837.121	0.0146152
837.200	0.0146451
837.278	0.0145954
837.356	0.0145226
837.434	0.0145378
837.512	0.0146403
837.590	0.0145860
837.668	0.0145459
837.746	0.0146508
837.825	0.0146671
837.903	0.0145794
837.981	0.0144932
838.059	0.0145434
838.137	0.0144439
838.215	0.0144556
838.293	0.0145575
838.371	0.0144296
838.450	0.0142121
838.528	0.0144712
838.606	0.0143670
838.684	0.0144133
838.762	0.0144692
838.840	0.0144505
838.918	0.0143581
838.996	0.0145045
839.075	0.0144486
839.153	0.0144752
839.231	0.0144771
839.309	0.0143356
839.387	0.0144543
839.465	0.0144114
839.543	0.0144839
839.621	0.0145190
839.700	0.0144765
839.778	0.0145979
839.856	0.0145675
839.934	0.0145607
840.012	0.0146688
840.090	0.0145392
840.168	0.0144408
840.246	0.0144728
840.325	0.0146141
840.403	0.0146330
840.481	0.0145937
840.559	0.0145874
840.637	0.0145602
840.715	0.0145695
840.793	0.0144968
840.871	0.0144389
840.950	0.0144228
841.028	0.0144704
841.106	0.0146143
841.184	0.0144164
841.262	0.0143796
841.340	0.0145453
841.418	0.0146227
841.496	0.0144600
841.575	0.0144387
841.653	0.0144734
841.731	0.0144632
841.809	0.0144476
841.887	0.0144241
841.965	0.0144754
842.043	0.0144829
842.121	0.0143481
842.200	0.0144666
842.278	0.0144718
842.356	0.0144750
842.434	0.0145903
842.512	0.0145102
842.590	0.0144908
842.668	0.0144703
842.746	0.0144417
842.825	0.0145113
842.903	0.0145007
842.981	0.0146217
843.059	0.0144781
843.137	0.0144476
843.215	0.0144725
843.293	0.0146516
843.371	0.0144929
843.450	0.0146114
843.528	0.0147243
843.606	0.0146733
843.684	0.0145383
843.762	0.0145419
843.840	0.0145383
843.918	0.0144139
843.996	0.0144960
844.075	0.0145162
844.153	0.0144387
844.231	0.0145042
844.309	0.0143243
844.387	0.0143985
844.465	0.0143330
844.543	0.0145802
844.621	0.0145349
844.700	0.0143504
844.778	0.0144430
844.856	0.0145281
844.934	0.0145777
845.012	0.0144865
845.090	0.0146362
845.168	0.0147437
845.246	0.0146841
845.325	0.0146880
845.403	0.0146874
845.481	0.0146453
845.559	0.0145544
845.637	0.0146455
845.715	0.0146873
845.793	0.0145590
845.871	0.0146085
845.950	0.0146599
846.028	0.0144540
846.106	0.0143930
846.184	0.0144779
846.262	0.0144994
846.340	0.0144095
846.418	0.0145112
846.496	0.0143451
846.575	0.0143358
846.653	0.0144814
846.731	0.0143467
846.809	0.0142781
846.887	0.0143578
846.965	0.0143919
847.043	0.0144085
847.121	0.0144135
847.200	0.0143646
847.278	0.0144234
847.356	0.0145943
847.434	0.0145077
847.512	0.0145294
847.590	0.0145555
847.668	0.0145556
847.746	0.0146017
847.825	0.0145927
847.903	0.0146018
847.981	0.0146470
848.059	0.0145717
848.137	0.0145638
848.215	0.0146243
848.293	0.0146773
848.371	0.0144225
848.450	0.0144073
848.528	0.0145605
848.606	0.0144835
848.684	0.0143359
848.762	0.0144044
848.840	0.0143360
848.918	0.0143658
848.996	0.0143884
849.075	0.0142773
849.153	0.0143409
849.231	0.0142318
849.309	0.0143797
849.387	0.0143514
849.465	0.0145287
849.543	0.0144338
849.621	0.0144180
849.700	0.0144683
849.778	0.0143985
849.856	0.0144712
849.934	0.0145313
850.012	0.0146363
850.090	0.0146155
850.168	0.0146147
850.246	0.0146061
850.325	0.0146783
850.403	0.0144809
850.481	0.0145592
850.559	0.0146497
850.637	0.0146214
850.715	0.0146178
850.793	0.0145183
850.871	0.0144012
850.950	0.0144988
851.028	0.0144963
851.106	0.0143561
851.184	0.0144027
851.262	0.0144347
851.340	0.0144241
851.418	0.0142084
851.496	0.0142834
851.575	0.0144034
851.653	0.0144241
851.731	0.0144153
851.809	0.0144421
851.887	0.0144859
851.965	0.0145340
852.043	0.0145617
852.121	0.0144420
852.200	0.0145133
852.278	0.0146053
852.356	0.0145407
852.434	0.0144109
852.512	0.0146310
852.590	0.0146655
852.668	0.0145510
852.746	0.0146262
852.825	0.0146529
852.903	0.0145499
852.981	0.0147068
853.059	0.0144675
853.137	0.0145589
853.215	0.0144537
853.293	0.0144771
853.371	0.0145190
853.450	0.0143016
853.528	0.0145313
853.606	0.0144106
853.684	0.0143410
853.762	0.0145518
853.840	0.0143642
853.918	0.0142764
853.996	0.0143668
854.075	0.0144376
854.153	0.0143496
854.231	0.0143549
854.309	0.0144846
854.387	0.0145866
854.465	0.0143903
854.543	0.0144218
854.621	0.0145341
854.700	0.0145477
854.778	0.0145624
854.856	0.0145837
854.934	0.0146340
855.012	0.0145731
855.090	0.0145758
855.168	0.0145486
855.246	0.0145103
855.325	0.0145069
855.403	0.0145935
855.481	0.0145634
855.559	0.0145114
855.637	0.0144621
855.715	0.0144851
855.793	0.0144141
855.871	0.0144425
855.950	0.0144839
856.028	0.0145935
856.106	0.0143379
856.184	0.0144485
856.262	0.0143468
856.340	0.0142662
856.418	0.0144435
856.496	0.0144703
856.575	0.0144633
856.653	0.0144365
856.731	0.0144086
856.809	0.0144498
856.887	0.0143502
856.965	0.0143775
857.043	0.0144978
857.121	0.0146235
857.200	0.0145998
857.278	0.0145877
857.356	0.0146165
857.434	0.0144970
857.512	0.0146044
857.590	0.0145660
857.668	0.0146086
857.746	0.0145496
857.825	0.0145522
857.903	0.0144976
857.981	0.0144471
858.059	0.0145342
858.137	0.0144221
858.215	0.0144611
858.293	0.0145049
858.371	0.0143912
858.450	0.0143848
858.528	0.0143362
858.606	0.0144025
858.684	0.0146212
858.762	0.0144578
858.840	0.0143836
858.918	0.0142834
858.996	0.0144823
859.075	0.0145036
859.153	0.0144109
859.231	0.0145194
859.309	0.0145689
859.387	0.0145097
859.465	0.0145850
859.543	0.0146944
859.621	0.0144537
859.700	0.0144638
859.778	0.0145022
859.856	0.0145047
859.934	0.0144977
860.012	0.0144691
860.090	0.0143562
860.168	0.0145578
860.246	0.0143997
860.325	0.0144511
860.403	0.0144460
860.481	0.0146287
860.559	0.0145103
860.637	0.0143925
860.715	0.0144213
860.793	0.0144727
860.871	0.0144868
860.950	0.0144728
861.028	0.0143855
861.106	0.0144135
861.184	0.0144289
861.262	0.0145538
861.340	0.0144321
861.418	0.0144019
861.496	0.0143691
861.575	0.0144775
861.653	0.0144164
861.731	0.0145504
861.809	0.0145660
861.887	0.0144924
861.965	0.0145392
862.043	0.0144807
862.121	0.0145143
862.200	0.0145518
862.278	0.0144353
862.356	0.0145041
862.434	0.0144939
862.512	0.0145454
862.590	0.0144067
862.668	0.0144541
862.746	0.0144572
862.825	0.0145349
862.903	0.0145418
862.981	0.0143540
863.059	0.0145168
863.137	0.0144912
863.215	0.0145811
863.293	0.0145061
863.371	0.0144927
863.450	0.0143425
863.528	0.0145106
863.606	0.0144827
863.684	0.0145524
863.762	0.0146545
863.840	0.0144802
863.918	0.0143956
863.996	0.0144890
864.075	0.0146593
864.153	0.0145166
864.231	0.0144562
864.309	0.0145401
864.387	0.0145303
864.465	0.0145837
864.543	0.0145458
864.621	0.0147183
864.700	0.0145746
864.778	0.0144975
864.856	0.0144633
864.934	0.0144424
865.012	0.0144908
865.090	0.0145009
865.168	0.0146044
865.246	0.0143845
865.325	0.0143783
865.403	0.0143616
865.481	0.0143929
865.559	0.0143844
865.637	0.0144829
865.715	0.0142214
865.793	0.0143285
865.871	0.0145443
865.950	0.0144378
866.028	0.0144051
866.106	0.0145266
866.184	0.0146732
866.262	0.0144846
866.340	0.0144765
866.418	0.0144695
866.496	0.0145886
866.575	0.0145931
866.653	0.0145628
866.731	0.0145342
866.809	0.0146157
866.887	0.0146133
866.965	0.0145184
867.043	0.0145888
867.121	0.0145313
867.200	0.0145547
867.278	0.0145504
867.356	0.0144579
867.434	0.0145157
867.512	0.0145261
867.590	0.0144489
867.668	0.0145380
867.746	0.0143839
867.825	0.0144238
867.903	0.0145166
867.981	0.0144570
868.059	0.0144730
868.137	0.0143991
868.215	0.0143392
868.293	0.0145049
868.371	0.0145047
868.450	0.0145150
868.528	0.0144665
868.606	0.0145954
868.684	0.0143523
868.762	0.0145199
868.840	0.0144489
868.918	0.0145509
868.996	0.0145274
869.075	0.0145282
869.153	0.0147421
869.231	0.0146378
869.309	0.0146384
869.387	0.0146037
869.465	0.0147065
869.543	0.0145809
869.621	0.0146569
869.700	0.0146045
869.778	0.0145972
869.856	0.0145733
869.934	0.0144492
870.012	0.0144920
870.090	0.0144707
870.168	0.0144395
870.246	0.0142593
870.325	0.0143262
870.403	0.0142640
870.481	0.0143725
870.559	0.0143496
870.637	0.0143339
870.715	0.0142919
870.793	0.0143578
870.871	0.0143414
870.950	0.0144628
871.028	0.0144534
871.106	0.0145260
871.184	0.0144940
871.262	0.0144303
871.340	0.0145891
871.418	0.0145138
871.496	0.0146642
871.575	0.0147110
871.653	0.0146047
871.731	0.0146398
871.809	0.0145728
871.887	0.0144976
871.965	0.0146901
872.043	0.0145350
872.121	0.0145679
872.200	0.0145322
872.278	0.0146352
872.356	0.0145643
872.434	0.0143581
872.512	0.0145043
872.590	0.0145052
872.668	0.0143873
872.746	0.0143154
872.825	0.0145296
872.903	0.0144736
872.981	0.0144502
873.059	0.0145690
873.137	0.0143573
873.215	0.0143542
873.293	0.0144175
873.371	0.0144968
873.450	0.0143713
873.528	0.0145107
873.606	0.0145036
873.684	0.0144669
873.762	0.0144305
873.840	0.0144068
873.918	0.0143523
873.996	0.0144496
874.075	0.0144865
874.153	0.0144127
874.231	0.0145139
874.309	0.0143359
874.387	0.0143244
874.465	0.0144206
874.543	0.0145728
874.621	0.0144624
874.700	0.0145678
874.778	0.0146103
874.856	0.0144352
874.934	0.0145528
875.012	0.0144681
875.090	0.0144779
875.168	0.0144485
875.246	0.0145010
875.325	0.0145200
875.403	0.0145485
875.481	0.0144210
875.559	0.0145436
875.637	0.0146413
875.715	0.0146073
875.793	0.0145677
875.871	0.0144725
875.950	0.0144396
876.028	0.0145829
876.106	0.0145955
876.184	0.0146213
876.262	0.0144174
876.340	0.0143849
876.418	0.0145340
876.496	0.0144656
876.575	0.0146346
876.653	0.0145265
876.731	0.0144886
876.809	0.0145803
876.887	0.0145173
876.965	0.0144524
877.043	0.0143497
877.121	0.0144929
877.200	0.0144846
877.278	0.0143356
877.356	0.0145409
877.434	0.0145251
877.512	0.0145162
877.590	0.0144424
877.668	0.0145505
877.746	0.0144843
877.825	0.0142732
877.903	0.0144882
877.981	0.0143572
878.059	0.0144269
878.137	0.0146118
878.215	0.0145711
878.293	0.0143471
878.371	0.0145680
878.450	0.0147276
878.528	0.0144714
878.606	0.0144839
878.684	0.0145573
878.762	0.0145399
878.840	0.0144257
878.918	0.0145963
878.996	0.0145513
879.075	0.0145074
879.153	0.0144829
879.231	0.0144346
879.309	0.0143852
879.387	0.0145358
879.465	0.0145099
879.543	0.0145013
879.621	0.0144322
879.700	0.0145325
879.778	0.0143752
879.856	0.0143735
879.934	0.0144976
880.012	0.0145699
880.090	0.0144901
880.168	0.0144902
880.246	0.0143972
880.325	0.0144282
880.403	0.0145722
880.481	0.0145520
880.559	0.0144999
880.637	0.0145276
880.715	0.0145797
880.793	0.0145845
880.871	0.0144971
880.950	0.0144341
881.028	0.0147695
881.106	0.0144840
881.184	0.0145335
881.262	0.0146473
881.340	0.0147166
881.418	0.0146256
881.496	0.0146068
881.575	0.0146168
881.653	0.0145226
881.731	0.0145311
881.809	0.0147028
881.887	0.0145275
881.965	0.0144199
882.043	0.0144816
882.121	0.0144921
882.200	0.0144099
882.278	0.0145152
882.356	0.0142604
882.434	0.0144318
882.512	0.0146236
882.590	0.0144907
882.668	0.0144419
882.746	0.0143526
882.825	0.0145100
882.903	0.0146178
882.981	0.0144041
883.059	0.0144284
883.137	0.0144526
883.215	0.0145750
883.293	0.0145744
883.371	0.0144713
883.450	0.0145353
883.528	0.0145357
883.606	0.0144070
883.684	0.0145473
883.762	0.0146874
883.840	0.0145622
883.918	0.0144767
883.996	0.0145946
884.075	0.0145963
884.153	0.0147581
884.231	0.0145837
884.309	0.0143958
884.387	0.0146625
884.465	0.0144830
884.543	0.0144583
884.621	0.0144055
884.700	0.0145357
884.778	0.0144373
884.856	0.0144993
884.934	0.0144843
885.012	0.0145396
885.090	0.0145105
885.168	0.0144447
885.246	0.0145396
885.325	0.0144331
885.403	0.0145952
885.481	0.0145359
885.559	0.0143645
885.637	0.0144982
885.715	0.0145167
885.793	0.0146387
885.871	0.0145838
885.950	0.0143851
886.028	0.0144438
886.106	0.0145398
886.184	0.0143687
886.262	0.0146098
886.340	0.0146223
886.418	0.0144088
886.496	0.0144399
886.575	0.0145094
886.653	0.0144186
886.731	0.0145411
886.809	0.0143919
886.887	0.0145422
886.965	0.0144380
887.043	0.0143842
887.121	0.0142856
887.200	0.0145184
887.278	0.0144983
887.356	0.0145190
887.434	0.0146091
887.512	0.0145589
887.590	0.0145644
887.668	0.0145762
887.746	0.0144669
887.825	0.0145927
887.903	0.0144933
887.981	0.0143323
888.059	0.0143365
888.137	0.0144111
888.215	0.0145092
888.293	0.0144755
888.371	0.0144313
888.450	0.0145893
888.528	0.0145181
888.606	0.0145226
888.684	0.0145161
888.762	0.0144822
888.840	0.0143776
888.918	0.0145593
888.996	0.0144540
889.075	0.0144421
889.153	0.0146188
889.231	0.0145792
889.309	0.0145490
889.387	0.0144422
889.465	0.0145347
889.543	0.0144926
889.621	0.0145589
889.700	0.0145576
889.778	0.0145448
889.856	0.0144129
889.934	0.0145200
890.012	0.0144515
890.090	0.0144890
890.168	0.0145152
890.246	0.0145810
890.325	0.0144120
890.403	0.0144675
890.481	0.0144621
890.559	0.0145211
890.637	0.0143262
890.715	0.0146051
890.793	0.0145824
890.871	0.0144379
890.950	0.0145528
891.028	0.0144077
891.106	0.0144891
891.184	0.0144794
891.262	0.0144485
891.340	0.0144736
891.418	0.0144455
891.496	0.0144104
891.575	0.0143759
891.653	0.0144616
891.731	0.0145159
891.809	0.0144199
891.887	0.0144364
891.965	0.0144772
892.043	0.0145511
892.121	0.0145328
892.200	0.0145270
892.278	0.0146339
892.356	0.0145660
892.434	0.0145616
892.512	0.0145408
892.590	0.0145295
892.668	0.0146455
892.746	0.0145551
892.825	0.0144962
892.903	0.0144433
892.981	0.0146795
893.059	0.0145272
893.137	0.0145357
893.215	0.0143003
893.293	0.0143783
893.371	0.0145061
893.450	0.0143350
893.528	0.0145248
893.606	0.0143968
893.684	0.0143492
893.762	0.0145037
893.840	0.0146333
893.918	0.0144343
893.996	0.0145120
894.075	0.0146614
894.153	0.0144763
894.231	0.0145734
894.309	0.0145564
894.387	0.0145071
894.465	0.0145687
894.543	0.0145652
894.621	0.0145953
894.700	0.0144553
894.778	0.0145953
894.856	0.0145422
894.934	0.0144777
895.012	0.0145689
895.090	0.0146307
895.168	0.0145369
895.246	0.0145756
895.325	0.0145685
895.403	0.0144262
895.481	0.0144273
895.559	0.0145682
895.637	0.0145070
895.715	0.0145165
895.793	0.0145281
895.871	0.0146126
895.950	0.0146122
896.028	0.0146259
896.106	0.0145341
896.184	0.0146248
896.262	0.0144984
896.340	0.0145436
896.418	0.0146255
896.496	0.0146341
896.575	0.0146315
896.653	0.0146152
896.731	0.0145321
896.809	0.0145622
896.887	0.0146109
896.965	0.0145824
897.043	0.0146783
897.121	0.0145013
897.200	0.0144720
897.278	0.0144402
897.356	0.0144918
897.434	0.0145698
897.512	0.0145601
897.590	0.0145309
897.668	0.0142627
897.746	0.0143847
897.825	0.0143858
897.903	0.0145329
897.981	0.0143748
898.059	0.0143905
898.137	0.0144695
898.215	0.0145074
898.293	0.0144406
898.371	0.0146069
898.450	0.0147239
898.528	0.0146496
898.606	0.0145774
898.684	0.0147055
898.762	0.0147107
898.840	0.0146500
898.918	0.0146764
898.996	0.0146935
899.075	0.0144864
899.153	0.0147633
899.231	0.0148219
899.309	0.0147413
899.387	0.0145466
899.465	0.0145126
899.543	0.0144960
899.621	0.0143576
899.700	0.0145764
899.778	0.0144270
899.856	0.0144094
899.934	0.0142597
900.012	0.0142577
900.090	0.0144386
900.168	0.0142559
900.246	0.0144164
900.325	0.0145335
900.403	0.0144514
900.481	0.0143822
900.559	0.0145058
900.637	0.0145060
900.715	0.0145537
900.793	0.0147514
900.871	0.0146541
900.950	0.0145940
901.028	0.0145863
901.106	0.0145848
901.184	0.0146890
901.262	0.0146586
901.340	0.0145711
901.418	0.0147412
901.496	0.0145979
901.575	0.0147332
901.653	0.0147438
901.731	0.0147377
901.809	0.0147874
901.887	0.0146584
901.965	0.0146030
902.043	0.0147517
902.121	0.0144920
902.200	0.0144312
902.278	0.0144804
902.356	0.0144394
902.434	0.0141763
902.512	0.0141327
902.590	0.0142718
902.668	0.0141633
902.746	0.0140536
902.825	0.0141763
902.903	0.0141241
902.981	0.0142542
903.059	0.0143738
903.137	0.0142865
903.215	0.0143562
903.293	0.0145563
903.371	0.0145959
903.450	0.0145185
903.528	0.0146209
903.606	0.0147401
903.684	0.0148143
903.762	0.0148021
903.840	0.0148004
903.918	0.0147866
903.996	0.0146500
904.075	0.0147778
904.153	0.0147731
904.231	0.0145960
904.309	0.0145589
904.387	0.0143685
904.465	0.0143755
904.543	0.0144349
904.621	0.0143739
904.700	0.0143185
904.778	0.0143465
904.856	0.0142261
904.934	0.0142904
905.012	0.0142291
905.090	0.0142654
905.168	0.0142538
905.246	0.0142410
905.325	0.0143329
905.403	0.0144933
905.481	0.0144586
905.559	0.0144324
905.637	0.0145519
905.715	0.0144440
905.793	0.0146165
905.871	0.0146438
905.950	0.0147057
906.028	0.0147211
906.106	0.0147424
906.184	0.0147709
906.262	0.0148052
906.340	0.0147090
906.418	0.0148752
906.496	0.0148986
906.575	0.0149052
906.653	0.0147810
906.731	0.0146638
906.809	0.0147119
906.887	0.0146902
906.965	0.0146555
907.043	0.0145593
907.121	0.0145164
907.200	0.0145245
907.278	0.0143990
907.356	0.0145029
907.434	0.0144044
907.512	0.0142510
907.590	0.0142986
907.668	0.0143937
907.746	0.0143793
907.825	0.0144350
907.903	0.0144400
907.981	0.0144798
908.059	0.0145264
908.137	0.0145544
908.215	0.0144247
908.293	0.0145164
908.371	0.0144906
908.450	0.0145304
908.528	0.0146011
908.606	0.0146034
908.684	0.0146279
908.762	0.0145788
908.840	0.0146189
908.918	0.0148777
908.996	0.0146516
909.075	0.0146343
909.153	0.0146368
909.231	0.0147982
909.309	0.0146660
909.387	0.0145083
909.465	0.0145136
909.543	0.0146067
909.621	0.0145030
909.700	0.0144059
909.778	0.0144852
909.856	0.0144341
909.934	0.0142992
910.012	0.0143636
910.090	0.0143658
910.168	0.0143810
910.246	0.0144268
910.325	0.0144077
910.403	0.0143199
910.481	0.0145000
910.559	0.0144234
910.637	0.0143771
910.715	0.0143859
910.793	0.0144273
910.871	0.0144063
910.950	0.0145583
911.028	0.0144913
911.106	0.0143719
911.184	0.0145831
911.262	0.0146597
911.340	0.0147018
911.418	0.0145870
911.496	0.0145818
911.575	0.0146661
911.653	0.0146375
911.731	0.0144593
911.809	0.0145684
911.887	0.0146277
911.965	0.0145346
912.043	0.0145231
912.121	0.0146352
912.200	0.0146612
912.278	0.0144369
912.356	0.0142823
912.434	0.0144232
912.512	0.0143735
912.590	0.0143832
912.668	0.0143458
912.746	0.0144877
912.825	0.0143068
912.903	0.0141874
912.981	0.0143291
913.059	0.0144412
913.137	0.0145344
913.215	0.0143645
913.293	0.0144845
913.371	0.0146069
913.450	0.0145693
913.528	0.0146071
913.606	0.0145404
913.684	0.0145818
913.762	0.0147542
913.840	0.0146444
913.918	0.0145786
913.996	0.0145879
914.075	0.0145241
914.153	0.0146746
914.231	0.0145566
914.309	0.0144594
914.387	0.0145908
914.465	0.0145125
914.543	0.0143480
914.621	0.0145242
914.700	0.0145302
914.778	0.0144404
914.856	0.0144020
914.934	0.0145211
915.012	0.0143938
915.090	0.0143954
915.168	0.0143282
915.246	0.0142119
915.325	0.0144054
915.403	0.0145293
915.481	0.0144851
915.559	0.0145077
915.637	0.0144771
915.715	0.0145240
915.793	0.0145940
915.871	0.0144700
915.950	0.0145729
916.028	0.0146066
916.106	0.0147421
916.184	0.0146313
916.262	0.0146017
916.340	0.0145667
916.418	0.0146236
916.496	0.0147351
916.575	0.0147495
916.653	0.0144803
916.731	0.0145251
916.809	0.0144912
916.887	0.0145263
916.965	0.0145594
917.043	0.0144479
917.121	0.0144155
917.200	0.0145026
917.278	0.0144510
917.356	0.0144451
917.434	0.0142948
917.512	0.0144631
917.590	0.0143845
917.668	0.0142921
917.746	0.0144792
917.825	0.0146457
917.903	0.0146159
917.981	0.0146706
918.059	0.0144551
918.137	0.0144147
918.215	0.0145813
918.293	0.0145855
918.371	0.0144899
918.450	0.0145279
918.528	0.0144159
918.606	0.0145313
918.684	0.0143494
918.762	0.0144215
918.840	0.0143272
918.918	0.0145435
918.996	0.0144470
919.075	0.0144864
919.153	0.0146166
919.231	0.0143989
919.309	0.0143697
919.387	0.0146499
919.465	0.0145976
919.543	0.0144859
919.621	0.0143771
919.700	0.0146222
919.778	0.0145743
919.856	0.0144562
919.934	0.0145440
920.012	0.0145818
920.090	0.0146864
920.168	0.0146770
920.246	0.0144548
920.325	0.0146117
920.403	0.0145614
920.481	0.0146866
920.559	0.0145342
920.637	0.0145617
920.715	0.0146893
920.793	0.0144633
920.871	0.0146590
920.950	0.0145255
921.028	0.0146209
921.106	0.0145977
921.184	0.0145816
921.262	0.0145519
921.340	0.0144743
921.418	0.0143827
921.496	0.0144562
921.575	0.0144092
921.653	0.0144093
921.731	0.0144180
921.809	0.0144066
921.887	0.0145563
921.965	0.0145341
922.043	0.0143864
922.121	0.0143698
922.200	0.0144252
922.278	0.0145362
922.356	0.0145746
922.434	0.0144418
922.512	0.0145585
922.590	0.0146023
922.668	0.0144836
922.746	0.0145380
922.825	0.0146072
922.903	0.0144682
922.981	0.0144698
923.059	0.0144685
923.137	0.0145088
923.215	0.0144919
923.293	0.0144571
923.371	0.0143637
923.450	0.0144674
923.528	0.0145671
923.606	0.0144967
923.684	0.0144139
923.762	0.0144254
923.840	0.0145498
923.918	0.0145248
923.996	0.0145124
924.075	0.0146234
924.153	0.0145844
924.231	0.0146710
924.309	0.0146635
924.387	0.0144543
924.465	0.0145256
924.543	0.0146658
924.621	0.0145925
924.700	0.0146718
924.778	0.0145686
924.856	0.0145247
924.934	0.0145296
925.012	0.0144642
925.090	0.0145597
925.168	0.0145735
925.246	0.0147673
925.325	0.0146218
925.403	0.0146738
925.481	0.0145489
925.559	0.0146754
925.637	0.0146814
925.715	0.0146799
925.793	0.0146066
925.871	0.0146881
925.950	0.0144685
926.028	0.0145065
926.106	0.0143835
926.184	0.0143916
926.262	0.0144445
926.340	0.0143159
926.418	0.0145300
926.496	0.0143294
926.575	0.0143317
926.653	0.0144379
926.731	0.0143156
926.809	0.0143780
926.887	0.0144852
926.965	0.0144817
927.043	0.0146132
927.121	0.0144861
927.200	0.0144499
927.278	0.0146132
927.356	0.0145088
927.434	0.0145762
927.512	0.0145037
927.590	0.0145968
927.668	0.0146561
927.746	0.0146249
927.825	0.0146664
927.903	0.0146881
927.981	0.0145984
928.059	0.0146286
928.137	0.0146657
928.215	0.0148784
928.293	0.0146121
928.371	0.0146510
928.450	0.0147318
928.528	0.0146989
928.606	0.0146742
928.684	0.0145532
928.762	0.0144836
928.840	0.0144633
928.918	0.0144269
928.996	0.0144762
929.075	0.0144160
929.153	0.0143301
929.231	0.0143878
929.309	0.0143362
929.387	0.0142863
929.465	0.0143002
929.543	0.0143606
929.621	0.0142828
929.700	0.0145237
929.778	0.0145524
929.856	0.0144716
929.934	0.0145632
930.012	0.0144601
930.090	0.0144866
930.168	0.0145621
930.246	0.0147877
930.325	0.0147212
930.403	0.0145833
930.481	0.0146382
930.559	0.0147168
930.637	0.0145875
930.715	0.0145391
930.793	0.0145447
930.871	0.0144833
930.950	0.0146485
931.028	0.0145500
931.106	0.0144820
931.184	0.0144243
931.262	0.0145300
931.340	0.0143237
931.418	0.0143744
931.496	0.0143561
931.575	0.0143064
931.653	0.0143940
931.731	0.0144002
931.809	0.0144048
931.887	0.0145179
931.965	0.0144076
932.043	0.0142947
932.121	0.0144509
932.200	0.0143571
932.278	0.0144994
932.356	0.0142755
932.434	0.0143798
932.512	0.0144684
932.590	0.0145667
932.668	0.0144055
932.746	0.0146091
932.825	0.0146041
932.903	0.0145854
932.981	0.0145348
933.059	0.0145407
933.137	0.0146380
933.215	0.0146600
933.293	0.0146921
933.371	0.0145552
933.450	0.0145387
933.528	0.0145286
933.606	0.0144264
933.684	0.0144956
933.762	0.0145097
933.840	0.0144865
933.918	0.0144381
933.996	0.0143719
934.075	0.0144391
934.153	0.0143046
934.231	0.0143163
934.309	0.0144885
934.387	0.0144337
934.465	0.0144398
934.543	0.0145174
934.621	0.0144631
934.700	0.0145072
934.778	0.0142742
934.856	0.0143630
934.934	0.0143730
935.012	0.0146674
935.090	0.0144885
935.168	0.0147118
935.246	0.0144508
935.325	0.0145573
935.403	0.0146640
935.481	0.0146660
935.559	0.0146535
935.637	0.0146039
935.715	0.0144627
935.793	0.0145406
935.871	0.0146056
935.950	0.0144974
936.028	0.0145257
936.106	0.0144600
936.184	0.0144552
936.262	0.0144407
936.340	0.0145068
936.418	0.0144227
936.496	0.0143635
936.575	0.0143211
936.653	0.0143466
936.731	0.0143030
936.809	0.0143897
936.887	0.0145037
936.965	0.0144094
937.043	0.0144218
937.121	0.0143702
937.200	0.0143703
937.278	0.0144409
937.356	0.0146098
937.434	0.0146119
937.512	0.0145795
937.590	0.0144910
937.668	0.0146185
937.746	0.0146680
937.825	0.0144942
937.903	0.0144437
937.981	0.0146205
938.059	0.0146652
938.137	0.0145661
938.215	0.0145607
938.293	0.0145056
938.371	0.0146446
938.450	0.0145815
938.528	0.0145699
938.606	0.0145313
938.684	0.0143744
938.762	0.0143668
938.840	0.0144189
938.918	0.0144044
938.996	0.0143344
939.075	0.0144999
939.153	0.0145231
939.231	0.0143806
939.309	0.0145260
939.387	0.0144452
939.465	0.0144292
939.543	0.0144254
939.621	0.0146365
939.700	0.0145547
939.778	0.0144824
939.856	0.0144817
939.934	0.0146330
940.012	0.0145000
940.090	0.0145782
940.168	0.0146505
940.246	0.0147136
940.325	0.0146678
940.403	0.0146247
940.481	0.0145461
940.559	0.0145807
940.637	0.0146786
940.715	0.0147173
940.793	0.0147230
940.871	0.0146705
940.950	0.0145072
941.028	0.0144389
941.106	0.0146114
941.184	0.0146397
941.262	0.0144741
941.340	0.0144917
941.418	0.0145389
941.496	0.0145464
941.575	0.0145547
941.653	0.0145036
941.731	0.0144803
941.809	0.0146169
941.887	0.0145196
941.965	0.0145512
942.043	0.0144872
942.121	0.0145668
942.200	0.0144922
942.278	0.0146684
942.356	0.0145271
942.434	0.0144296
942.512	0.0144801
942.590	0.0145313
942.668	0.0145759
942.746	0.0145991
942.825	0.0147130
942.903	0.0144519
942.981	0.0145872
943.059	0.0145912
943.137	0.0145210
943.215	0.0145346
943.293	0.0144781
943.371	0.0144009
943.450	0.0145037
943.528	0.0145963
943.606	0.0144258
943.684	0.0145668
943.762	0.0145049
943.840	0.0144656
943.918	0.0144201
943.996	0.0143676
944.075	0.0144749
944.153	0.0144469
944.231	0.0143911
944.309	0.0144879
944.387	0.0145884
944.465	0.0145074
944.543	0.0145148
944.621	0.0145895
944.700	0.0145181
944.778	0.0145774
944.856	0.0144987
944.934	0.0145599
945.012	0.0144731
945.090	0.0145070
945.168	0.0145323
945.246	0.0145918
945.325	0.0143438
945.403	0.0146344
945.481	0.0146442
945.559	0.0146040
945.637	0.0144707
945.715	0.0145258
945.793	0.0145362
945.871	0.0145290
945.950	0.0144801
946.028	0.0145260
946.106	0.0145477
946.184	0.0144588
946.262	0.0145068
946.340	0.0144548
946.418	0.0145431
946.496	0.0144881
946.575	0.0143305
946.653	0.0144441
946.731	0.0145009
946.809	0.0144147
946.887	0.0143388
946.965	0.0144517
947.043	0.0143962
947.121	0.0143323
947.200	0.0145747
947.278	0.0144055
947.356	0.0143956
947.434	0.0145255
947.512	0.0145733
947.590	0.0144212
947.668	0.0145708
947.746	0.0145732
947.825	0.0144003
947.903	0.0144408
947.981	0.0145327
948.059	0.0145583
948.137	0.0145428
948.215	0.0146545
948.293	0.0145200
948.371	0.0145390
948.450	0.0144178
948.528	0.0145704
948.606	0.0143983
948.684	0.0145121
948.762	0.0146188
948.840	0.0144868
948.918	0.0145080
948.996	0.0145074
949.075	0.0144550
949.153	0.0144379
949.231	0.0145853
949.309	0.0144922
949.387	0.0146133
949.465	0.0144906
949.543	0.0146321
949.621	0.0146065
949.700	0.0145117
949.778	0.0144817
949.856	0.0144627
949.934	0.0145477
950.012	0.0144364
950.090	0.0144162
950.168	0.0143935
950.246	0.0144302
950.325	0.0143377
950.403	0.0143911
950.481	0.0144315
950.559	0.0144955
950.637	0.0146179
950.715	0.0145199
950.793	0.0144490
950.871	0.0144183
950.950	0.0145935
951.028	0.0146011
951.106	0.0146311
951.184	0.0145595
951.262	0.0145760
951.340	0.0145394
951.418	0.0144785
951.496	0.0146468
951.575	0.0145678
951.653	0.0144120
951.731	0.0145272
951.809	0.0145471
951.887	0.0144279
951.965	0.0146170
952.043	0.0144306
952.121	0.0143359
952.200	0.0145379
952.278	0.0144419
952.356	0.0142004
952.434	0.0143513
952.512	0.0143900
952.590	0.0145172
952.668	0.0143382
952.746	0.0144733
952.825	0.0143807
952.903	0.0144277
952.981	0.0144479
953.059	0.0145721
953.137	0.0145116
953.215	0.0145621
953.293	0.0146453
953.371	0.0144621
953.450	0.0145669
953.528	0.0145037
953.606	0.0144262
953.684	0.0144964
953.762	0.0146387
953.840	0.0145895
953.918	0.0146870
953.996	0.0146389
954.075	0.0145669
954.153	0.0146550
954.231	0.0145138
954.309	0.0147073
954.387	0.0146013
954.465	0.0146526
954.543	0.0144855
954.621	0.0145407
954.700	0.0144445
954.778	0.0144678
954.856	0.0145749
954.934	0.0144905
955.012	0.0144746
955.090	0.0144129
955.168	0.0143571
955.246	0.0143796
955.325	0.0143510
955.403	0.0142406
955.481	0.0143989
955.559	0.0145276
955.637	0.0143961
955.715	0.0145102
955.793	0.0144308
955.871	0.0144774
955.950	0.0144500
956.028	0.0145390
956.106	0.0145377
956.184	0.0145412
956.262	0.0146828
956.340	0.0146939
956.418	0.0144797
956.496	0.0145143
956.575	0.0145390
956.653	0.0146872
956.731	0.0147054
956.809	0.0145192
956.887	0.0146172
956.965	0.0146040
957.043	0.0145175
957.121	0.0146001
957.200	0.0146170
957.278	0.0144907
957.356	0.0144175
957.434	0.0143439
957.512	0.0143362
957.590	0.0144231
957.668	0.0142963
957.746	0.0143727
957.825	0.0143549
957.903	0.0142655
957.981	0.0142321
958.059	0.0142490
958.137	0.0144617
958.215	0.0144030
958.293	0.0143974
958.371	0.0142799
958.450	0.0144389
958.528	0.0144633
958.606	0.0144021
958.684	0.0144727
958.762	0.0145427
958.840	0.0144702
958.918	0.0145046
958.996	0.0145718
959.075	0.0146312
959.153	0.0145303
959.231	0.0145847
959.309	0.0145315
959.387	0.0144740
959.465	0.0145616
959.543	0.0145808
959.621	0.0144672
959.700	0.0145720
959.778	0.0146299
959.856	0.0145409
959.934	0.0144423
960.012	0.0146145
960.090	0.0144650
960.168	0.0144185
960.246	0.0144878
960.325	0.0144106
960.403	0.0143385
960.481	0.0143730
960.559	0.0143095
960.637	0.0143296
960.715	0.0144324
960.793	0.0143855
960.871	0.0143643
960.950	0.0142393
961.028	0.0143092
961.106	0.0143986
961.184	0.0144513
961.262	0.0143628
961.340	0.0145030
961.418	0.0144810
961.496	0.0145510
961.575	0.0146213
961.653	0.0145596
961.731	0.0146679
961.809	0.0145704
961.887	0.0145387
961.965	0.0145762
962.043	0.0145302
962.121	0.0145277
962.200	0.0144721
962.278	0.0145107
962.356	0.0145023
962.434	0.0144843
962.512	0.0145273
962.590	0.0144666
962.668	0.0144000
962.746	0.0144855
962.825	0.0144297
962.903	0.0145095
962.981	0.0144918
963.059	0.0143213
963.137	0.0143507
963.215	0.0144408
963.293	0.0146111
963.371	0.0146484
963.450	0.0145447
963.528	0.0145525
963.606	0.0146558
963.684	0.0145358
963.762	0.0144414
963.840	0.0145038
963.918	0.0144687
963.996	0.0146232
964.075	0.0146623
964.153	0.0146761
964.231	0.0145683
964.309	0.0146081
964.387	0.0147011
964.465	0.0147502
964.543	0.0145719
964.621	0.0146138
964.700	0.0146804
964.778	0.0145673
964.856	0.0145582
964.934	0.0144435
965.012	0.0146153
965.090	0.0145975
965.168	0.0144640
965.246	0.0143637
965.325	0.0143943
965.403	0.0145542
965.481	0.0145779
965.559	0.0145641
965.637	0.0144783
965.715	0.0145194
965.793	0.0146442
965.871	0.0144633
965.950	0.0145381
966.028	0.0144895
966.106	0.0147594
966.184	0.0146616
966.262	0.0146049
966.340	0.0146251
966.418	0.0145673
966.496	0.0145622
966.575	0.0144691
966.653	0.0144843
966.731	0.0145570
966.809	0.0145510
966.887	0.0144941
966.965	0.0144244
967.043	0.0144257
967.121	0.0146098
967.200	0.0145620
967.278	0.0144492
967.356	0.0144867
967.434	0.0145415
967.512	0.0143075
967.590	0.0144114
967.668	0.0143674
967.746	0.0144701
967.825	0.0145766
967.903	0.0145024
967.981	0.0143887
968.059	0.0144521
968.137	0.0146785
968.215	0.0146385
968.293	0.0145635
968.371	0.0146150
968.450	0.0147334
968.528	0.0146476
968.606	0.0146553
968.684	0.0145302
968.762	0.0145985
968.840	0.0145740
968.918	0.0145904
968.996	0.0144802
969.075	0.0145911
969.153	0.0147118
969.231	0.0144379
969.309	0.0144727
969.387	0.0146155
969.465	0.0145475
969.543	0.0144790
969.621	0.0144901
969.700	0.0145733
969.778	0.0144861
969.856	0.0143665
969.934	0.0145633
970.012	0.0144456
970.090	0.0143688
970.168	0.0144550
970.246	0.0145747
970.325	0.0145322
970.403	0.0144830
970.481	0.0144968
970.559	0.0144476
970.637	0.0145455
970.715	0.0144843
970.793	0.0145579
970.871	0.0144366
970.950	0.0144920
971.028	0.0146034
971.106	0.0145303
971.184	0.0146138
971.262	0.0146301
971.340	0.0145351
971.418	0.0145387
971.496	0.0145316
971.575	0.0144327
971.653	0.0144521
971.731	0.0145930
971.809	0.0145795
971.887	0.0143565
971.965	0.0145477
972.043	0.0146604
972.121	0.0144509
972.200	0.0144150
972.278	0.0143929
972.356	0.0145425
972.434	0.0144248
972.512	0.0144122
972.590	0.0144506
972.668	0.0144248
972.746	0.0145453
972.825	0.0145457
972.903	0.0145415
972.981	0.0145553
973.059	0.0144935
973.137	0.0144332
973.215	0.0144447
973.293	0.0146353
973.371	0.0144850
973.450	0.0144720
973.528	0.0145501
973.606	0.0146004
973.684	0.0144104
973.762	0.0143886
973.840	0.0143600
973.918	0.0143402
973.996	0.0143024
974.075	0.0142858
974.153	0.0144822
974.231	0.0145451
974.309	0.0145441
974.387	0.0145121
974.465	0.0143812
974.543	0.0142960
974.621	0.0143981
974.700	0.0144478
974.778	0.0144494
974.856	0.0143684
974.934	0.0145396
975.012	0.0146177
975.090	0.0144362
975.168	0.0144128
975.246	0.0144629
975.325	0.0145763
975.403	0.0144604
975.481	0.0145383
975.559	0.0145103
975.637	0.0146284
975.715	0.0144019
975.793	0.0144458
975.871	0.0146306
975.950	0.0144931
976.028	0.0144927
976.106	0.0145737
976.184	0.0144387
976.262	0.0145889
976.340	0.0145078
976.418	0.0145004
976.496	0.0144639
976.575	0.0143317
976.653	0.0142984
976.731	0.0144213
976.809	0.0145174
976.887	0.0144514
976.965	0.0145012
977.043	0.0144106
977.121	0.0144886
977.200	0.0144323
977.278	0.0144609
977.356	0.0144588
977.434	0.0143462
977.512	0.0143293
977.590	0.0144199
977.668	0.0145677
977.746	0.0144645
977.825	0.0144569
977.903	0.0144402
977.981	0.0145059
978.059	0.0144789
978.137	0.0144415
978.215	0.0145763
978.293	0.0146443
978.371	0.0144376
978.450	0.0145511
978.528	0.0145565
978.606	0.0144764
978.684	0.0144341
978.762	0.0145590
978.840	0.0144833
978.918	0.0145509
978.996	0.0144589
979.075	0.0144380
979.153	0.0144198
979.231	0.0144883
979.309	0.0144460
979.387	0.0145845
979.465	0.0144546
979.543	0.0144638
979.621	0.0144740
979.700	0.0144809
979.778	0.0144343
979.856	0.0145120
979.934	0.0145360
980.012	0.0145255
980.090	0.0146054
980.168	0.0144000
980.246	0.0145823
980.325	0.0144640
980.403	0.0145413
980.481	0.0146184
980.559	0.0145833
980.637	0.0145052
980.715	0.0146199
980.793	0.0146601
980.871	0.0146425
980.950	0.0145915
981.028	0.0145261
981.106	0.0145443
981.184	0.0145211
981.262	0.0143967
981.340	0.0144191
981.418	0.0143602
981.496	0.0144945
981.575	0.0145090
981.653	0.0143875
981.731	0.0143483
981.809	0.0143954
981.887	0.0143762
981.965	0.0142358
982.043	0.0144097
982.121	0.0143472
982.200	0.0143839
982.278	0.0145149
982.356	0.0143694
982.434	0.0144377
982.512	0.0143804
982.590	0.0144791
982.668	0.0146007
982.746	0.0144887
982.825	0.0145525
982.903	0.0145605
982.981	0.0146780
983.059	0.0144798
983.137	0.0144347
983.215	0.0146180
983.293	0.0146061
983.371	0.0146649
983.450	0.0144852
983.528	0.0145457
983.606	0.0143850
983.684	0.0144455
983.762	0.0144083
983.840	0.0144070
983.918	0.0143669
983.996	0.0143971
984.075	0.0146317
984.153	0.0144328
984.231	0.0144360
984.309	0.0144603
984.387	0.0143208
984.465	0.0144823
984.543	0.0145824
984.621	0.0145033
984.700	0.0144279
984.778	0.0144818
984.856	0.0144343
984.934	0.0143761
985.012	0.0145544
985.090	0.0145805
985.168	0.0144804
985.246	0.0145902
985.325	0.0146329
985.403	0.0145149
985.481	0.0145808
985.559	0.0146023
985.637	0.0146053
985.715	0.0144803
985.793	0.0146915
985.871	0.0145665
985.950	0.0144989
986.028	0.0145415
986.106	0.0144898
986.184	0.0144303
986.262	0.0145958
986.340	0.0146761
986.418	0.0144951
986.496	0.0144519
986.575	0.0143920
986.653	0.0145032
986.731	0.0146066
986.809	0.0145421
986.887	0.0145076
986.965	0.0146178
987.043	0.0145033
987.121	0.0144556
987.200	0.0144740
987.278	0.0144353
987.356	0.0143651
987.434	0.0144183
987.512	0.0144976
987.590	0.0145204
987.668	0.0144672
987.746	0.0145821
987.825	0.0145564
987.903	0.0146452
987.981	0.0146205
988.059	0.0145988
988.137	0.0146687
988.215	0.0145680
988.293	0.0145052
988.371	0.0146365
988.450	0.0146136
988.528	0.0145795
988.606	0.0145846
988.684	0.0145755
988.762	0.0146413
988.840	0.0144974
988.918	0.0144220
988.996	0.0146387
989.075	0.0146085
989.153	0.0146197
989.231	0.0145695
989.309	0.0145883
989.387	0.0145314
989.465	0.0144511
989.543	0.0144867
989.621	0.0144976
989.700	0.0144358
989.778	0.0146747
989.856	0.0145070
989.934	0.0146090
990.012	0.0145480
990.090	0.0146685
990.168	0.0143108
990.246	0.0144712
990.325	0.0145648
990.403	0.0144748
990.481	0.0144683
990.559	0.0144566
990.637	0.0146297
990.715	0.0145370
990.793	0.0145371
990.871	0.0146123
990.950	0.0143864
991.028	0.0144254
991.106	0.0146756
991.184	0.0146547
991.262	0.0144424
991.340	0.0144592
991.418	0.0145660
991.496	0.0145406
991.575	0.0145114
991.653	0.0145029
991.731	0.0145484
991.809	0.0145911
991.887	0.0145599
991.965	0.0146017
992.043	0.0144680
992.121	0.0146063
992.200	0.0145610
992.278	0.0145561
992.356	0.0145305
992.434	0.0145588
992.512	0.0145537
992.590	0.0146568
992.668	0.0146043
992.746	0.0145197
992.825	0.0145388
992.903	0.0146085
992.981	0.0145694
993.059	0.0145847
993.137	0.0145644
993.215	0.0144936
993.293	0.0145242
993.371	0.0143896
993.450	0.0144175
993.528	0.0142873
993.606	0.0144622
993.684	0.0145308
993.762	0.0144588
993.840	0.0143448
993.918	0.0143307
993.996	0.0143857
994.075	0.0144073
994.153	0.0146321
994.231	0.0143476
994.309	0.0144125
994.387	0.0145101
994.465	0.0146198
994.543	0.0144463
994.621	0.0144041
994.700	0.0145215
994.778	0.0145451
994.856	0.0145148
994.934	0.0144263
995.012	0.0144287
995.090	0.0144168
995.168	0.0145485
995.246	0.0144440
995.325	0.0143882
995.403	0.0143735
995.481	0.0145010
995.559	0.0144787
995.637	0.0143442
995.715	0.0145026
995.793	0.0144767
995.871	0.0144297
995.950	0.0145331
996.028	0.0143394
996.106	0.0145062
996.184	0.0144653
996.262	0.0144215
996.340	0.0144622
996.418	0.0144650
996.496	0.0144792
996.575	0.0144553
996.653	0.0145211
996.731	0.0144585
996.809	0.0145510
996.887	0.0144406
996.965	0.0145780
997.043	0.0145452
997.121	0.0145419
997.200	0.0144475
997.278	0.0145506
997.356	0.0145380
997.434	0.0146614
997.512	0.0145258
997.590	0.0146285
997.668	0.0145438
997.746	0.0144707
997.825	0.0145557
997.903	0.0144360
997.981	0.0144856
998.059	0.0144991
998.137	0.0144184
998.215	0.0145141
998.293	0.0145392
998.371	0.0144854
998.450	0.0145200
998.528	0.0145318
998.606	0.0144353
998.684	0.0144579
998.762	0.0144109
998.840	0.0145901
998.918	0.0146726
