05/04/2022	21:06:27	Ver.	4.1	UNKNOWN
Optical Delay	678.996401	Delta X		0.078125	Sweeps	1	Scan Rate	0/0
Coordinates	Axis 1	NaN	Axis 2	NaN	Axis 3	NaN	Axis 4	NaN	Axis 5	NaN	Axis 6	0.000000
TX Power	0.000000	RX Power	0.000000

678.996	0.0149545
679.075	0.0148778
679.153	0.0148485
679.231	0.0150614
679.309	0.0149436
679.387	0.0148602
679.465	0.0148786
679.543	0.0148689
679.621	0.0150411
679.700	0.0149984
679.778	0.0149973
679.856	0.0149191
679.934	0.0149825
680.012	0.0148577
680.090	0.0148331
680.168	0.0150006
680.246	0.0148169
680.325	0.0148270
680.403	0.0148535
680.481	0.0149889
680.559	0.0148967
680.637	0.0148523
680.715	0.0149856
680.793	0.0147974
680.871	0.0149412
680.950	0.0149055
681.028	0.0149376
681.106	0.0148985
681.184	0.0149834
681.262	0.0150869
681.340	0.0150117
681.418	0.0149467
681.496	0.0149004
681.575	0.0150494
681.653	0.0149838
681.731	0.0151151
681.809	0.0149390
681.887	0.0149918
681.965	0.0149793
682.043	0.0148501
682.121	0.0149926
682.200	0.0149565
682.278	0.0148577
682.356	0.0150141
682.434	0.0149814
682.512	0.0148145
682.590	0.0149256
682.668	0.0149693
682.746	0.0149471
682.825	0.0149052
682.903	0.0149953
682.981	0.0149102
683.059	0.0148806
683.137	0.0149120
683.215	0.0150190
683.293	0.0149866
683.371	0.0149281
683.450	0.0148859
683.528	0.0149842
683.606	0.0148784
683.684	0.0149332
683.762	0.0148409
683.840	0.0150053
683.918	0.0148765
683.996	0.0149860
684.075	0.0149052
684.153	0.0148919
684.231	0.0148261
684.309	0.0149638
684.387	0.0149708
684.465	0.0148425
684.543	0.0148690
684.621	0.0149719
684.700	0.0148775
684.778	0.0149857
684.856	0.0150300
684.934	0.0149867
685.012	0.0149176
685.090	0.0149641
685.168	0.0149130
685.246	0.0149102
685.325	0.0149204
685.403	0.0150227
685.481	0.0149725
685.559	0.0148837
685.637	0.0148485
685.715	0.0148914
685.793	0.0149516
685.871	0.0149249
685.950	0.0149400
686.028	0.0147468
686.106	0.0149073
686.184	0.0149737
686.262	0.0149449
686.340	0.0149165
686.418	0.0148356
686.496	0.0148549
686.575	0.0148392
686.653	0.0150012
686.731	0.0148933
686.809	0.0148645
686.887	0.0150683
686.965	0.0149326
687.043	0.0149390
687.121	0.0148717
687.200	0.0149052
687.278	0.0149794
687.356	0.0149132
687.434	0.0148901
687.512	0.0148282
687.590	0.0148849
687.668	0.0150261
687.746	0.0148298
687.825	0.0150055
687.903	0.0149413
687.981	0.0149779
688.059	0.0149542
688.137	0.0149242
688.215	0.0148701
688.293	0.0150357
688.371	0.0149328
688.450	0.0149248
688.528	0.0149483
688.606	0.0149590
688.684	0.0148611
688.762	0.0149461
688.840	0.0149612
688.918	0.0150197
688.996	0.0149601
689.075	0.0148725
689.153	0.0149068
689.231	0.0149556
689.309	0.0149701
689.387	0.0149472
689.465	0.0148397
689.543	0.0148833
689.621	0.0150151
689.700	0.0150365
689.778	0.0150256
689.856	0.0148933
689.934	0.0149189
690.012	0.0149533
690.090	0.0149910
690.168	0.0150595
690.246	0.0149686
690.325	0.0149068
690.403	0.0147594
690.481	0.0149516
690.559	0.0150183
690.637	0.0150212
690.715	0.0149155
690.793	0.0148669
690.871	0.0149079
690.950	0.0149703
691.028	0.0149135
691.106	0.0147857
691.184	0.0150156
691.262	0.0149105
691.340	0.0148857
691.418	0.0150198
691.496	0.0149195
691.575	0.0149097
691.653	0.0147382
691.731	0.0149976
691.809	0.0148418
691.887	0.0147978
691.965	0.0150063
692.043	0.0149795
692.121	0.0149408
692.200	0.0148079
692.278	0.0149728
692.356	0.0149792
692.434	0.0149816
692.512	0.0148927
692.590	0.0147293
692.668	0.0148931
692.746	0.0149797
692.825	0.0149281
692.903	0.0149163
692.981	0.0149598
693.059	0.0147591
693.137	0.0148072
693.215	0.0148272
693.293	0.0148608
693.371	0.0147707
693.450	0.0148470
693.528	0.0149942
693.606	0.0149150
693.684	0.0149641
693.762	0.0148734
693.840	0.0148841
693.918	0.0149805
693.996	0.0149403
694.075	0.0150443
694.153	0.0149487
694.231	0.0149184
694.309	0.0148798
694.387	0.0148033
694.465	0.0148176
694.543	0.0149476
694.621	0.0150034
694.700	0.0150026
694.778	0.0149062
694.856	0.0147879
694.934	0.0148814
695.012	0.0150053
695.090	0.0149541
695.168	0.0149124
695.246	0.0149030
695.325	0.0148841
695.403	0.0148273
695.481	0.0149176
695.559	0.0148969
695.637	0.0149192
695.715	0.0148248
695.793	0.0148919
695.871	0.0148420
695.950	0.0149889
696.028	0.0150191
696.106	0.0149706
696.184	0.0149129
696.262	0.0149994
696.340	0.0150203
696.418	0.0151245
696.496	0.0149171
696.575	0.0149483
696.653	0.0149667
696.731	0.0150230
696.809	0.0149622
696.887	0.0148856
696.965	0.0148366
697.043	0.0149377
697.121	0.0148540
697.200	0.0148595
697.278	0.0149254
697.356	0.0148679
697.434	0.0149015
697.512	0.0148649
697.590	0.0148702
697.668	0.0147524
697.746	0.0149197
697.825	0.0147424
697.903	0.0149052
697.981	0.0148920
698.059	0.0149191
698.137	0.0149007
698.215	0.0150320
698.293	0.0149685
698.371	0.0147642
698.450	0.0150385
698.528	0.0149966
698.606	0.0149191
698.684	0.0150045
698.762	0.0150643
698.840	0.0149832
698.918	0.0150435
698.996	0.0151769
699.075	0.0150159
699.153	0.0149689
699.231	0.0149693
699.309	0.0150307
699.387	0.0150669
699.465	0.0147984
699.543	0.0148466
699.621	0.0148224
699.700	0.0146204
699.778	0.0147257
699.856	0.0147949
699.934	0.0147076
700.012	0.0146112
700.090	0.0145612
700.168	0.0146341
700.246	0.0146480
700.325	0.0147251
700.403	0.0145789
700.481	0.0146783
700.559	0.0148512
700.637	0.0148801
700.715	0.0148560
700.793	0.0149802
700.871	0.0149789
700.950	0.0149429
701.028	0.0149352
701.106	0.0148671
701.184	0.0150197
701.262	0.0151710
701.340	0.0151371
701.418	0.0150408
701.496	0.0150230
701.575	0.0151381
701.653	0.0151000
701.731	0.0149371
701.809	0.0149670
701.887	0.0150690
701.965	0.0149429
702.043	0.0149240
702.121	0.0149350
702.200	0.0147768
702.278	0.0148837
702.356	0.0149317
702.434	0.0148819
702.512	0.0148418
702.590	0.0150391
702.668	0.0149793
702.746	0.0148871
702.825	0.0148405
702.903	0.0149036
702.981	0.0147954
703.059	0.0149393
703.137	0.0149104
703.215	0.0149667
703.293	0.0148225
703.371	0.0149626
703.450	0.0149169
703.528	0.0148862
703.606	0.0149437
703.684	0.0150735
703.762	0.0150339
703.840	0.0150365
703.918	0.0151191
703.996	0.0151872
704.075	0.0151031
704.153	0.0152454
704.231	0.0154070
704.309	0.0153106
704.387	0.0152663
704.465	0.0152536
704.543	0.0150297
704.621	0.0147791
704.700	0.0147576
704.778	0.0145390
704.856	0.0143957
704.934	0.0142436
705.012	0.0142789
705.090	0.0141938
705.168	0.0142575
705.246	0.0141471
705.325	0.0144737
705.403	0.0145884
705.481	0.0147121
705.559	0.0149463
705.637	0.0150144
705.715	0.0150604
705.793	0.0153515
705.871	0.0154175
705.950	0.0154641
706.028	0.0154494
706.106	0.0155405
706.184	0.0153661
706.262	0.0156384
706.340	0.0156707
706.418	0.0155354
706.496	0.0156373
706.575	0.0156516
706.653	0.0153219
706.731	0.0151182
706.809	0.0148112
706.887	0.0146548
706.965	0.0141545
707.043	0.0139103
707.121	0.0136396
707.200	0.0136368
707.278	0.0137959
707.356	0.0139171
707.434	0.0140049
707.512	0.0142348
707.590	0.0142313
707.668	0.0141256
707.746	0.0144455
707.825	0.0144419
707.903	0.0144627
707.981	0.0146161
708.059	0.0146683
708.137	0.0150587
708.215	0.0152362
708.293	0.0156344
708.371	0.0157482
708.450	0.0158860
708.528	0.0160564
708.606	0.0162435
708.684	0.0162148
708.762	0.0161500
708.840	0.0162540
708.918	0.0161165
708.996	0.0160899
709.075	0.0159698
709.153	0.0157867
709.231	0.0155417
709.309	0.0151487
709.387	0.0148062
709.465	0.0144657
709.543	0.0141789
709.621	0.0137717
709.700	0.0135146
709.778	0.0132818
709.856	0.0132265
709.934	0.0130402
710.012	0.0128844
710.090	0.0130549
710.168	0.0130794
710.246	0.0131123
710.325	0.0135794
710.403	0.0140248
710.481	0.0145873
710.559	0.0152312
710.637	0.0157200
710.715	0.0163270
710.793	0.0165894
710.871	0.0169916
710.950	0.0171126
711.028	0.0170232
711.106	0.0166705
711.184	0.0166346
711.262	0.0164845
711.340	0.0162175
711.418	0.0159272
711.496	0.0156796
711.575	0.0154843
711.653	0.0152740
711.731	0.0151221
711.809	0.0149823
711.887	0.0148741
711.965	0.0148732
712.043	0.0145908
712.121	0.0142867
712.200	0.0141496
712.278	0.0139122
712.356	0.0138220
712.434	0.0134856
712.512	0.0132932
712.590	0.0132021
712.668	0.0130890
712.746	0.0131265
712.825	0.0131447
712.903	0.0133591
712.981	0.0136969
713.059	0.0138538
713.137	0.0140965
713.215	0.0145901
713.293	0.0152201
713.371	0.0156076
713.450	0.0159133
713.528	0.0162012
713.606	0.0167489
713.684	0.0169003
713.762	0.0170660
713.840	0.0171217
713.918	0.0170983
713.996	0.0168625
714.075	0.0167867
714.153	0.0165629
714.231	0.0160144
714.309	0.0155968
714.387	0.0151325
714.465	0.0148755
714.543	0.0149098
714.621	0.0146092
714.700	0.0144975
714.778	0.0145392
714.856	0.0145159
714.934	0.0142507
715.012	0.0141366
715.090	0.0140343
715.168	0.0139008
715.246	0.0137054
715.325	0.0134149
715.403	0.0132896
715.481	0.0131875
715.559	0.0132243
715.637	0.0132544
715.715	0.0133295
715.793	0.0137065
715.871	0.0140498
715.950	0.0145995
716.028	0.0149817
716.106	0.0155295
716.184	0.0161035
716.262	0.0165100
716.340	0.0167963
716.418	0.0168259
716.496	0.0169092
716.575	0.0166196
716.653	0.0163191
716.731	0.0160751
716.809	0.0159390
716.887	0.0156507
716.965	0.0152580
717.043	0.0150361
717.121	0.0150185
717.200	0.0148380
717.278	0.0147512
717.356	0.0145475
717.434	0.0144574
717.512	0.0143099
717.590	0.0141823
717.668	0.0140249
717.746	0.0140360
717.825	0.0140931
717.903	0.0140675
717.981	0.0142026
718.059	0.0142348
718.137	0.0143545
718.215	0.0144701
718.293	0.0146576
718.371	0.0147073
718.450	0.0146979
718.528	0.0147633
718.606	0.0146912
718.684	0.0147846
718.762	0.0150068
718.840	0.0149442
718.918	0.0151259
718.996	0.0152461
719.075	0.0153438
719.153	0.0153931
719.231	0.0153520
719.309	0.0154855
719.387	0.0155003
719.465	0.0154889
719.543	0.0152160
719.621	0.0149158
719.700	0.0149803
719.778	0.0148127
719.856	0.0147192
719.934	0.0146569
720.012	0.0142913
720.090	0.0141598
720.168	0.0141362
720.246	0.0142304
720.325	0.0143261
720.403	0.0143397
720.481	0.0144321
720.559	0.0146568
720.637	0.0149612
720.715	0.0150683
720.793	0.0150751
720.871	0.0152668
720.950	0.0153876
721.028	0.0155692
721.106	0.0156438
721.184	0.0155635
721.262	0.0155057
721.340	0.0152758
721.418	0.0153862
721.496	0.0151527
721.575	0.0149986
721.653	0.0147450
721.731	0.0147253
721.809	0.0147593
721.887	0.0147918
721.965	0.0146830
722.043	0.0148794
722.121	0.0148655
722.200	0.0150834
722.278	0.0151915
722.356	0.0153593
722.434	0.0153556
722.512	0.0153368
722.590	0.0151838
722.668	0.0150263
722.746	0.0150852
722.825	0.0150666
722.903	0.0148981
722.981	0.0147860
723.059	0.0146798
723.137	0.0146403
723.215	0.0145292
723.293	0.0146935
723.371	0.0147360
723.450	0.0145501
723.528	0.0147819
723.606	0.0146938
723.684	0.0147095
723.762	0.0144834
723.840	0.0145731
723.918	0.0145856
723.996	0.0145520
724.075	0.0145431
724.153	0.0146352
724.231	0.0146742
724.309	0.0147705
724.387	0.0147913
724.465	0.0149005
724.543	0.0149288
724.621	0.0150529
724.700	0.0151862
724.778	0.0153098
724.856	0.0154417
724.934	0.0155353
725.012	0.0157382
725.090	0.0159946
725.168	0.0159373
725.246	0.0159608
725.325	0.0161372
725.403	0.0161089
725.481	0.0158768
725.559	0.0157342
725.637	0.0157542
725.715	0.0155252
725.793	0.0154612
725.871	0.0151132
725.950	0.0148130
726.028	0.0146452
726.106	0.0142531
726.184	0.0140467
726.262	0.0137579
726.340	0.0136246
726.418	0.0134819
726.496	0.0133729
726.575	0.0134795
726.653	0.0135864
726.731	0.0136979
726.809	0.0137228
726.887	0.0140632
726.965	0.0142456
727.043	0.0145828
727.121	0.0145741
727.200	0.0148798
727.278	0.0151690
727.356	0.0153381
727.434	0.0155443
727.512	0.0157755
727.590	0.0157784
727.668	0.0160503
727.746	0.0160644
727.825	0.0161155
727.903	0.0160705
727.981	0.0160046
728.059	0.0161301
728.137	0.0159860
728.215	0.0158481
728.293	0.0157629
728.371	0.0156107
728.450	0.0155407
728.528	0.0154465
728.606	0.0151278
728.684	0.0150942
728.762	0.0149809
728.840	0.0147987
728.918	0.0143898
728.996	0.0142524
729.075	0.0140476
729.153	0.0138843
729.231	0.0136486
729.309	0.0135606
729.387	0.0136101
729.465	0.0135583
729.543	0.0136141
729.621	0.0139806
729.700	0.0140604
729.778	0.0142891
729.856	0.0145753
729.934	0.0148545
730.012	0.0152927
730.090	0.0153600
730.168	0.0156012
730.246	0.0155902
730.325	0.0157464
730.403	0.0157793
730.481	0.0157228
730.559	0.0155509
730.637	0.0156663
730.715	0.0152856
730.793	0.0152387
730.871	0.0151731
730.950	0.0150504
731.028	0.0150064
731.106	0.0148798
731.184	0.0148216
731.262	0.0147598
731.340	0.0148272
731.418	0.0149261
731.496	0.0145809
731.575	0.0148695
731.653	0.0148590
731.731	0.0148592
731.809	0.0148769
731.887	0.0150451
731.965	0.0147789
732.043	0.0147585
732.121	0.0148753
732.200	0.0148701
732.278	0.0149542
732.356	0.0148540
732.434	0.0149258
732.512	0.0150072
732.590	0.0150780
732.668	0.0149997
732.746	0.0151001
732.825	0.0151429
732.903	0.0152953
732.981	0.0151977
733.059	0.0152591
733.137	0.0152468
733.215	0.0153036
733.293	0.0152012
733.371	0.0149806
733.450	0.0148735
733.528	0.0147610
733.606	0.0146345
733.684	0.0144586
733.762	0.0145171
733.840	0.0143854
733.918	0.0143079
733.996	0.0142338
734.075	0.0144068
734.153	0.0144785
734.231	0.0146344
734.309	0.0146269
734.387	0.0147725
734.465	0.0150149
734.543	0.0151141
734.621	0.0153174
734.700	0.0153535
734.778	0.0156607
734.856	0.0156475
734.934	0.0157047
735.012	0.0158115
735.090	0.0159080
735.168	0.0159286
735.246	0.0158661
735.325	0.0157248
735.403	0.0156181
735.481	0.0155212
735.559	0.0153020
735.637	0.0148528
735.715	0.0147707
735.793	0.0146679
735.871	0.0142982
735.950	0.0143176
736.028	0.0142189
736.106	0.0141287
736.184	0.0142091
736.262	0.0142221
736.340	0.0142637
736.418	0.0143752
736.496	0.0144272
736.575	0.0145657
736.653	0.0146814
736.731	0.0148060
736.809	0.0148657
736.887	0.0151432
736.965	0.0153001
737.043	0.0154140
737.121	0.0154893
737.200	0.0154977
737.278	0.0156915
737.356	0.0156274
737.434	0.0156166
737.512	0.0157998
737.590	0.0157367
737.668	0.0155985
737.746	0.0155318
737.825	0.0154898
737.903	0.0153563
737.981	0.0154180
738.059	0.0152757
738.137	0.0149411
738.215	0.0148186
738.293	0.0147334
738.371	0.0145143
738.450	0.0144170
738.528	0.0141527
738.606	0.0140543
738.684	0.0138654
738.762	0.0138888
738.840	0.0139708
738.918	0.0140218
738.996	0.0139613
739.075	0.0139723
739.153	0.0143926
739.231	0.0143903
739.309	0.0146921
739.387	0.0147302
739.465	0.0151476
739.543	0.0152094
739.621	0.0154514
739.700	0.0155523
739.778	0.0156945
739.856	0.0158611
739.934	0.0158169
740.012	0.0159173
740.090	0.0159607
740.168	0.0157890
740.246	0.0158875
740.325	0.0156236
740.403	0.0155498
740.481	0.0154899
740.559	0.0152197
740.637	0.0152008
740.715	0.0151219
740.793	0.0148251
740.871	0.0147547
740.950	0.0146587
741.028	0.0144730
741.106	0.0141959
741.184	0.0141585
741.262	0.0140019
741.340	0.0141605
741.418	0.0141573
741.496	0.0141309
741.575	0.0141070
741.653	0.0141464
741.731	0.0142931
741.809	0.0143829
741.887	0.0145335
741.965	0.0146739
742.043	0.0146674
742.121	0.0149529
742.200	0.0150959
742.278	0.0151309
742.356	0.0151538
742.434	0.0153184
742.512	0.0153066
742.590	0.0154084
742.668	0.0154568
742.746	0.0155475
742.825	0.0155863
742.903	0.0154393
742.981	0.0154169
743.059	0.0153088
743.137	0.0151217
743.215	0.0152545
743.293	0.0150959
743.371	0.0148029
743.450	0.0148569
743.528	0.0146181
743.606	0.0146130
743.684	0.0144952
743.762	0.0142575
743.840	0.0143572
743.918	0.0143011
743.996	0.0141600
744.075	0.0143612
744.153	0.0145143
744.231	0.0144617
744.309	0.0146293
744.387	0.0145869
744.465	0.0149804
744.543	0.0149368
744.621	0.0152612
744.700	0.0153101
744.778	0.0153795
744.856	0.0155101
744.934	0.0154623
745.012	0.0155886
745.090	0.0154416
745.168	0.0153865
745.246	0.0154517
745.325	0.0154085
745.403	0.0154084
745.481	0.0150992
745.559	0.0149611
745.637	0.0151055
745.715	0.0148827
745.793	0.0148161
745.871	0.0146961
745.950	0.0147079
746.028	0.0146466
746.106	0.0146115
746.184	0.0145274
746.262	0.0144981
746.340	0.0144884
746.418	0.0146329
746.496	0.0145904
746.575	0.0145734
746.653	0.0145988
746.731	0.0146745
746.809	0.0147041
746.887	0.0149429
746.965	0.0149072
747.043	0.0150613
747.121	0.0151301
747.200	0.0152093
747.278	0.0153201
747.356	0.0153405
747.434	0.0152907
747.512	0.0153142
747.590	0.0154263
747.668	0.0154408
747.746	0.0154416
747.825	0.0153599
747.903	0.0152676
747.981	0.0151453
748.059	0.0150379
748.137	0.0150041
748.215	0.0148147
748.293	0.0147340
748.371	0.0147271
748.450	0.0146938
748.528	0.0148462
748.606	0.0147101
748.684	0.0146061
748.762	0.0146321
748.840	0.0146179
748.918	0.0145779
748.996	0.0147662
749.075	0.0147230
749.153	0.0148421
749.231	0.0149567
749.309	0.0149628
749.387	0.0150774
749.465	0.0148927
749.543	0.0149877
749.621	0.0149848
749.700	0.0150256
749.778	0.0151528
749.856	0.0152043
749.934	0.0152555
750.012	0.0151934
750.090	0.0151948
750.168	0.0152213
750.246	0.0151459
750.325	0.0151421
750.403	0.0151025
750.481	0.0150996
750.559	0.0151424
750.637	0.0150700
750.715	0.0149757
750.793	0.0149873
750.871	0.0149674
750.950	0.0148070
751.028	0.0145229
751.106	0.0145733
751.184	0.0147955
751.262	0.0146128
751.340	0.0146365
751.418	0.0145018
751.496	0.0145415
751.575	0.0146047
751.653	0.0145897
751.731	0.0146902
751.809	0.0148090
751.887	0.0149020
751.965	0.0148920
752.043	0.0148631
752.121	0.0151118
752.200	0.0150054
752.278	0.0150896
752.356	0.0150521
752.434	0.0152386
752.512	0.0151999
752.590	0.0153600
752.668	0.0153066
752.746	0.0153278
752.825	0.0152711
752.903	0.0153316
752.981	0.0151347
753.059	0.0150902
753.137	0.0149955
753.215	0.0150477
753.293	0.0149195
753.371	0.0148846
753.450	0.0147342
753.528	0.0146070
753.606	0.0146033
753.684	0.0146163
753.762	0.0145862
753.840	0.0145738
753.918	0.0144936
753.996	0.0145311
754.075	0.0145403
754.153	0.0146554
754.231	0.0145988
754.309	0.0146493
754.387	0.0147050
754.465	0.0148765
754.543	0.0148423
754.621	0.0149680
754.700	0.0149711
754.778	0.0151492
754.856	0.0151273
754.934	0.0150850
755.012	0.0152597
755.090	0.0153018
755.168	0.0153635
755.246	0.0153835
755.325	0.0153503
755.403	0.0151006
755.481	0.0151609
755.559	0.0151743
755.637	0.0151537
755.715	0.0150617
755.793	0.0149615
755.871	0.0148570
755.950	0.0147749
756.028	0.0149030
756.106	0.0147520
756.184	0.0146756
756.262	0.0146788
756.340	0.0146687
756.418	0.0146504
756.496	0.0145711
756.575	0.0147780
756.653	0.0147936
756.731	0.0148495
756.809	0.0148322
756.887	0.0147861
756.965	0.0148316
757.043	0.0149066
757.121	0.0148497
757.200	0.0149097
757.278	0.0149713
757.356	0.0151112
757.434	0.0150984
757.512	0.0151199
757.590	0.0151013
757.668	0.0151691
757.746	0.0150175
757.825	0.0151612
757.903	0.0150650
757.981	0.0150169
758.059	0.0151452
758.137	0.0149300
758.215	0.0149296
758.293	0.0149694
758.371	0.0150368
758.450	0.0150422
758.528	0.0151186
758.606	0.0150261
758.684	0.0150448
758.762	0.0149745
758.840	0.0148880
758.918	0.0148407
758.996	0.0149002
759.075	0.0148556
759.153	0.0150611
759.231	0.0150177
759.309	0.0148766
759.387	0.0149689
759.465	0.0150768
759.543	0.0149813
759.621	0.0149018
759.700	0.0150909
759.778	0.0151911
759.856	0.0150376
759.934	0.0149797
760.012	0.0150361
760.090	0.0149640
760.168	0.0151086
760.246	0.0150496
760.325	0.0149821
760.403	0.0148567
760.481	0.0150423
760.559	0.0149231
760.637	0.0149751
760.715	0.0149358
760.793	0.0149393
760.871	0.0149471
760.950	0.0149321
761.028	0.0148483
761.106	0.0147242
761.184	0.0146439
761.262	0.0147753
761.340	0.0146333
761.418	0.0145866
761.496	0.0146616
761.575	0.0147958
761.653	0.0147089
761.731	0.0147001
761.809	0.0146789
761.887	0.0148429
761.965	0.0147838
762.043	0.0147918
762.121	0.0148553
762.200	0.0148686
762.278	0.0148077
762.356	0.0149059
762.434	0.0150179
762.512	0.0150084
762.590	0.0150538
762.668	0.0151588
762.746	0.0152361
762.825	0.0152355
762.903	0.0152412
762.981	0.0153442
763.059	0.0153050
763.137	0.0152649
763.215	0.0152798
763.293	0.0151778
763.371	0.0152509
763.450	0.0150941
763.528	0.0150122
763.606	0.0151390
763.684	0.0148547
763.762	0.0148005
763.840	0.0146073
763.918	0.0146843
763.996	0.0146180
764.075	0.0146163
764.153	0.0146175
764.231	0.0147771
764.309	0.0146538
764.387	0.0146639
764.465	0.0146671
764.543	0.0145854
764.621	0.0148239
764.700	0.0146982
764.778	0.0147703
764.856	0.0149523
764.934	0.0148705
765.012	0.0147187
765.090	0.0149525
765.168	0.0151458
765.246	0.0151229
765.325	0.0150157
765.403	0.0150820
765.481	0.0151618
765.559	0.0151424
765.637	0.0150979
765.715	0.0151482
765.793	0.0149972
765.871	0.0149798
765.950	0.0150739
766.028	0.0151094
766.106	0.0150368
766.184	0.0148620
766.262	0.0149940
766.340	0.0149264
766.418	0.0147622
766.496	0.0148659
766.575	0.0148257
766.653	0.0146448
766.731	0.0147956
766.809	0.0147192
766.887	0.0148036
766.965	0.0147726
767.043	0.0148701
767.121	0.0148458
767.200	0.0148820
767.278	0.0148473
767.356	0.0149348
767.434	0.0149153
767.512	0.0149184
767.590	0.0150249
767.668	0.0150111
767.746	0.0150243
767.825	0.0149704
767.903	0.0151400
767.981	0.0150157
768.059	0.0150043
768.137	0.0150455
768.215	0.0149345
768.293	0.0150723
768.371	0.0149907
768.450	0.0150399
768.528	0.0149635
768.606	0.0148693
768.684	0.0150115
768.762	0.0149625
768.840	0.0149872
768.918	0.0148656
768.996	0.0148668
769.075	0.0148754
769.153	0.0149851
769.231	0.0147205
769.309	0.0147778
769.387	0.0149157
769.465	0.0147462
769.543	0.0146849
769.621	0.0149187
769.700	0.0148963
769.778	0.0149462
769.856	0.0149049
769.934	0.0148404
770.012	0.0148600
770.090	0.0149671
770.168	0.0148972
770.246	0.0148744
770.325	0.0149512
770.403	0.0150658
770.481	0.0150056
770.559	0.0150705
770.637	0.0150293
770.715	0.0149968
770.793	0.0150851
770.871	0.0151434
770.950	0.0151340
771.028	0.0150637
771.106	0.0149907
771.184	0.0150024
771.262	0.0151501
771.340	0.0149812
771.418	0.0148618
771.496	0.0147701
771.575	0.0148269
771.653	0.0147876
771.731	0.0148509
771.809	0.0148106
771.887	0.0147587
771.965	0.0147661
772.043	0.0146181
772.121	0.0147543
772.200	0.0148167
772.278	0.0148083
772.356	0.0147511
772.434	0.0147523
772.512	0.0147710
772.590	0.0148821
772.668	0.0149032
772.746	0.0149273
772.825	0.0149508
772.903	0.0150353
772.981	0.0149736
773.059	0.0150201
773.137	0.0149021
773.215	0.0151396
773.293	0.0151735
773.371	0.0150222
773.450	0.0150414
773.528	0.0150494
773.606	0.0150821
773.684	0.0149789
773.762	0.0151000
773.840	0.0150075
773.918	0.0149566
773.996	0.0149633
774.075	0.0149459
774.153	0.0147655
774.231	0.0148661
774.309	0.0149657
774.387	0.0149799
774.465	0.0149691
774.543	0.0148795
774.621	0.0148870
774.700	0.0147119
774.778	0.0149018
774.856	0.0148280
774.934	0.0148125
775.012	0.0148724
775.090	0.0149054
775.168	0.0148828
775.246	0.0149975
775.325	0.0149042
775.403	0.0148780
775.481	0.0148518
775.559	0.0149189
775.637	0.0150492
775.715	0.0150113
775.793	0.0150641
775.871	0.0150908
775.950	0.0150085
776.028	0.0149834
776.106	0.0149792
776.184	0.0148457
776.262	0.0149551
776.340	0.0150011
776.418	0.0148833
776.496	0.0148302
776.575	0.0147838
776.653	0.0147718
776.731	0.0148116
776.809	0.0148656
776.887	0.0148479
776.965	0.0146247
777.043	0.0147911
777.121	0.0147988
777.200	0.0148209
777.278	0.0147715
777.356	0.0148258
777.434	0.0148874
777.512	0.0149216
777.590	0.0148650
777.668	0.0148849
777.746	0.0149300
777.825	0.0149881
777.903	0.0149829
777.981	0.0148951
778.059	0.0149598
778.137	0.0148178
778.215	0.0150129
778.293	0.0150377
778.371	0.0150330
778.450	0.0149574
778.528	0.0149574
778.606	0.0148841
778.684	0.0149467
778.762	0.0149217
778.840	0.0150111
778.918	0.0149052
778.996	0.0147517
779.075	0.0149171
779.153	0.0150574
779.231	0.0148798
779.309	0.0147977
779.387	0.0149184
779.465	0.0148811
779.543	0.0149165
779.621	0.0147160
779.700	0.0147321
779.778	0.0149932
779.856	0.0148533
779.934	0.0147884
780.012	0.0147115
780.090	0.0146790
780.168	0.0147635
780.246	0.0148546
780.325	0.0149388
780.403	0.0147471
780.481	0.0148806
780.559	0.0149308
780.637	0.0148783
780.715	0.0149119
780.793	0.0149666
780.871	0.0149570
780.950	0.0149335
781.028	0.0148650
781.106	0.0148833
781.184	0.0149472
781.262	0.0149747
781.340	0.0148681
781.418	0.0148947
781.496	0.0149163
781.575	0.0148624
781.653	0.0149278
781.731	0.0148294
781.809	0.0149043
781.887	0.0148071
781.965	0.0149781
782.043	0.0149831
782.121	0.0148322
782.200	0.0148293
782.278	0.0148547
782.356	0.0148622
782.434	0.0148882
782.512	0.0146955
782.590	0.0149359
782.668	0.0148643
782.746	0.0148658
782.825	0.0148621
782.903	0.0149470
782.981	0.0150063
783.059	0.0150311
783.137	0.0149834
783.215	0.0151177
783.293	0.0149308
783.371	0.0151088
783.450	0.0150073
783.528	0.0150621
783.606	0.0149487
783.684	0.0149905
783.762	0.0151156
783.840	0.0151027
783.918	0.0149743
783.996	0.0148190
784.075	0.0149972
784.153	0.0150668
784.231	0.0149473
784.309	0.0148380
784.387	0.0147969
784.465	0.0147923
784.543	0.0147102
784.621	0.0147832
784.700	0.0148267
784.778	0.0148553
784.856	0.0148217
784.934	0.0146841
785.012	0.0148750
785.090	0.0149438
785.168	0.0148924
785.246	0.0148087
785.325	0.0148942
785.403	0.0148830
785.481	0.0150613
785.559	0.0149834
785.637	0.0150732
785.715	0.0149961
785.793	0.0150691
785.871	0.0149551
785.950	0.0149424
786.028	0.0149176
786.106	0.0149368
786.184	0.0150119
786.262	0.0148587
786.340	0.0148985
786.418	0.0149522
786.496	0.0148560
786.575	0.0149811
786.653	0.0150027
786.731	0.0149276
786.809	0.0148455
786.887	0.0149914
786.965	0.0148123
787.043	0.0148386
787.121	0.0148898
787.200	0.0149078
787.278	0.0149596
787.356	0.0148784
787.434	0.0150753
787.512	0.0149911
787.590	0.0149063
787.668	0.0148895
787.746	0.0149506
787.825	0.0148474
787.903	0.0148804
787.981	0.0148580
788.059	0.0149385
788.137	0.0149210
788.215	0.0149476
788.293	0.0150658
788.371	0.0149388
788.450	0.0149255
788.528	0.0148986
788.606	0.0148883
788.684	0.0148536
788.762	0.0147922
788.840	0.0148965
788.918	0.0148553
788.996	0.0148001
789.075	0.0147049
789.153	0.0148055
789.231	0.0148879
789.309	0.0148735
789.387	0.0148221
789.465	0.0147942
789.543	0.0149394
789.621	0.0148409
789.700	0.0147249
789.778	0.0146861
789.856	0.0147607
789.934	0.0149487
790.012	0.0147638
790.090	0.0148277
790.168	0.0147756
790.246	0.0148014
790.325	0.0147952
790.403	0.0148511
790.481	0.0148630
790.559	0.0147868
790.637	0.0148473
790.715	0.0149162
790.793	0.0149200
790.871	0.0148481
790.950	0.0149919
791.028	0.0150562
791.106	0.0149538
791.184	0.0150194
791.262	0.0150549
791.340	0.0147989
791.418	0.0149081
791.496	0.0150685
791.575	0.0151540
791.653	0.0149452
791.731	0.0149662
791.809	0.0149766
791.887	0.0149217
791.965	0.0148631
792.043	0.0148867
792.121	0.0151066
792.200	0.0148660
792.278	0.0148716
792.356	0.0148149
792.434	0.0148224
792.512	0.0148524
792.590	0.0148161
792.668	0.0147807
792.746	0.0149822
792.825	0.0149024
792.903	0.0148486
792.981	0.0148086
793.059	0.0150655
793.137	0.0148595
793.215	0.0149098
793.293	0.0148826
793.371	0.0149303
793.450	0.0148465
793.528	0.0149300
793.606	0.0149561
793.684	0.0147886
793.762	0.0149738
793.840	0.0148738
793.918	0.0148818
793.996	0.0147913
794.075	0.0148473
794.153	0.0148831
794.231	0.0149760
794.309	0.0147906
794.387	0.0148106
794.465	0.0148293
794.543	0.0147426
794.621	0.0149447
794.700	0.0149599
794.778	0.0148504
794.856	0.0147871
794.934	0.0150062
795.012	0.0148599
795.090	0.0148835
795.168	0.0147540
795.246	0.0148969
795.325	0.0148707
795.403	0.0148100
795.481	0.0148732
795.559	0.0148349
795.637	0.0149413
795.715	0.0149572
795.793	0.0149769
795.871	0.0150083
795.950	0.0148713
796.028	0.0148132
796.106	0.0148972
796.184	0.0148170
796.262	0.0149570
796.340	0.0149586
796.418	0.0149081
796.496	0.0150513
796.575	0.0151090
796.653	0.0149879
796.731	0.0149314
796.809	0.0149498
796.887	0.0147994
796.965	0.0149525
797.043	0.0149191
797.121	0.0149226
797.200	0.0149315
797.278	0.0149623
797.356	0.0149586
797.434	0.0149560
797.512	0.0149854
797.590	0.0148886
797.668	0.0149322
797.746	0.0149255
797.825	0.0149152
797.903	0.0148993
797.981	0.0147938
798.059	0.0148501
798.137	0.0150042
798.215	0.0148386
798.293	0.0147919
798.371	0.0149738
798.450	0.0149699
798.528	0.0149870
798.606	0.0148883
798.684	0.0149071
798.762	0.0150204
798.840	0.0150052
798.918	0.0151767
798.996	0.0150796
799.075	0.0149570
799.153	0.0151263
799.231	0.0150915
799.309	0.0151157
799.387	0.0149609
799.465	0.0149044
799.543	0.0149445
799.621	0.0149311
799.700	0.0150358
799.778	0.0148734
799.856	0.0149164
799.934	0.0149495
800.012	0.0150014
800.090	0.0149148
800.168	0.0148742
800.246	0.0147662
800.325	0.0148523
800.403	0.0148695
800.481	0.0148828
800.559	0.0148757
800.637	0.0147443
800.715	0.0149243
800.793	0.0148168
800.871	0.0147121
800.950	0.0146438
801.028	0.0147566
801.106	0.0148022
801.184	0.0148422
801.262	0.0148726
801.340	0.0148502
801.418	0.0147991
801.496	0.0147959
801.575	0.0149068
801.653	0.0151037
801.731	0.0150365
801.809	0.0148248
801.887	0.0150290
801.965	0.0150925
802.043	0.0149400
802.121	0.0150757
802.200	0.0150362
802.278	0.0150047
802.356	0.0149247
802.434	0.0151248
802.512	0.0150172
802.590	0.0148606
802.668	0.0149555
802.746	0.0148518
802.825	0.0149493
802.903	0.0148829
802.981	0.0147949
803.059	0.0149559
803.137	0.0150433
803.215	0.0149360
803.293	0.0147763
803.371	0.0148415
803.450	0.0148366
803.528	0.0148969
803.606	0.0150327
803.684	0.0147485
803.762	0.0147857
803.840	0.0149825
803.918	0.0150249
803.996	0.0149002
804.075	0.0148613
804.153	0.0149712
804.231	0.0149344
804.309	0.0150394
804.387	0.0148559
804.465	0.0149991
804.543	0.0150054
804.621	0.0151726
804.700	0.0153002
804.778	0.0151684
804.856	0.0150859
804.934	0.0149242
805.012	0.0149140
805.090	0.0149247
805.168	0.0150169
805.246	0.0149377
805.325	0.0149534
805.403	0.0148358
805.481	0.0147469
805.559	0.0148883
805.637	0.0148373
805.715	0.0147530
805.793	0.0148090
805.871	0.0148727
805.950	0.0147300
806.028	0.0148050
806.106	0.0147943
806.184	0.0147491
806.262	0.0147517
806.340	0.0148203
806.418	0.0147215
806.496	0.0147736
806.575	0.0150181
806.653	0.0148595
806.731	0.0148782
806.809	0.0149738
806.887	0.0151207
806.965	0.0150452
807.043	0.0150223
807.121	0.0150388
807.200	0.0152385
807.278	0.0151395
807.356	0.0152347
807.434	0.0151408
807.512	0.0150525
807.590	0.0150025
807.668	0.0150002
807.746	0.0150634
807.825	0.0152200
807.903	0.0149571
807.981	0.0148734
808.059	0.0149844
808.137	0.0148631
808.215	0.0149545
808.293	0.0149423
808.371	0.0148447
808.450	0.0149057
808.528	0.0148945
808.606	0.0148014
808.684	0.0148534
808.762	0.0148706
808.840	0.0148648
808.918	0.0148879
808.996	0.0149061
809.075	0.0147433
809.153	0.0147916
809.231	0.0147767
809.309	0.0147982
809.387	0.0148851
809.465	0.0148926
809.543	0.0149677
809.621	0.0149275
809.700	0.0149157
809.778	0.0149362
809.856	0.0150115
809.934	0.0149696
810.012	0.0151585
810.090	0.0151213
810.168	0.0150827
810.246	0.0151354
810.325	0.0150604
810.403	0.0151212
810.481	0.0150973
810.559	0.0150861
810.637	0.0150026
810.715	0.0150237
810.793	0.0149673
810.871	0.0147871
810.950	0.0150993
811.028	0.0147679
811.106	0.0149483
811.184	0.0149335
811.262	0.0148563
811.340	0.0149743
811.418	0.0148218
811.496	0.0149104
811.575	0.0148837
811.653	0.0149058
811.731	0.0148260
811.809	0.0150189
811.887	0.0149577
811.965	0.0148699
812.043	0.0149590
812.121	0.0151087
812.200	0.0149896
812.278	0.0149835
812.356	0.0149461
812.434	0.0149937
812.512	0.0150086
812.590	0.0150739
812.668	0.0151969
812.746	0.0149165
812.825	0.0150781
812.903	0.0149577
812.981	0.0150678
813.059	0.0150790
813.137	0.0149208
813.215	0.0149609
813.293	0.0148524
813.371	0.0149831
813.450	0.0148759
813.528	0.0148996
813.606	0.0146693
813.684	0.0146866
813.762	0.0148597
813.840	0.0148948
813.918	0.0148598
813.996	0.0149015
814.075	0.0148917
814.153	0.0148824
814.231	0.0148941
814.309	0.0149565
814.387	0.0148971
814.465	0.0149225
814.543	0.0149174
814.621	0.0150323
814.700	0.0149169
814.778	0.0151620
814.856	0.0150508
814.934	0.0150699
815.012	0.0150799
815.090	0.0150179
815.168	0.0151857
815.246	0.0149850
815.325	0.0149368
815.403	0.0148698
815.481	0.0149848
815.559	0.0150672
815.637	0.0149958
815.715	0.0149537
815.793	0.0148325
815.871	0.0149631
815.950	0.0149040
816.028	0.0150377
816.106	0.0148040
816.184	0.0148550
816.262	0.0149294
816.340	0.0148544
816.418	0.0148698
816.496	0.0149084
816.575	0.0148920
816.653	0.0149250
816.731	0.0148836
816.809	0.0149410
816.887	0.0149307
816.965	0.0149642
817.043	0.0149860
817.121	0.0149648
817.200	0.0149614
817.278	0.0148777
817.356	0.0148391
817.434	0.0151017
817.512	0.0149095
817.590	0.0150212
817.668	0.0150383
817.746	0.0150729
817.825	0.0150163
817.903	0.0148875
817.981	0.0149329
818.059	0.0149133
818.137	0.0150573
818.215	0.0150627
818.293	0.0149092
818.371	0.0150143
818.450	0.0150603
818.528	0.0150413
818.606	0.0150494
818.684	0.0148932
818.762	0.0148962
818.840	0.0149667
818.918	0.0149572
818.996	0.0150246
819.075	0.0149146
819.153	0.0148372
819.231	0.0150085
819.309	0.0149304
819.387	0.0148221
819.465	0.0148904
819.543	0.0148840
819.621	0.0148819
819.700	0.0147081
819.778	0.0147838
819.856	0.0148199
819.934	0.0149319
820.012	0.0148399
820.090	0.0149226
820.168	0.0148215
820.246	0.0149139
820.325	0.0149426
820.403	0.0148405
820.481	0.0149001
820.559	0.0149660
820.637	0.0149157
820.715	0.0150462
820.793	0.0149704
820.871	0.0149061
820.950	0.0149722
821.028	0.0149284
821.106	0.0149699
821.184	0.0149315
821.262	0.0150109
821.340	0.0149625
821.418	0.0149478
821.496	0.0150278
821.575	0.0150745
821.653	0.0149626
821.731	0.0150220
821.809	0.0149465
821.887	0.0150014
821.965	0.0149675
822.043	0.0149460
822.121	0.0149860
822.200	0.0149052
822.278	0.0148963
822.356	0.0150330
822.434	0.0149319
822.512	0.0149126
822.590	0.0148848
822.668	0.0150312
822.746	0.0148099
822.825	0.0149185
822.903	0.0150215
822.981	0.0149755
823.059	0.0147976
823.137	0.0149663
823.215	0.0149991
823.293	0.0147574
823.371	0.0148552
823.450	0.0148846
823.528	0.0149944
823.606	0.0148898
823.684	0.0148949
823.762	0.0150058
823.840	0.0148335
823.918	0.0149313
823.996	0.0149390
824.075	0.0148647
824.153	0.0149890
824.231	0.0149139
824.309	0.0149784
824.387	0.0150424
824.465	0.0149722
824.543	0.0149366
824.621	0.0150199
824.700	0.0151015
824.778	0.0150143
824.856	0.0148390
824.934	0.0149459
825.012	0.0149120
825.090	0.0150748
825.168	0.0149893
825.246	0.0149928
825.325	0.0148622
825.403	0.0151205
825.481	0.0150843
825.559	0.0150243
825.637	0.0150762
825.715	0.0150574
825.793	0.0149390
825.871	0.0147777
825.950	0.0149239
826.028	0.0149472
826.106	0.0149614
826.184	0.0149225
826.262	0.0149246
826.340	0.0149895
826.418	0.0148743
826.496	0.0149707
826.575	0.0148161
826.653	0.0150775
826.731	0.0148969
826.809	0.0149073
826.887	0.0148720
826.965	0.0149170
827.043	0.0148421
827.121	0.0148550
827.200	0.0149861
827.278	0.0151392
827.356	0.0148537
827.434	0.0150120
827.512	0.0150148
827.590	0.0150171
827.668	0.0149387
827.746	0.0149398
827.825	0.0149762
827.903	0.0151434
827.981	0.0150748
828.059	0.0151667
828.137	0.0149429
828.215	0.0149943
828.293	0.0150575
828.371	0.0149632
828.450	0.0151604
828.528	0.0151514
828.606	0.0149224
828.684	0.0148439
828.762	0.0148217
828.840	0.0148820
828.918	0.0150093
828.996	0.0150601
829.075	0.0150345
829.153	0.0150321
829.231	0.0148283
829.309	0.0149885
829.387	0.0151373
829.465	0.0149720
829.543	0.0147747
829.621	0.0150215
829.700	0.0150114
829.778	0.0149863
829.856	0.0149224
829.934	0.0150419
830.012	0.0149316
830.090	0.0147541
830.168	0.0148913
830.246	0.0150185
830.325	0.0150230
830.403	0.0149471
830.481	0.0149336
830.559	0.0149611
830.637	0.0149673
830.715	0.0148898
830.793	0.0149251
830.871	0.0151009
830.950	0.0149094
831.028	0.0148174
831.106	0.0150739
831.184	0.0148714
831.262	0.0149857
831.340	0.0149763
831.418	0.0150875
831.496	0.0149200
831.575	0.0149607
831.653	0.0150063
831.731	0.0150070
831.809	0.0147746
831.887	0.0150011
831.965	0.0149139
832.043	0.0149303
832.121	0.0149274
832.200	0.0149447
832.278	0.0149046
832.356	0.0148203
832.434	0.0149918
832.512	0.0149019
832.590	0.0148849
832.668	0.0149517
832.746	0.0149402
832.825	0.0149670
832.903	0.0148079
832.981	0.0148683
833.059	0.0147774
833.137	0.0150401
833.215	0.0149229
833.293	0.0150617
833.371	0.0149899
833.450	0.0149067
833.528	0.0149882
833.606	0.0150583
833.684	0.0152488
833.762	0.0151613
833.840	0.0149406
833.918	0.0149757
833.996	0.0149075
834.075	0.0149844
834.153	0.0148299
834.231	0.0149658
834.309	0.0149253
834.387	0.0149571
834.465	0.0148182
834.543	0.0148124
834.621	0.0147299
834.700	0.0149546
834.778	0.0148383
834.856	0.0148776
834.934	0.0147595
835.012	0.0147768
835.090	0.0149850
835.168	0.0148960
835.246	0.0149161
835.325	0.0149734
835.403	0.0150085
835.481	0.0149692
835.559	0.0150048
835.637	0.0149141
835.715	0.0149675
835.793	0.0150104
835.871	0.0151487
835.950	0.0149409
836.028	0.0149705
836.106	0.0149867
836.184	0.0149899
836.262	0.0149839
836.340	0.0149188
836.418	0.0151093
836.496	0.0151028
836.575	0.0149705
836.653	0.0150283
836.731	0.0150502
836.809	0.0150896
836.887	0.0150127
836.965	0.0149638
837.043	0.0148999
837.121	0.0151711
837.200	0.0148331
837.278	0.0149146
837.356	0.0149670
837.434	0.0149519
837.512	0.0147572
837.590	0.0151091
837.668	0.0149431
837.746	0.0148472
837.825	0.0150341
837.903	0.0150055
837.981	0.0149616
838.059	0.0150654
838.137	0.0149903
838.215	0.0150111
838.293	0.0149411
838.371	0.0149603
838.450	0.0150125
838.528	0.0150745
838.606	0.0148355
838.684	0.0149947
838.762	0.0148943
838.840	0.0149117
838.918	0.0149552
838.996	0.0150311
839.075	0.0149118
839.153	0.0148445
839.231	0.0151924
839.309	0.0150243
839.387	0.0148942
839.465	0.0150426
839.543	0.0149794
839.621	0.0150429
839.700	0.0150929
839.778	0.0150018
839.856	0.0149278
839.934	0.0149821
840.012	0.0150072
840.090	0.0150076
840.168	0.0149680
840.246	0.0149331
840.325	0.0149046
840.403	0.0148782
840.481	0.0149360
840.559	0.0147820
840.637	0.0148119
840.715	0.0148939
840.793	0.0148872
840.871	0.0148692
840.950	0.0149781
841.028	0.0149672
841.106	0.0150417
841.184	0.0149750
841.262	0.0149911
841.340	0.0149508
841.418	0.0149403
841.496	0.0149451
841.575	0.0149173
841.653	0.0148501
841.731	0.0149971
841.809	0.0150537
841.887	0.0148444
841.965	0.0149992
842.043	0.0150449
842.121	0.0149710
842.200	0.0149524
842.278	0.0148450
842.356	0.0150604
842.434	0.0149688
842.512	0.0148335
842.590	0.0148853
842.668	0.0148329
842.746	0.0148433
842.825	0.0150159
842.903	0.0149164
842.981	0.0149100
843.059	0.0149245
843.137	0.0147109
843.215	0.0148800
843.293	0.0148902
843.371	0.0149087
843.450	0.0149162
843.528	0.0149361
843.606	0.0150156
843.684	0.0150122
843.762	0.0148401
843.840	0.0148608
843.918	0.0149668
843.996	0.0149439
844.075	0.0149435
844.153	0.0150703
844.231	0.0150731
844.309	0.0149921
844.387	0.0149207
844.465	0.0148804
844.543	0.0149994
844.621	0.0149188
844.700	0.0148881
844.778	0.0149597
844.856	0.0148233
844.934	0.0148748
845.012	0.0149994
845.090	0.0148823
845.168	0.0147697
845.246	0.0149588
845.325	0.0148769
845.403	0.0147190
845.481	0.0150166
845.559	0.0149804
845.637	0.0148531
845.715	0.0149569
845.793	0.0149058
845.871	0.0149049
845.950	0.0148715
846.028	0.0148295
846.106	0.0147665
846.184	0.0150406
846.262	0.0149027
846.340	0.0149830
846.418	0.0150400
846.496	0.0149084
846.575	0.0150600
846.653	0.0150037
846.731	0.0150819
846.809	0.0150270
846.887	0.0150275
846.965	0.0149972
847.043	0.0149892
847.121	0.0150430
847.200	0.0150248
847.278	0.0150861
847.356	0.0149374
847.434	0.0150076
847.512	0.0148539
847.590	0.0149033
847.668	0.0149915
847.746	0.0149242
847.825	0.0148316
847.903	0.0147416
847.981	0.0148456
848.059	0.0148717
848.137	0.0147726
848.215	0.0148928
848.293	0.0148447
848.371	0.0149854
848.450	0.0149339
848.528	0.0148799
848.606	0.0149107
848.684	0.0150804
848.762	0.0150005
848.840	0.0148206
848.918	0.0150652
848.996	0.0150177
849.075	0.0151256
849.153	0.0150415
849.231	0.0151038
849.309	0.0150290
849.387	0.0150601
849.465	0.0151027
849.543	0.0150777
849.621	0.0149852
849.700	0.0150765
849.778	0.0150288
849.856	0.0148965
849.934	0.0150044
850.012	0.0148969
850.090	0.0148797
850.168	0.0148474
850.246	0.0148036
850.325	0.0149249
850.403	0.0149192
850.481	0.0149034
850.559	0.0150279
850.637	0.0149277
850.715	0.0149412
850.793	0.0149064
850.871	0.0149428
850.950	0.0149794
851.028	0.0148930
851.106	0.0148224
851.184	0.0149016
851.262	0.0150333
851.340	0.0149352
851.418	0.0148933
851.496	0.0149682
851.575	0.0149637
851.653	0.0149752
851.731	0.0150313
851.809	0.0149872
851.887	0.0149992
851.965	0.0150577
852.043	0.0150172
852.121	0.0151401
852.200	0.0150262
852.278	0.0149621
852.356	0.0149695
852.434	0.0149561
852.512	0.0149336
852.590	0.0148623
852.668	0.0150217
852.746	0.0148962
852.825	0.0148884
852.903	0.0149172
852.981	0.0148391
853.059	0.0149604
853.137	0.0149217
853.215	0.0149348
853.293	0.0148698
853.371	0.0149296
853.450	0.0150514
853.528	0.0150745
853.606	0.0150730
853.684	0.0150256
853.762	0.0150227
853.840	0.0151423
853.918	0.0149985
853.996	0.0149692
854.075	0.0149815
854.153	0.0149578
854.231	0.0149969
854.309	0.0149618
854.387	0.0149030
854.465	0.0149898
854.543	0.0149493
854.621	0.0149825
854.700	0.0150099
854.778	0.0149270
854.856	0.0150354
854.934	0.0150400
855.012	0.0149339
855.090	0.0149961
855.168	0.0150244
855.246	0.0149929
855.325	0.0149499
855.403	0.0149173
855.481	0.0149986
855.559	0.0150353
855.637	0.0149187
855.715	0.0149319
855.793	0.0148705
855.871	0.0149220
855.950	0.0149130
856.028	0.0150462
856.106	0.0149048
856.184	0.0149017
856.262	0.0149406
856.340	0.0150479
856.418	0.0149277
856.496	0.0148729
856.575	0.0150429
856.653	0.0148768
856.731	0.0149515
856.809	0.0148524
856.887	0.0150249
856.965	0.0148806
857.043	0.0148543
857.121	0.0150294
857.200	0.0148615
857.278	0.0148478
857.356	0.0149429
857.434	0.0149079
857.512	0.0148402
857.590	0.0148787
857.668	0.0149148
857.746	0.0149058
857.825	0.0147898
857.903	0.0148702
857.981	0.0149634
858.059	0.0148067
858.137	0.0150909
858.215	0.0150314
858.293	0.0148566
858.371	0.0149371
858.450	0.0149225
858.528	0.0148940
858.606	0.0149606
858.684	0.0148912
858.762	0.0149191
858.840	0.0149418
858.918	0.0150459
858.996	0.0150816
859.075	0.0150229
859.153	0.0150157
859.231	0.0149571
859.309	0.0149725
859.387	0.0148973
859.465	0.0149075
859.543	0.0148861
859.621	0.0147430
859.700	0.0149297
859.778	0.0150887
859.856	0.0149442
859.934	0.0150115
860.012	0.0149665
860.090	0.0150396
860.168	0.0149674
860.246	0.0150002
860.325	0.0147709
860.403	0.0148444
860.481	0.0149870
860.559	0.0148950
860.637	0.0150860
860.715	0.0149430
860.793	0.0147416
860.871	0.0147462
860.950	0.0149289
861.028	0.0149868
861.106	0.0148395
861.184	0.0149686
861.262	0.0149960
861.340	0.0149242
861.418	0.0148220
861.496	0.0148861
861.575	0.0150064
861.653	0.0149667
861.731	0.0149203
861.809	0.0149277
861.887	0.0148614
861.965	0.0149760
862.043	0.0148199
862.121	0.0149312
862.200	0.0149565
862.278	0.0148814
862.356	0.0149480
862.434	0.0149331
862.512	0.0149045
862.590	0.0149670
862.668	0.0150173
862.746	0.0149925
862.825	0.0149483
862.903	0.0149184
862.981	0.0148840
863.059	0.0149426
863.137	0.0149324
863.215	0.0150877
863.293	0.0150290
863.371	0.0150242
863.450	0.0149809
863.528	0.0149108
863.606	0.0150501
863.684	0.0149934
863.762	0.0149711
863.840	0.0149246
863.918	0.0149840
863.996	0.0149477
864.075	0.0148968
864.153	0.0148840
864.231	0.0149467
864.309	0.0147558
864.387	0.0147658
864.465	0.0147787
864.543	0.0148113
864.621	0.0147237
864.700	0.0148570
864.778	0.0148421
864.856	0.0147528
864.934	0.0146227
865.012	0.0149221
865.090	0.0148717
865.168	0.0149848
865.246	0.0147855
865.325	0.0149561
865.403	0.0148801
865.481	0.0148516
865.559	0.0148785
865.637	0.0149609
865.715	0.0149185
865.793	0.0149503
865.871	0.0150510
865.950	0.0150706
866.028	0.0150594
866.106	0.0150097
866.184	0.0149703
866.262	0.0150301
866.340	0.0150195
866.418	0.0150028
866.496	0.0149200
866.575	0.0148090
866.653	0.0148699
866.731	0.0149216
866.809	0.0148974
866.887	0.0148529
866.965	0.0149749
867.043	0.0148278
867.121	0.0149357
867.200	0.0148769
867.278	0.0147907
867.356	0.0147883
867.434	0.0147892
867.512	0.0149197
867.590	0.0149516
867.668	0.0149130
867.746	0.0149361
867.825	0.0150374
867.903	0.0148318
867.981	0.0149483
868.059	0.0149711
868.137	0.0149332
868.215	0.0149342
868.293	0.0149385
868.371	0.0149115
868.450	0.0149621
868.528	0.0150036
868.606	0.0148338
868.684	0.0150372
868.762	0.0150246
868.840	0.0149184
868.918	0.0150269
868.996	0.0147672
869.075	0.0149023
869.153	0.0147818
869.231	0.0148543
869.309	0.0148513
869.387	0.0148693
869.465	0.0148719
869.543	0.0147520
869.621	0.0149028
869.700	0.0148289
869.778	0.0148248
869.856	0.0148489
869.934	0.0148273
870.012	0.0148836
870.090	0.0149446
870.168	0.0148907
870.246	0.0150194
870.325	0.0149480
870.403	0.0150446
870.481	0.0149277
870.559	0.0148619
870.637	0.0148472
870.715	0.0150046
870.793	0.0150272
870.871	0.0150253
870.950	0.0149588
871.028	0.0149751
871.106	0.0148959
871.184	0.0150162
871.262	0.0150002
871.340	0.0150086
871.418	0.0150100
871.496	0.0148411
871.575	0.0149136
871.653	0.0148458
871.731	0.0149406
871.809	0.0150370
871.887	0.0150064
871.965	0.0149045
872.043	0.0149306
872.121	0.0149974
872.200	0.0149619
872.278	0.0148112
872.356	0.0149708
872.434	0.0149402
872.512	0.0149302
872.590	0.0149133
872.668	0.0148695
872.746	0.0149592
872.825	0.0149292
872.903	0.0148963
872.981	0.0148591
873.059	0.0148653
873.137	0.0148940
873.215	0.0148913
873.293	0.0149146
873.371	0.0149590
873.450	0.0149277
873.528	0.0149326
873.606	0.0149075
873.684	0.0148772
873.762	0.0149802
873.840	0.0150057
873.918	0.0149500
873.996	0.0150667
874.075	0.0150248
874.153	0.0150838
874.231	0.0150394
874.309	0.0150024
874.387	0.0149062
874.465	0.0150186
874.543	0.0149796
874.621	0.0148881
874.700	0.0150156
874.778	0.0149188
874.856	0.0148730
874.934	0.0148270
875.012	0.0146704
875.090	0.0149697
875.168	0.0148914
875.246	0.0148833
875.325	0.0148293
875.403	0.0148446
875.481	0.0149251
875.559	0.0148302
875.637	0.0148306
875.715	0.0147046
875.793	0.0149657
875.871	0.0149509
875.950	0.0148645
876.028	0.0149062
876.106	0.0149882
876.184	0.0149324
876.262	0.0149095
876.340	0.0149929
876.418	0.0149381
876.496	0.0149540
876.575	0.0149214
876.653	0.0149355
876.731	0.0149767
876.809	0.0149146
876.887	0.0149499
876.965	0.0149428
877.043	0.0150539
877.121	0.0150040
877.200	0.0149707
877.278	0.0147158
877.356	0.0148495
877.434	0.0151324
877.512	0.0150048
877.590	0.0149600
877.668	0.0148890
877.746	0.0150039
877.825	0.0150185
877.903	0.0148129
877.981	0.0148965
878.059	0.0150769
878.137	0.0150124
878.215	0.0149458
878.293	0.0151644
878.371	0.0148804
878.450	0.0149495
878.528	0.0147552
878.606	0.0149249
878.684	0.0150191
878.762	0.0150291
878.840	0.0149142
878.918	0.0149335
878.996	0.0149386
879.075	0.0149474
879.153	0.0149670
879.231	0.0149445
879.309	0.0149966
879.387	0.0150056
879.465	0.0149345
879.543	0.0148930
879.621	0.0150069
879.700	0.0149295
879.778	0.0148935
879.856	0.0149599
879.934	0.0150282
880.012	0.0150219
880.090	0.0149428
880.168	0.0148471
880.246	0.0149786
880.325	0.0150162
880.403	0.0150275
880.481	0.0149412
880.559	0.0150114
880.637	0.0150674
880.715	0.0150081
880.793	0.0148640
880.871	0.0149082
880.950	0.0149121
881.028	0.0147360
881.106	0.0148919
881.184	0.0148923
881.262	0.0150133
881.340	0.0148854
881.418	0.0148586
881.496	0.0149176
881.575	0.0149263
881.653	0.0148345
881.731	0.0147738
881.809	0.0149273
881.887	0.0150208
881.965	0.0149188
882.043	0.0149080
882.121	0.0149892
882.200	0.0148105
882.278	0.0148361
882.356	0.0150585
882.434	0.0148379
882.512	0.0149126
882.590	0.0149643
882.668	0.0149408
882.746	0.0149911
882.825	0.0150230
882.903	0.0150248
882.981	0.0148613
883.059	0.0149662
883.137	0.0150567
883.215	0.0149199
883.293	0.0148456
883.371	0.0149268
883.450	0.0148246
883.528	0.0148849
883.606	0.0147929
883.684	0.0148226
883.762	0.0148191
883.840	0.0149627
883.918	0.0148524
883.996	0.0148468
884.075	0.0148556
884.153	0.0149831
884.231	0.0149299
884.309	0.0149587
884.387	0.0149912
884.465	0.0150063
884.543	0.0148672
884.621	0.0149981
884.700	0.0151136
884.778	0.0149625
884.856	0.0151884
884.934	0.0149648
885.012	0.0150407
885.090	0.0149868
885.168	0.0150880
885.246	0.0150465
885.325	0.0148980
885.403	0.0149136
885.481	0.0148717
885.559	0.0149226
885.637	0.0148824
885.715	0.0148142
885.793	0.0149329
885.871	0.0148222
885.950	0.0146980
886.028	0.0147727
886.106	0.0148776
886.184	0.0147433
886.262	0.0148116
886.340	0.0148843
886.418	0.0148916
886.496	0.0148259
886.575	0.0148067
886.653	0.0148026
886.731	0.0149985
886.809	0.0149691
886.887	0.0147493
886.965	0.0148921
887.043	0.0148588
887.121	0.0148239
887.200	0.0149250
887.278	0.0149361
887.356	0.0148759
887.434	0.0149528
887.512	0.0150116
887.590	0.0148737
887.668	0.0148775
887.746	0.0149124
887.825	0.0150081
887.903	0.0148960
887.981	0.0149306
888.059	0.0148985
888.137	0.0148621
888.215	0.0149326
888.293	0.0149519
888.371	0.0149152
888.450	0.0149007
888.528	0.0150238
888.606	0.0148455
888.684	0.0148664
888.762	0.0149288
888.840	0.0148829
888.918	0.0148654
888.996	0.0147758
889.075	0.0148359
889.153	0.0149120
889.231	0.0148897
889.309	0.0149092
889.387	0.0149475
889.465	0.0149483
889.543	0.0148232
889.621	0.0149403
889.700	0.0150587
889.778	0.0149673
889.856	0.0149881
889.934	0.0148302
890.012	0.0148846
890.090	0.0150118
890.168	0.0149442
890.246	0.0149778
890.325	0.0150864
890.403	0.0149706
890.481	0.0149654
890.559	0.0149274
890.637	0.0148777
890.715	0.0148804
890.793	0.0149399
890.871	0.0149836
890.950	0.0148698
891.028	0.0149098
891.106	0.0149459
891.184	0.0148481
891.262	0.0148821
891.340	0.0148866
891.418	0.0149605
891.496	0.0148903
891.575	0.0149754
891.653	0.0149481
891.731	0.0148922
891.809	0.0149666
891.887	0.0148759
891.965	0.0149895
892.043	0.0150781
892.121	0.0148029
892.200	0.0150291
892.278	0.0150438
892.356	0.0149651
892.434	0.0151042
892.512	0.0151401
892.590	0.0149670
892.668	0.0148976
892.746	0.0149651
892.825	0.0150027
892.903	0.0149765
892.981	0.0152287
893.059	0.0149523
893.137	0.0148839
893.215	0.0150068
893.293	0.0148348
893.371	0.0148059
893.450	0.0149316
893.528	0.0148994
893.606	0.0148301
893.684	0.0149617
893.762	0.0148806
893.840	0.0149126
893.918	0.0148254
893.996	0.0148505
894.075	0.0148859
894.153	0.0148911
894.231	0.0149195
894.309	0.0150420
894.387	0.0150449
894.465	0.0150124
894.543	0.0150957
894.621	0.0151965
894.700	0.0149583
894.778	0.0149943
894.856	0.0150643
894.934	0.0149088
895.012	0.0151052
895.090	0.0150776
895.168	0.0148771
895.246	0.0149961
895.325	0.0150330
895.403	0.0150715
895.481	0.0150613
895.559	0.0149604
895.637	0.0150034
895.715	0.0149911
895.793	0.0151304
895.871	0.0150193
895.950	0.0149900
896.028	0.0148969
896.106	0.0149350
896.184	0.0149648
896.262	0.0148692
896.340	0.0148371
896.418	0.0147517
896.496	0.0147997
896.575	0.0148654
896.653	0.0148643
896.731	0.0148970
896.809	0.0151170
896.887	0.0150629
896.965	0.0149956
897.043	0.0150260
897.121	0.0150631
897.200	0.0149348
897.278	0.0149770
897.356	0.0150012
897.434	0.0150112
897.512	0.0148888
897.590	0.0149449
897.668	0.0149291
897.746	0.0149290
897.825	0.0148874
897.903	0.0149012
897.981	0.0148824
898.059	0.0149615
898.137	0.0149727
898.215	0.0149809
898.293	0.0149953
898.371	0.0150437
898.450	0.0149789
898.528	0.0148254
898.606	0.0149303
898.684	0.0149798
898.762	0.0147375
898.840	0.0148137
898.918	0.0148186
898.996	0.0147724
899.075	0.0148085
899.153	0.0147971
899.231	0.0146426
899.309	0.0147447
899.387	0.0149193
899.465	0.0148656
899.543	0.0149677
899.621	0.0149474
899.700	0.0150264
899.778	0.0150086
899.856	0.0150566
899.934	0.0149847
900.012	0.0150378
900.090	0.0149124
900.168	0.0149651
900.246	0.0150504
900.325	0.0150475
900.403	0.0149942
900.481	0.0150341
900.559	0.0149503
900.637	0.0148827
900.715	0.0149635
900.793	0.0149295
900.871	0.0149376
900.950	0.0149220
901.028	0.0149459
901.106	0.0148428
901.184	0.0148746
901.262	0.0147965
901.340	0.0149524
901.418	0.0148334
901.496	0.0147915
901.575	0.0148663
901.653	0.0148289
901.731	0.0147836
901.809	0.0148343
901.887	0.0148609
901.965	0.0148295
902.043	0.0149899
902.121	0.0150690
902.200	0.0150035
902.278	0.0150666
902.356	0.0150523
902.434	0.0151892
902.512	0.0151870
902.590	0.0152869
902.668	0.0150070
902.746	0.0150713
902.825	0.0149994
902.903	0.0149710
902.981	0.0148408
903.059	0.0149029
903.137	0.0150834
903.215	0.0149288
903.293	0.0147962
903.371	0.0147845
903.450	0.0147235
903.528	0.0148469
903.606	0.0147206
903.684	0.0148439
903.762	0.0148090
903.840	0.0148607
903.918	0.0148701
903.996	0.0148537
904.075	0.0148632
904.153	0.0148741
904.231	0.0149516
904.309	0.0150658
904.387	0.0150527
904.465	0.0149458
904.543	0.0148802
904.621	0.0149297
904.700	0.0150629
904.778	0.0150037
904.856	0.0149429
904.934	0.0148297
905.012	0.0149892
905.090	0.0150912
905.168	0.0151589
905.246	0.0150692
905.325	0.0150650
905.403	0.0149763
905.481	0.0150245
905.559	0.0149936
905.637	0.0149530
905.715	0.0151601
905.793	0.0151807
905.871	0.0149521
905.950	0.0148563
906.028	0.0150246
906.106	0.0148364
906.184	0.0148524
906.262	0.0149908
906.340	0.0148106
906.418	0.0149970
906.496	0.0148691
906.575	0.0150237
906.653	0.0149430
906.731	0.0150130
906.809	0.0149707
906.887	0.0150200
906.965	0.0150801
907.043	0.0149110
907.121	0.0150680
907.200	0.0148031
907.278	0.0149382
907.356	0.0149216
907.434	0.0149448
907.512	0.0148724
907.590	0.0148132
907.668	0.0148672
907.746	0.0149329
907.825	0.0149141
907.903	0.0149750
907.981	0.0151385
908.059	0.0148286
908.137	0.0148747
908.215	0.0149770
908.293	0.0150980
908.371	0.0150442
908.450	0.0150147
908.528	0.0150362
908.606	0.0150798
908.684	0.0150224
908.762	0.0150607
908.840	0.0149079
908.918	0.0149398
908.996	0.0148425
909.075	0.0147725
909.153	0.0149013
909.231	0.0148544
909.309	0.0148777
909.387	0.0149175
909.465	0.0148403
909.543	0.0149311
909.621	0.0149224
909.700	0.0148749
909.778	0.0149630
909.856	0.0149889
909.934	0.0149413
910.012	0.0149138
910.090	0.0150538
910.168	0.0150561
910.246	0.0149789
910.325	0.0149393
910.403	0.0149956
910.481	0.0149666
910.559	0.0148155
910.637	0.0148656
910.715	0.0149219
910.793	0.0148733
910.871	0.0149614
910.950	0.0149844
911.028	0.0149827
911.106	0.0149646
911.184	0.0150259
911.262	0.0151712
911.340	0.0149863
911.418	0.0150328
911.496	0.0149510
911.575	0.0147360
911.653	0.0149545
911.731	0.0149238
911.809	0.0148065
911.887	0.0148711
911.965	0.0148933
912.043	0.0148683
912.121	0.0148631
912.200	0.0149419
912.278	0.0148905
912.356	0.0149387
912.434	0.0149371
912.512	0.0149395
912.590	0.0150580
912.668	0.0148658
912.746	0.0149737
912.825	0.0149841
912.903	0.0149638
912.981	0.0149300
913.059	0.0149780
913.137	0.0148904
913.215	0.0149437
913.293	0.0149630
913.371	0.0149827
913.450	0.0149467
913.528	0.0148837
913.606	0.0149468
913.684	0.0148967
913.762	0.0150008
913.840	0.0150886
913.918	0.0150379
913.996	0.0148784
914.075	0.0149688
914.153	0.0149169
914.231	0.0149256
914.309	0.0150435
914.387	0.0150312
914.465	0.0148506
914.543	0.0147780
914.621	0.0149020
914.700	0.0149343
914.778	0.0148191
914.856	0.0148201
914.934	0.0148210
915.012	0.0149198
915.090	0.0148196
915.168	0.0148355
915.246	0.0148643
915.325	0.0148046
915.403	0.0149618
915.481	0.0149857
915.559	0.0150325
915.637	0.0150517
915.715	0.0149613
915.793	0.0150497
915.871	0.0150636
915.950	0.0150243
916.028	0.0150829
916.106	0.0150842
916.184	0.0149667
916.262	0.0150440
916.340	0.0151378
916.418	0.0150330
916.496	0.0149764
916.575	0.0148402
916.653	0.0149001
916.731	0.0147662
916.809	0.0147986
916.887	0.0148405
916.965	0.0148592
917.043	0.0147650
917.121	0.0148862
917.200	0.0148714
917.278	0.0148360
917.356	0.0148692
917.434	0.0148702
917.512	0.0150763
917.590	0.0148517
917.668	0.0148740
917.746	0.0148290
917.825	0.0149059
917.903	0.0148139
917.981	0.0148204
918.059	0.0148988
918.137	0.0148439
918.215	0.0148543
918.293	0.0149144
918.371	0.0150589
918.450	0.0151007
918.528	0.0150380
918.606	0.0151276
918.684	0.0151886
918.762	0.0150529
918.840	0.0149435
918.918	0.0150513
918.996	0.0150371
919.075	0.0152320
919.153	0.0150023
919.231	0.0148817
919.309	0.0150523
919.387	0.0149801
919.465	0.0150841
919.543	0.0149182
919.621	0.0148601
919.700	0.0149135
919.778	0.0149137
919.856	0.0148261
919.934	0.0148174
920.012	0.0149501
920.090	0.0147805
920.168	0.0148677
920.246	0.0149037
920.325	0.0150636
920.403	0.0150464
920.481	0.0148656
920.559	0.0150306
920.637	0.0150266
920.715	0.0150330
920.793	0.0150040
920.871	0.0149126
920.950	0.0149147
921.028	0.0148759
921.106	0.0148878
921.184	0.0148683
921.262	0.0149194
921.340	0.0149775
921.418	0.0147845
921.496	0.0148907
921.575	0.0149814
921.653	0.0150965
921.731	0.0148763
921.809	0.0147939
921.887	0.0148891
921.965	0.0150992
922.043	0.0149165
922.121	0.0149968
922.200	0.0148114
922.278	0.0149452
922.356	0.0149701
922.434	0.0149503
922.512	0.0149854
922.590	0.0148395
922.668	0.0150725
922.746	0.0150518
922.825	0.0149422
922.903	0.0147308
922.981	0.0149611
923.059	0.0149978
923.137	0.0149703
923.215	0.0149384
923.293	0.0150011
923.371	0.0148898
923.450	0.0148962
923.528	0.0148856
923.606	0.0150099
923.684	0.0150205
923.762	0.0148107
923.840	0.0150203
923.918	0.0149242
923.996	0.0148667
924.075	0.0149730
924.153	0.0149944
924.231	0.0150221
924.309	0.0149490
924.387	0.0148771
924.465	0.0149934
924.543	0.0147835
924.621	0.0149178
924.700	0.0150166
924.778	0.0149014
924.856	0.0148224
924.934	0.0148860
925.012	0.0150148
925.090	0.0149688
925.168	0.0148135
925.246	0.0149734
925.325	0.0149737
925.403	0.0148715
925.481	0.0149643
925.559	0.0148941
925.637	0.0149991
925.715	0.0148186
925.793	0.0149506
925.871	0.0150031
925.950	0.0149466
926.028	0.0149826
926.106	0.0148637
926.184	0.0149978
926.262	0.0151260
926.340	0.0151003
926.418	0.0151197
926.496	0.0149057
926.575	0.0150461
926.653	0.0150065
926.731	0.0149345
926.809	0.0150324
926.887	0.0150683
926.965	0.0148782
927.043	0.0147710
927.121	0.0148492
927.200	0.0149640
927.278	0.0149645
927.356	0.0149992
927.434	0.0149174
927.512	0.0149116
927.590	0.0149258
927.668	0.0148692
927.746	0.0148634
927.825	0.0148961
927.903	0.0149669
927.981	0.0149966
928.059	0.0149085
928.137	0.0148669
928.215	0.0149400
928.293	0.0149147
928.371	0.0148564
928.450	0.0148336
928.528	0.0148224
928.606	0.0149702
928.684	0.0149741
928.762	0.0149717
928.840	0.0147832
928.918	0.0149428
928.996	0.0147627
929.075	0.0148668
929.153	0.0149327
929.231	0.0148710
929.309	0.0148196
929.387	0.0149567
929.465	0.0149844
929.543	0.0149184
929.621	0.0150017
929.700	0.0148772
929.778	0.0149045
929.856	0.0150338
929.934	0.0149328
930.012	0.0149200
930.090	0.0148866
930.168	0.0149864
930.246	0.0149574
930.325	0.0148776
930.403	0.0148736
930.481	0.0148392
930.559	0.0149044
930.637	0.0150178
930.715	0.0149274
930.793	0.0147973
930.871	0.0148708
930.950	0.0148573
931.028	0.0148703
931.106	0.0148327
931.184	0.0148470
931.262	0.0148555
931.340	0.0148682
931.418	0.0149500
931.496	0.0148956
931.575	0.0148951
931.653	0.0150300
931.731	0.0150080
931.809	0.0147842
931.887	0.0148026
931.965	0.0149812
932.043	0.0150678
932.121	0.0150115
932.200	0.0149100
932.278	0.0149155
932.356	0.0149694
932.434	0.0150268
932.512	0.0151411
932.590	0.0148653
932.668	0.0149451
932.746	0.0150372
932.825	0.0150210
932.903	0.0150193
932.981	0.0148749
933.059	0.0148579
933.137	0.0146841
933.215	0.0149062
933.293	0.0148451
933.371	0.0147966
933.450	0.0148935
933.528	0.0148356
933.606	0.0149226
933.684	0.0149709
933.762	0.0148412
933.840	0.0148759
933.918	0.0149195
933.996	0.0149374
934.075	0.0148506
934.153	0.0149223
934.231	0.0149635
934.309	0.0150229
934.387	0.0148868
934.465	0.0149555
934.543	0.0149665
934.621	0.0149773
934.700	0.0149454
934.778	0.0149648
934.856	0.0149886
934.934	0.0147935
935.012	0.0149658
935.090	0.0148752
935.168	0.0150082
935.246	0.0150539
935.325	0.0148763
935.403	0.0149895
935.481	0.0148756
935.559	0.0149444
935.637	0.0147628
935.715	0.0149886
935.793	0.0148329
935.871	0.0150130
935.950	0.0149866
936.028	0.0149209
936.106	0.0150185
936.184	0.0149615
936.262	0.0150593
936.340	0.0149973
936.418	0.0148779
936.496	0.0150021
936.575	0.0150037
936.653	0.0151258
936.731	0.0150159
936.809	0.0149160
936.887	0.0150304
936.965	0.0149188
937.043	0.0149879
937.121	0.0150655
937.200	0.0150441
937.278	0.0148725
937.356	0.0149882
937.434	0.0150463
937.512	0.0149519
937.590	0.0148900
937.668	0.0148877
937.746	0.0150484
937.825	0.0150586
937.903	0.0149985
937.981	0.0148632
938.059	0.0148751
938.137	0.0148902
938.215	0.0148755
938.293	0.0149255
938.371	0.0148178
938.450	0.0148608
938.528	0.0148531
938.606	0.0149894
938.684	0.0149323
938.762	0.0149363
938.840	0.0148502
938.918	0.0149286
938.996	0.0148769
939.075	0.0149641
939.153	0.0148421
939.231	0.0148676
939.309	0.0151186
939.387	0.0151495
939.465	0.0150010
939.543	0.0150290
939.621	0.0150234
939.700	0.0150710
939.778	0.0149118
939.856	0.0150707
939.934	0.0150755
940.012	0.0149614
940.090	0.0150810
940.168	0.0149913
940.246	0.0150646
940.325	0.0149698
940.403	0.0150116
940.481	0.0150458
940.559	0.0150482
940.637	0.0148741
940.715	0.0149464
940.793	0.0149564
940.871	0.0148566
940.950	0.0150402
941.028	0.0149240
941.106	0.0148074
941.184	0.0147746
941.262	0.0148920
941.340	0.0148264
941.418	0.0148535
941.496	0.0147202
941.575	0.0148832
941.653	0.0149599
941.731	0.0148953
941.809	0.0149158
941.887	0.0148756
941.965	0.0148836
942.043	0.0149917
942.121	0.0150766
942.200	0.0149413
942.278	0.0148918
942.356	0.0149181
942.434	0.0151826
942.512	0.0150358
942.590	0.0149526
942.668	0.0149551
942.746	0.0150368
942.825	0.0149437
942.903	0.0149364
942.981	0.0149782
943.059	0.0151099
943.137	0.0148645
943.215	0.0149763
943.293	0.0148701
943.371	0.0148656
943.450	0.0149911
943.528	0.0150467
943.606	0.0149310
943.684	0.0149580
943.762	0.0148653
943.840	0.0147578
943.918	0.0147922
943.996	0.0147290
944.075	0.0148239
944.153	0.0150313
944.231	0.0149014
944.309	0.0149664
944.387	0.0149286
944.465	0.0149875
944.543	0.0148843
944.621	0.0147821
944.700	0.0149675
944.778	0.0150294
944.856	0.0149825
944.934	0.0150333
945.012	0.0148889
945.090	0.0148345
945.168	0.0150433
945.246	0.0150017
945.325	0.0149832
945.403	0.0149537
945.481	0.0149554
945.559	0.0149232
945.637	0.0148778
945.715	0.0148698
945.793	0.0149169
945.871	0.0148329
945.950	0.0148288
946.028	0.0149179
946.106	0.0149400
946.184	0.0148952
946.262	0.0149913
946.340	0.0149303
946.418	0.0149092
946.496	0.0149547
946.575	0.0148983
946.653	0.0149668
946.731	0.0149428
946.809	0.0150817
946.887	0.0150584
946.965	0.0149510
947.043	0.0149307
947.121	0.0149287
947.200	0.0148483
947.278	0.0150661
947.356	0.0148172
947.434	0.0149860
947.512	0.0148780
947.590	0.0149040
947.668	0.0149144
947.746	0.0149004
947.825	0.0148340
947.903	0.0149142
947.981	0.0150316
948.059	0.0149474
948.137	0.0148978
948.215	0.0149531
948.293	0.0148006
948.371	0.0147579
948.450	0.0148864
948.528	0.0149666
948.606	0.0149123
948.684	0.0149067
948.762	0.0148985
948.840	0.0149288
948.918	0.0149782
948.996	0.0148671
949.075	0.0148573
949.153	0.0149435
949.231	0.0149790
949.309	0.0149985
949.387	0.0150224
949.465	0.0149200
949.543	0.0149047
949.621	0.0150507
949.700	0.0149815
949.778	0.0149362
949.856	0.0150095
949.934	0.0149494
950.012	0.0149552
950.090	0.0149701
950.168	0.0149075
950.246	0.0149078
950.325	0.0148947
950.403	0.0149398
950.481	0.0149298
950.559	0.0148705
950.637	0.0150478
950.715	0.0148270
950.793	0.0149846
950.871	0.0148769
950.950	0.0148741
951.028	0.0149714
951.106	0.0147763
951.184	0.0149794
951.262	0.0148671
951.340	0.0149792
951.418	0.0148466
951.496	0.0149933
951.575	0.0149389
951.653	0.0149741
951.731	0.0148319
951.809	0.0148038
951.887	0.0148647
951.965	0.0148654
952.043	0.0148228
952.121	0.0147536
952.200	0.0148965
952.278	0.0150118
952.356	0.0150092
952.434	0.0149758
952.512	0.0148477
952.590	0.0149265
952.668	0.0149610
952.746	0.0148892
952.825	0.0149152
952.903	0.0148528
952.981	0.0148627
953.059	0.0150471
953.137	0.0150253
953.215	0.0149667
953.293	0.0150142
953.371	0.0148556
953.450	0.0149007
953.528	0.0148924
953.606	0.0148817
953.684	0.0149362
953.762	0.0150127
953.840	0.0148914
953.918	0.0148478
953.996	0.0148160
954.075	0.0148940
954.153	0.0149323
954.231	0.0147184
954.309	0.0148766
954.387	0.0149271
954.465	0.0147402
954.543	0.0146622
954.621	0.0149747
954.700	0.0149509
954.778	0.0148268
954.856	0.0148493
954.934	0.0149096
955.012	0.0149050
955.090	0.0149200
955.168	0.0149564
955.246	0.0148824
955.325	0.0149689
955.403	0.0150829
955.481	0.0150468
955.559	0.0149488
955.637	0.0150562
955.715	0.0150168
955.793	0.0150245
955.871	0.0150925
955.950	0.0150661
956.028	0.0150633
956.106	0.0148907
956.184	0.0149390
956.262	0.0149605
956.340	0.0149084
956.418	0.0148696
956.496	0.0147263
956.575	0.0148828
956.653	0.0148250
956.731	0.0147206
956.809	0.0147771
956.887	0.0147543
956.965	0.0148302
957.043	0.0148067
957.121	0.0148507
957.200	0.0148038
957.278	0.0148459
957.356	0.0149697
957.434	0.0149651
957.512	0.0149562
957.590	0.0149419
957.668	0.0148710
957.746	0.0149992
957.825	0.0150381
957.903	0.0149908
957.981	0.0149792
958.059	0.0150204
958.137	0.0150541
958.215	0.0150182
958.293	0.0150620
958.371	0.0150878
958.450	0.0149526
958.528	0.0150048
958.606	0.0150238
958.684	0.0148774
958.762	0.0148903
958.840	0.0149093
958.918	0.0150342
958.996	0.0149662
959.075	0.0148623
959.153	0.0149133
959.231	0.0149487
959.309	0.0148668
959.387	0.0148664
959.465	0.0148163
959.543	0.0148017
959.621	0.0147694
959.700	0.0148476
959.778	0.0148908
959.856	0.0148935
959.934	0.0148167
960.012	0.0149806
960.090	0.0147875
960.168	0.0149943
960.246	0.0150393
960.325	0.0149229
960.403	0.0148608
960.481	0.0149097
960.559	0.0149754
960.637	0.0150803
960.715	0.0148988
960.793	0.0149934
960.871	0.0149465
960.950	0.0150174
961.028	0.0150400
961.106	0.0149240
961.184	0.0151147
961.262	0.0148835
961.340	0.0149514
961.418	0.0148771
961.496	0.0149014
961.575	0.0149677
961.653	0.0150491
961.731	0.0148997
961.809	0.0147932
961.887	0.0148505
961.965	0.0147652
962.043	0.0148275
962.121	0.0148503
962.200	0.0148901
962.278	0.0148467
962.356	0.0149511
962.434	0.0148696
962.512	0.0148510
962.590	0.0149323
962.668	0.0150170
962.746	0.0150043
962.825	0.0150012
962.903	0.0150254
962.981	0.0147866
963.059	0.0150732
963.137	0.0151254
963.215	0.0148673
963.293	0.0150698
963.371	0.0149618
963.450	0.0150241
963.528	0.0151791
963.606	0.0148711
963.684	0.0148593
963.762	0.0149567
963.840	0.0149012
963.918	0.0150470
963.996	0.0149863
964.075	0.0150962
964.153	0.0149076
964.231	0.0149515
964.309	0.0148687
964.387	0.0148546
964.465	0.0148914
964.543	0.0149540
964.621	0.0150279
964.700	0.0149524
964.778	0.0149011
964.856	0.0150034
964.934	0.0149552
965.012	0.0148894
965.090	0.0150237
965.168	0.0150570
965.246	0.0151226
965.325	0.0150993
965.403	0.0149168
965.481	0.0150268
965.559	0.0150992
965.637	0.0150328
965.715	0.0149164
965.793	0.0149591
965.871	0.0149573
965.950	0.0150154
966.028	0.0149837
966.106	0.0150227
966.184	0.0150091
966.262	0.0149670
966.340	0.0148760
966.418	0.0149152
966.496	0.0148663
966.575	0.0151101
966.653	0.0148626
966.731	0.0148914
966.809	0.0149252
966.887	0.0151527
966.965	0.0149955
967.043	0.0150835
967.121	0.0148120
967.200	0.0149619
967.278	0.0148135
967.356	0.0148644
967.434	0.0149557
967.512	0.0149819
967.590	0.0150035
967.668	0.0149315
967.746	0.0149289
967.825	0.0149440
967.903	0.0148341
967.981	0.0150331
968.059	0.0150094
968.137	0.0148640
968.215	0.0150065
968.293	0.0149026
968.371	0.0149786
968.450	0.0150010
968.528	0.0148991
968.606	0.0149703
968.684	0.0149071
968.762	0.0149545
968.840	0.0149876
968.918	0.0149199
968.996	0.0148365
969.075	0.0148662
969.153	0.0149128
969.231	0.0148547
969.309	0.0149362
969.387	0.0148465
969.465	0.0148737
969.543	0.0149632
969.621	0.0147657
969.700	0.0149446
969.778	0.0149495
969.856	0.0149117
969.934	0.0149263
970.012	0.0150266
970.090	0.0149550
970.168	0.0149896
970.246	0.0150983
970.325	0.0150456
970.403	0.0150362
970.481	0.0149542
970.559	0.0150314
970.637	0.0150290
970.715	0.0149029
970.793	0.0148792
970.871	0.0148392
970.950	0.0149586
971.028	0.0149624
971.106	0.0149478
971.184	0.0148612
971.262	0.0148079
971.340	0.0147660
971.418	0.0148994
971.496	0.0147561
971.575	0.0149434
971.653	0.0149454
971.731	0.0148801
971.809	0.0149412
971.887	0.0149393
971.965	0.0149207
972.043	0.0149423
972.121	0.0148615
972.200	0.0148879
972.278	0.0147994
972.356	0.0149760
972.434	0.0149459
972.512	0.0149096
972.590	0.0149689
972.668	0.0148839
972.746	0.0149377
972.825	0.0150148
972.903	0.0149429
972.981	0.0149753
973.059	0.0148654
973.137	0.0148426
973.215	0.0149825
973.293	0.0149114
973.371	0.0149023
973.450	0.0147471
973.528	0.0148441
973.606	0.0149099
973.684	0.0150038
973.762	0.0147983
973.840	0.0148824
973.918	0.0150006
973.996	0.0149989
974.075	0.0148882
974.153	0.0149494
974.231	0.0149973
974.309	0.0151000
974.387	0.0150092
974.465	0.0149023
974.543	0.0149718
974.621	0.0149901
974.700	0.0150391
974.778	0.0150842
974.856	0.0150625
974.934	0.0149277
975.012	0.0149792
975.090	0.0151216
975.168	0.0148973
975.246	0.0150872
975.325	0.0150506
975.403	0.0150674
975.481	0.0150699
975.559	0.0147465
975.637	0.0149534
975.715	0.0148479
975.793	0.0149659
975.871	0.0148314
975.950	0.0148866
976.028	0.0148094
976.106	0.0148837
976.184	0.0149429
976.262	0.0149553
976.340	0.0148643
976.418	0.0148458
976.496	0.0149682
976.575	0.0148558
976.653	0.0149928
976.731	0.0149355
976.809	0.0148735
976.887	0.0149111
976.965	0.0149453
977.043	0.0148975
977.121	0.0149120
977.200	0.0148921
977.278	0.0148634
977.356	0.0149388
977.434	0.0148495
977.512	0.0149617
977.590	0.0150391
977.668	0.0151055
977.746	0.0149151
977.825	0.0149065
977.903	0.0149176
977.981	0.0148643
978.059	0.0149004
978.137	0.0148756
978.215	0.0148412
978.293	0.0150428
978.371	0.0150265
978.450	0.0148717
978.528	0.0149957
978.606	0.0151492
978.684	0.0150782
978.762	0.0148917
978.840	0.0148816
978.918	0.0149120
978.996	0.0149485
979.075	0.0150661
979.153	0.0149543
979.231	0.0149545
979.309	0.0149219
979.387	0.0148643
979.465	0.0148024
979.543	0.0149134
979.621	0.0150066
979.700	0.0149038
979.778	0.0149587
979.856	0.0150004
979.934	0.0150275
980.012	0.0149035
980.090	0.0149521
980.168	0.0149301
980.246	0.0149488
980.325	0.0148657
980.403	0.0148274
980.481	0.0149870
980.559	0.0149609
980.637	0.0148483
980.715	0.0147946
980.793	0.0149081
980.871	0.0149847
980.950	0.0148029
981.028	0.0149955
981.106	0.0149724
981.184	0.0147952
981.262	0.0149268
981.340	0.0150032
981.418	0.0148951
981.496	0.0149155
981.575	0.0148679
981.653	0.0148633
981.731	0.0150828
981.809	0.0152255
981.887	0.0149578
981.965	0.0150111
982.043	0.0149848
982.121	0.0150272
982.200	0.0150746
982.278	0.0150317
982.356	0.0149538
982.434	0.0151678
982.512	0.0151511
982.590	0.0150896
982.668	0.0149675
982.746	0.0148983
982.825	0.0148956
982.903	0.0146844
982.981	0.0147761
983.059	0.0149057
983.137	0.0146912
983.215	0.0148461
983.293	0.0148816
983.371	0.0147990
983.450	0.0147003
983.528	0.0149966
983.606	0.0148285
983.684	0.0148421
983.762	0.0150216
983.840	0.0148486
983.918	0.0149001
983.996	0.0149390
984.075	0.0148940
984.153	0.0148629
984.231	0.0149673
984.309	0.0150984
984.387	0.0149393
984.465	0.0150198
984.543	0.0150335
984.621	0.0149593
984.700	0.0148878
984.778	0.0149023
984.856	0.0149656
984.934	0.0150247
985.012	0.0150128
985.090	0.0148354
985.168	0.0148961
985.246	0.0150011
985.325	0.0150189
985.403	0.0148695
985.481	0.0148363
985.559	0.0148490
985.637	0.0150943
985.715	0.0149133
985.793	0.0149632
985.871	0.0148514
985.950	0.0149059
986.028	0.0148867
986.106	0.0149237
986.184	0.0149297
986.262	0.0149710
986.340	0.0149809
986.418	0.0149735
986.496	0.0149670
986.575	0.0149126
986.653	0.0150620
986.731	0.0150719
986.809	0.0151009
986.887	0.0151006
986.965	0.0151190
987.043	0.0150084
987.121	0.0150561
987.200	0.0149321
987.278	0.0150866
987.356	0.0150206
987.434	0.0150739
987.512	0.0150217
987.590	0.0151131
987.668	0.0149846
987.746	0.0150139
987.825	0.0149921
987.903	0.0149459
987.981	0.0150008
988.059	0.0147798
988.137	0.0149466
988.215	0.0148895
988.293	0.0149913
988.371	0.0148733
988.450	0.0148526
988.528	0.0150553
988.606	0.0149441
988.684	0.0149078
988.762	0.0149213
988.840	0.0149986
988.918	0.0149210
988.996	0.0147871
989.075	0.0149649
989.153	0.0151231
989.231	0.0150742
989.309	0.0149660
989.387	0.0150047
989.465	0.0150537
989.543	0.0149946
989.621	0.0150611
989.700	0.0150839
989.778	0.0150414
989.856	0.0150412
989.934	0.0149797
990.012	0.0149587
990.090	0.0151323
990.168	0.0150832
990.246	0.0150085
990.325	0.0149493
990.403	0.0149248
990.481	0.0148180
990.559	0.0150165
990.637	0.0150523
990.715	0.0151116
990.793	0.0149224
990.871	0.0149947
990.950	0.0149292
991.028	0.0150951
991.106	0.0150362
991.184	0.0149035
991.262	0.0149649
991.340	0.0151949
991.418	0.0149499
991.496	0.0148148
991.575	0.0149279
991.653	0.0149825
991.731	0.0148611
991.809	0.0149660
991.887	0.0150345
991.965	0.0149989
992.043	0.0149429
992.121	0.0150036
992.200	0.0149606
992.278	0.0149329
992.356	0.0149886
992.434	0.0149726
992.512	0.0149818
992.590	0.0150781
992.668	0.0149297
992.746	0.0147940
992.825	0.0148225
992.903	0.0149107
992.981	0.0150581
993.059	0.0150408
993.137	0.0150002
993.215	0.0148319
993.293	0.0148750
993.371	0.0148943
993.450	0.0149498
993.528	0.0149817
993.606	0.0150061
993.684	0.0149979
993.762	0.0150027
993.840	0.0150407
993.918	0.0149251
993.996	0.0150613
994.075	0.0149378
994.153	0.0150912
994.231	0.0150217
994.309	0.0150787
994.387	0.0151153
994.465	0.0150491
994.543	0.0148532
994.621	0.0149222
994.700	0.0149914
994.778	0.0150007
994.856	0.0149614
994.934	0.0149482
995.012	0.0151087
995.090	0.0151057
995.168	0.0149570
995.246	0.0148857
995.325	0.0149895
995.403	0.0148521
995.481	0.0148978
995.559	0.0150579
995.637	0.0150224
995.715	0.0148554
995.793	0.0149634
995.871	0.0149192
995.950	0.0148852
996.028	0.0149657
996.106	0.0149854
996.184	0.0150942
996.262	0.0150282
996.340	0.0150945
996.418	0.0149541
996.496	0.0149403
996.575	0.0150987
996.653	0.0149680
996.731	0.0149255
996.809	0.0149044
996.887	0.0149918
996.965	0.0149509
997.043	0.0149667
997.121	0.0149664
997.200	0.0148577
997.278	0.0149015
997.356	0.0150539
997.434	0.0149018
997.512	0.0148787
997.590	0.0149077
997.668	0.0149609
997.746	0.0148809
997.825	0.0148954
997.903	0.0149229
997.981	0.0150639
998.059	0.0148448
998.137	0.0148264
998.215	0.0148862
998.293	0.0149890
998.371	0.0150128
998.450	0.0149209
998.528	0.0149526
998.606	0.0149016
998.684	0.0149250
998.762	0.0148779
998.840	0.0149287
998.918	0.0150089
