05/04/2022	21:07:02	Ver.	4.1	UNKNOWN
Optical Delay	678.996401	Delta X		0.078125	Sweeps	1	Scan Rate	0/0
Coordinates	Axis 1	NaN	Axis 2	NaN	Axis 3	NaN	Axis 4	NaN	Axis 5	NaN	Axis 6	0.000000
TX Power	0.000000	RX Power	0.000000

678.996	0.0143929
679.075	0.0143548
679.153	0.0143275
679.231	0.0142837
679.309	0.0144498
679.387	0.0143803
679.465	0.0142773
679.543	0.0143930
679.621	0.0143931
679.700	0.0144684
679.778	0.0142961
679.856	0.0143477
679.934	0.0144416
680.012	0.0143833
680.090	0.0143980
680.168	0.0143287
680.246	0.0143845
680.325	0.0143359
680.403	0.0144511
680.481	0.0144648
680.559	0.0143920
680.637	0.0144630
680.715	0.0144537
680.793	0.0145522
680.871	0.0143353
680.950	0.0143761
681.028	0.0143896
681.106	0.0143956
681.184	0.0144461
681.262	0.0144820
681.340	0.0144943
681.418	0.0143797
681.496	0.0143598
681.575	0.0144850
681.653	0.0143884
681.731	0.0145202
681.809	0.0143924
681.887	0.0143407
681.965	0.0144577
682.043	0.0145174
682.121	0.0144584
682.200	0.0142934
682.278	0.0144302
682.356	0.0143686
682.434	0.0145071
682.512	0.0143546
682.590	0.0143727
682.668	0.0144419
682.746	0.0143881
682.825	0.0144804
682.903	0.0144936
682.981	0.0143176
683.059	0.0143996
683.137	0.0144486
683.215	0.0144389
683.293	0.0145229
683.371	0.0144932
683.450	0.0145007
683.528	0.0143549
683.606	0.0142764
683.684	0.0144743
683.762	0.0144516
683.840	0.0144286
683.918	0.0142871
683.996	0.0144302
684.075	0.0144898
684.153	0.0144784
684.231	0.0144257
684.309	0.0142744
684.387	0.0143843
684.465	0.0143906
684.543	0.0145267
684.621	0.0143600
684.700	0.0143881
684.778	0.0144315
684.856	0.0144376
684.934	0.0142960
685.012	0.0144360
685.090	0.0145670
685.168	0.0143462
685.246	0.0144339
685.325	0.0144193
685.403	0.0143717
685.481	0.0144617
685.559	0.0143616
685.637	0.0143298
685.715	0.0144166
685.793	0.0144054
685.871	0.0144811
685.950	0.0145302
686.028	0.0143154
686.106	0.0144283
686.184	0.0146292
686.262	0.0143076
686.340	0.0144736
686.418	0.0144720
686.496	0.0143659
686.575	0.0143722
686.653	0.0144006
686.731	0.0145015
686.809	0.0144160
686.887	0.0144405
686.965	0.0143971
687.043	0.0145513
687.121	0.0145136
687.200	0.0143859
687.278	0.0144210
687.356	0.0144077
687.434	0.0144480
687.512	0.0144446
687.590	0.0145504
687.668	0.0143845
687.746	0.0144141
687.825	0.0144750
687.903	0.0144244
687.981	0.0143010
688.059	0.0145406
688.137	0.0144019
688.215	0.0144395
688.293	0.0144168
688.371	0.0142805
688.450	0.0144065
688.528	0.0143582
688.606	0.0144431
688.684	0.0143221
688.762	0.0142933
688.840	0.0144141
688.918	0.0144222
688.996	0.0143781
689.075	0.0145341
689.153	0.0143965
689.231	0.0143758
689.309	0.0143865
689.387	0.0144699
689.465	0.0144224
689.543	0.0143654
689.621	0.0144227
689.700	0.0144305
689.778	0.0143566
689.856	0.0143970
689.934	0.0144620
690.012	0.0143846
690.090	0.0145084
690.168	0.0144779
690.246	0.0143698
690.325	0.0143649
690.403	0.0143420
690.481	0.0143683
690.559	0.0143707
690.637	0.0143969
690.715	0.0144325
690.793	0.0143700
690.871	0.0143050
690.950	0.0143120
691.028	0.0143462
691.106	0.0144337
691.184	0.0143131
691.262	0.0142325
691.340	0.0143012
691.418	0.0143996
691.496	0.0144273
691.575	0.0143881
691.653	0.0144008
691.731	0.0144141
691.809	0.0143560
691.887	0.0143879
691.965	0.0142381
692.043	0.0143390
692.121	0.0144863
692.200	0.0143425
692.278	0.0144027
692.356	0.0144656
692.434	0.0143690
692.512	0.0143378
692.590	0.0144028
692.668	0.0144157
692.746	0.0143144
692.825	0.0143423
692.903	0.0143324
692.981	0.0143561
693.059	0.0143698
693.137	0.0143743
693.215	0.0144568
693.293	0.0143005
693.371	0.0143563
693.450	0.0144036
693.528	0.0143612
693.606	0.0142911
693.684	0.0143671
693.762	0.0144154
693.840	0.0143095
693.918	0.0142175
693.996	0.0143214
694.075	0.0145562
694.153	0.0144309
694.231	0.0144540
694.309	0.0143716
694.387	0.0144353
694.465	0.0143113
694.543	0.0144872
694.621	0.0144119
694.700	0.0144682
694.778	0.0143880
694.856	0.0143876
694.934	0.0143359
695.012	0.0142827
695.090	0.0143581
695.168	0.0143436
695.246	0.0142795
695.325	0.0144386
695.403	0.0145168
695.481	0.0144878
695.559	0.0144511
695.637	0.0143287
695.715	0.0144688
695.793	0.0143506
695.871	0.0144025
695.950	0.0145261
696.028	0.0144923
696.106	0.0144083
696.184	0.0143141
696.262	0.0143883
696.340	0.0145391
696.418	0.0144754
696.496	0.0143836
696.575	0.0144316
696.653	0.0143459
696.731	0.0143226
696.809	0.0144691
696.887	0.0144179
696.965	0.0143901
697.043	0.0144061
697.121	0.0143282
697.200	0.0143429
697.278	0.0143500
697.356	0.0144259
697.434	0.0143632
697.512	0.0144165
697.590	0.0144623
697.668	0.0144167
697.746	0.0144461
697.825	0.0143317
697.903	0.0146815
697.981	0.0145739
698.059	0.0144173
698.137	0.0144947
698.215	0.0146526
698.293	0.0144005
698.371	0.0144756
698.450	0.0146020
698.528	0.0143553
698.606	0.0144831
698.684	0.0144203
698.762	0.0145177
698.840	0.0142646
698.918	0.0143102
698.996	0.0142879
699.075	0.0142169
699.153	0.0140864
699.231	0.0142689
699.309	0.0140733
699.387	0.0141866
699.465	0.0143230
699.543	0.0141683
699.621	0.0141667
699.700	0.0143048
699.778	0.0143694
699.856	0.0142203
699.934	0.0142514
700.012	0.0143959
700.090	0.0142873
700.168	0.0144035
700.246	0.0144232
700.325	0.0144038
700.403	0.0144490
700.481	0.0144363
700.559	0.0145161
700.637	0.0145808
700.715	0.0147885
700.793	0.0145793
700.871	0.0144585
700.950	0.0147159
701.028	0.0145886
701.106	0.0145013
701.184	0.0146352
701.262	0.0145981
701.340	0.0144092
701.418	0.0143627
701.496	0.0144396
701.575	0.0143613
701.653	0.0143336
701.731	0.0141473
701.809	0.0142348
701.887	0.0143548
701.965	0.0142728
702.043	0.0142714
702.121	0.0143483
702.200	0.0142907
702.278	0.0143628
702.356	0.0145032
702.434	0.0143781
702.512	0.0143951
702.590	0.0145034
702.668	0.0145019
702.746	0.0144506
702.825	0.0144125
702.903	0.0143920
702.981	0.0144376
703.059	0.0145176
703.137	0.0144596
703.215	0.0143978
703.293	0.0143275
703.371	0.0143004
703.450	0.0142812
703.528	0.0143866
703.606	0.0142876
703.684	0.0143861
703.762	0.0143267
703.840	0.0146336
703.918	0.0146135
703.996	0.0145613
704.075	0.0145785
704.153	0.0147395
704.231	0.0145358
704.309	0.0145894
704.387	0.0144070
704.465	0.0142173
704.543	0.0139915
704.621	0.0138985
704.700	0.0138870
704.778	0.0137999
704.856	0.0137617
704.934	0.0137538
705.012	0.0136700
705.090	0.0138057
705.168	0.0140323
705.246	0.0141333
705.325	0.0141551
705.403	0.0143822
705.481	0.0143690
705.559	0.0146200
705.637	0.0148098
705.715	0.0148239
705.793	0.0150961
705.871	0.0150759
705.950	0.0150163
706.028	0.0150417
706.106	0.0149946
706.184	0.0149312
706.262	0.0149406
706.340	0.0148780
706.418	0.0147900
706.496	0.0147816
706.575	0.0146618
706.653	0.0145581
706.731	0.0145697
706.809	0.0143323
706.887	0.0141099
706.965	0.0137793
707.043	0.0135367
707.121	0.0132835
707.200	0.0133573
707.278	0.0133090
707.356	0.0133864
707.434	0.0134399
707.512	0.0137616
707.590	0.0135869
707.668	0.0139016
707.746	0.0140463
707.825	0.0142131
707.903	0.0144430
707.981	0.0144902
708.059	0.0145979
708.137	0.0149030
708.215	0.0150314
708.293	0.0150925
708.371	0.0153565
708.450	0.0153310
708.528	0.0154276
708.606	0.0152760
708.684	0.0154396
708.762	0.0154158
708.840	0.0154513
708.918	0.0154967
708.996	0.0154136
709.075	0.0152354
709.153	0.0150446
709.231	0.0147903
709.309	0.0144151
709.387	0.0138745
709.465	0.0135409
709.543	0.0134647
709.621	0.0131981
709.700	0.0131306
709.778	0.0129627
709.856	0.0128600
709.934	0.0128669
710.012	0.0128124
710.090	0.0127264
710.168	0.0129290
710.246	0.0129806
710.325	0.0133288
710.403	0.0136961
710.481	0.0139333
710.559	0.0145368
710.637	0.0152666
710.715	0.0156508
710.793	0.0160004
710.871	0.0161800
710.950	0.0162997
711.028	0.0162446
711.106	0.0162537
711.184	0.0159294
711.262	0.0155591
711.340	0.0153282
711.418	0.0150531
711.496	0.0147158
711.575	0.0145650
711.653	0.0144870
711.731	0.0144297
711.809	0.0144643
711.887	0.0144350
711.965	0.0144301
712.043	0.0142735
712.121	0.0142360
712.200	0.0140419
712.278	0.0138092
712.356	0.0135745
712.434	0.0133049
712.512	0.0129754
712.590	0.0128328
712.668	0.0126425
712.746	0.0126240
712.825	0.0126566
712.903	0.0127951
712.981	0.0130325
713.059	0.0132627
713.137	0.0136166
713.215	0.0140308
713.293	0.0144657
713.371	0.0149317
713.450	0.0153992
713.528	0.0158681
713.606	0.0161533
713.684	0.0161895
713.762	0.0163338
713.840	0.0162543
713.918	0.0162115
713.996	0.0159687
714.075	0.0156741
714.153	0.0152409
714.231	0.0151440
714.309	0.0148704
714.387	0.0147626
714.465	0.0144846
714.543	0.0144256
714.621	0.0142817
714.700	0.0142356
714.778	0.0142191
714.856	0.0139912
714.934	0.0139891
715.012	0.0138585
715.090	0.0136129
715.168	0.0132757
715.246	0.0131750
715.325	0.0130463
715.403	0.0129279
715.481	0.0127563
715.559	0.0126943
715.637	0.0126107
715.715	0.0126543
715.793	0.0129541
715.871	0.0132413
715.950	0.0137414
716.028	0.0141084
716.106	0.0147465
716.184	0.0150448
716.262	0.0154501
716.340	0.0160051
716.418	0.0162322
716.496	0.0162725
716.575	0.0162971
716.653	0.0162421
716.731	0.0159946
716.809	0.0154570
716.887	0.0151920
716.965	0.0147712
717.043	0.0144759
717.121	0.0142810
717.200	0.0139965
717.278	0.0140019
717.356	0.0138978
717.434	0.0138602
717.512	0.0137565
717.590	0.0138551
717.668	0.0137273
717.746	0.0138194
717.825	0.0138638
717.903	0.0137152
717.981	0.0138066
718.059	0.0139371
718.137	0.0137579
718.215	0.0138702
718.293	0.0138681
718.371	0.0138961
718.450	0.0139674
718.528	0.0137634
718.606	0.0138516
718.684	0.0138435
718.762	0.0139185
718.840	0.0140918
718.918	0.0142925
718.996	0.0144926
719.075	0.0146888
719.153	0.0147181
719.231	0.0149056
719.309	0.0149815
719.387	0.0150938
719.465	0.0151372
719.543	0.0151782
719.621	0.0150784
719.700	0.0148103
719.778	0.0146183
719.856	0.0144262
719.934	0.0141913
720.012	0.0137946
720.090	0.0137825
720.168	0.0134933
720.246	0.0134297
720.325	0.0135730
720.403	0.0135784
720.481	0.0138879
720.559	0.0142248
720.637	0.0142776
720.715	0.0144436
720.793	0.0147285
720.871	0.0148920
720.950	0.0148476
721.028	0.0148877
721.106	0.0149940
721.184	0.0149318
721.262	0.0148340
721.340	0.0147335
721.418	0.0145697
721.496	0.0144476
721.575	0.0143102
721.653	0.0142713
721.731	0.0140820
721.809	0.0140990
721.887	0.0141454
721.965	0.0144067
722.043	0.0142659
722.121	0.0142357
722.200	0.0145520
722.278	0.0147038
722.356	0.0149424
722.434	0.0148722
722.512	0.0149825
722.590	0.0148402
722.668	0.0147520
722.746	0.0145646
722.825	0.0144018
722.903	0.0142796
722.981	0.0142448
723.059	0.0141531
723.137	0.0139853
723.215	0.0138961
723.293	0.0139149
723.371	0.0137802
723.450	0.0138609
723.528	0.0139540
723.606	0.0139579
723.684	0.0137619
723.762	0.0138187
723.840	0.0141583
723.918	0.0140452
723.996	0.0140085
724.075	0.0143484
724.153	0.0142920
724.231	0.0143433
724.309	0.0144654
724.387	0.0144418
724.465	0.0145787
724.543	0.0145809
724.621	0.0146366
724.700	0.0146931
724.778	0.0146952
724.856	0.0149245
724.934	0.0149248
725.012	0.0151144
725.090	0.0151538
725.168	0.0152758
725.246	0.0151966
725.325	0.0151271
725.403	0.0152594
725.481	0.0153386
725.559	0.0149624
725.637	0.0149834
725.715	0.0150079
725.793	0.0148568
725.871	0.0146444
725.950	0.0144648
726.028	0.0141956
726.106	0.0137590
726.184	0.0135374
726.262	0.0133888
726.340	0.0129825
726.418	0.0129293
726.496	0.0128146
726.575	0.0127933
726.653	0.0129317
726.731	0.0131292
726.809	0.0131288
726.887	0.0134462
726.965	0.0137968
727.043	0.0141107
727.121	0.0142479
727.200	0.0145196
727.278	0.0147204
727.356	0.0149581
727.434	0.0151427
727.512	0.0150926
727.590	0.0151606
727.668	0.0153819
727.746	0.0153555
727.825	0.0151682
727.903	0.0151071
727.981	0.0151797
728.059	0.0151705
728.137	0.0150094
728.215	0.0150002
728.293	0.0149198
728.371	0.0149246
728.450	0.0149106
728.528	0.0147543
728.606	0.0148835
728.684	0.0146904
728.762	0.0144820
728.840	0.0144216
728.918	0.0141912
728.996	0.0139129
729.075	0.0138972
729.153	0.0137225
729.231	0.0134822
729.309	0.0134531
729.387	0.0133047
729.465	0.0133555
729.543	0.0133149
729.621	0.0134055
729.700	0.0134939
729.778	0.0135910
729.856	0.0137520
729.934	0.0140107
730.012	0.0143576
730.090	0.0146238
730.168	0.0146568
730.246	0.0148782
730.325	0.0149799
730.403	0.0149937
730.481	0.0150340
730.559	0.0149728
730.637	0.0147633
730.715	0.0147262
730.793	0.0145895
730.871	0.0145255
730.950	0.0144360
731.028	0.0143908
731.106	0.0143551
731.184	0.0143615
731.262	0.0144624
731.340	0.0143317
731.418	0.0143612
731.496	0.0145314
731.575	0.0146219
731.653	0.0143985
731.731	0.0146293
731.809	0.0143990
731.887	0.0145230
731.965	0.0145170
732.043	0.0143969
732.121	0.0144073
732.200	0.0143455
732.278	0.0142973
732.356	0.0144040
732.434	0.0143591
732.512	0.0144851
732.590	0.0141962
732.668	0.0144482
732.746	0.0142970
732.825	0.0142591
732.903	0.0144234
732.981	0.0143082
733.059	0.0143927
733.137	0.0143864
733.215	0.0142956
733.293	0.0142562
733.371	0.0142649
733.450	0.0143046
733.528	0.0141714
733.606	0.0141049
733.684	0.0141045
733.762	0.0141357
733.840	0.0139565
733.918	0.0139282
733.996	0.0141061
734.075	0.0139069
734.153	0.0140396
734.231	0.0140782
734.309	0.0142263
734.387	0.0145148
734.465	0.0145939
734.543	0.0145464
734.621	0.0145179
734.700	0.0147531
734.778	0.0147918
734.856	0.0150720
734.934	0.0151727
735.012	0.0150440
735.090	0.0151802
735.168	0.0152592
735.246	0.0151025
735.325	0.0150661
735.403	0.0149977
735.481	0.0149166
735.559	0.0146272
735.637	0.0144524
735.715	0.0143774
735.793	0.0143633
735.871	0.0140010
735.950	0.0138071
736.028	0.0137674
736.106	0.0136945
736.184	0.0136273
736.262	0.0136639
736.340	0.0138014
736.418	0.0137802
736.496	0.0140060
736.575	0.0140731
736.653	0.0141153
736.731	0.0143583
736.809	0.0143566
736.887	0.0144853
736.965	0.0148244
737.043	0.0148169
737.121	0.0149446
737.200	0.0149557
737.278	0.0150983
737.356	0.0150220
737.434	0.0150770
737.512	0.0150783
737.590	0.0149817
737.668	0.0151295
737.746	0.0149754
737.825	0.0149058
737.903	0.0148119
737.981	0.0146124
738.059	0.0145086
738.137	0.0144576
738.215	0.0143800
738.293	0.0143287
738.371	0.0140988
738.450	0.0139764
738.528	0.0140266
738.606	0.0137625
738.684	0.0137022
738.762	0.0135321
738.840	0.0133518
738.918	0.0134303
738.996	0.0135887
739.075	0.0137398
739.153	0.0135889
739.231	0.0138100
739.309	0.0138963
739.387	0.0141617
739.465	0.0144227
739.543	0.0144065
739.621	0.0146243
739.700	0.0146793
739.778	0.0149937
739.856	0.0150349
739.934	0.0151601
740.012	0.0152179
740.090	0.0152709
740.168	0.0153262
740.246	0.0152535
740.325	0.0150918
740.403	0.0150960
740.481	0.0149261
740.559	0.0147277
740.637	0.0145567
740.715	0.0146666
740.793	0.0144111
740.871	0.0143692
740.950	0.0141833
741.028	0.0139638
741.106	0.0139034
741.184	0.0138262
741.262	0.0137672
741.340	0.0136572
741.418	0.0135969
741.496	0.0136405
741.575	0.0136912
741.653	0.0137269
741.731	0.0137443
741.809	0.0138918
741.887	0.0140337
741.965	0.0140979
742.043	0.0142131
742.121	0.0142705
742.200	0.0144340
742.278	0.0144506
742.356	0.0147015
742.434	0.0148909
742.512	0.0146340
742.590	0.0147271
742.668	0.0146862
742.746	0.0150000
742.825	0.0148899
742.903	0.0148744
742.981	0.0147932
743.059	0.0146947
743.137	0.0147475
743.215	0.0145962
743.293	0.0144597
743.371	0.0144051
743.450	0.0143975
743.528	0.0141708
743.606	0.0141990
743.684	0.0140550
743.762	0.0141129
743.840	0.0139935
743.918	0.0138425
743.996	0.0139000
744.075	0.0140022
744.153	0.0140606
744.231	0.0140712
744.309	0.0141126
744.387	0.0142528
744.465	0.0143818
744.543	0.0144655
744.621	0.0146538
744.700	0.0145596
744.778	0.0146032
744.856	0.0147687
744.934	0.0147739
745.012	0.0148354
745.090	0.0149691
745.168	0.0150002
745.246	0.0147952
745.325	0.0148129
745.403	0.0147652
745.481	0.0145707
745.559	0.0145058
745.637	0.0145274
745.715	0.0143137
745.793	0.0142183
745.871	0.0141418
745.950	0.0140820
746.028	0.0140112
746.106	0.0139841
746.184	0.0140639
746.262	0.0141295
746.340	0.0140860
746.418	0.0140051
746.496	0.0140601
746.575	0.0140525
746.653	0.0140896
746.731	0.0140930
746.809	0.0142289
746.887	0.0144621
746.965	0.0144176
747.043	0.0146011
747.121	0.0145752
747.200	0.0146011
747.278	0.0144985
747.356	0.0146173
747.434	0.0147762
747.512	0.0147186
747.590	0.0147990
747.668	0.0147879
747.746	0.0147829
747.825	0.0147932
747.903	0.0147780
747.981	0.0146243
748.059	0.0145338
748.137	0.0144917
748.215	0.0144411
748.293	0.0142290
748.371	0.0143188
748.450	0.0142116
748.528	0.0141237
748.606	0.0142411
748.684	0.0142103
748.762	0.0141637
748.840	0.0142210
748.918	0.0141518
748.996	0.0142755
749.075	0.0141795
749.153	0.0144151
749.231	0.0144329
749.309	0.0145368
749.387	0.0144536
749.465	0.0143489
749.543	0.0143273
749.621	0.0143929
749.700	0.0144998
749.778	0.0144379
749.856	0.0145477
749.934	0.0145631
750.012	0.0146564
750.090	0.0146175
750.168	0.0146915
750.246	0.0146021
750.325	0.0146143
750.403	0.0145369
750.481	0.0145657
750.559	0.0146259
750.637	0.0143507
750.715	0.0141056
750.793	0.0142093
750.871	0.0143479
750.950	0.0141894
751.028	0.0141789
751.106	0.0141830
751.184	0.0142329
751.262	0.0140430
751.340	0.0138708
751.418	0.0140040
751.496	0.0140517
751.575	0.0140668
751.653	0.0141052
751.731	0.0142509
751.809	0.0142271
751.887	0.0141848
751.965	0.0143037
752.043	0.0143243
752.121	0.0142920
752.200	0.0143809
752.278	0.0146040
752.356	0.0145588
752.434	0.0146639
752.512	0.0145545
752.590	0.0146491
752.668	0.0145912
752.746	0.0146469
752.825	0.0147874
752.903	0.0146890
752.981	0.0147086
753.059	0.0144105
753.137	0.0146108
753.215	0.0144547
753.293	0.0142832
753.371	0.0143124
753.450	0.0142359
753.528	0.0142532
753.606	0.0141042
753.684	0.0139565
753.762	0.0139714
753.840	0.0140298
753.918	0.0140246
753.996	0.0141585
754.075	0.0140981
754.153	0.0141207
754.231	0.0141475
754.309	0.0140471
754.387	0.0142705
754.465	0.0143000
754.543	0.0142878
754.621	0.0142776
754.700	0.0142612
754.778	0.0143347
754.856	0.0146236
754.934	0.0145784
755.012	0.0145685
755.090	0.0145883
755.168	0.0145586
755.246	0.0145185
755.325	0.0145841
755.403	0.0146192
755.481	0.0144750
755.559	0.0144505
755.637	0.0144645
755.715	0.0144579
755.793	0.0145223
755.871	0.0143369
755.950	0.0143741
756.028	0.0142335
756.106	0.0142520
756.184	0.0143168
756.262	0.0142358
756.340	0.0142364
756.418	0.0142883
756.496	0.0141894
756.575	0.0142852
756.653	0.0143764
756.731	0.0143571
756.809	0.0143014
756.887	0.0143918
756.965	0.0144315
757.043	0.0143625
757.121	0.0143289
757.200	0.0143707
757.278	0.0145209
757.356	0.0145147
757.434	0.0143217
757.512	0.0142933
757.590	0.0144183
757.668	0.0145174
757.746	0.0144533
757.825	0.0142981
757.903	0.0143498
757.981	0.0145556
758.059	0.0145022
758.137	0.0143807
758.215	0.0143465
758.293	0.0144838
758.371	0.0142913
758.450	0.0143817
758.528	0.0143064
758.606	0.0145265
758.684	0.0144402
758.762	0.0143457
758.840	0.0143604
758.918	0.0145432
758.996	0.0146482
759.075	0.0145274
759.153	0.0144846
759.231	0.0144759
759.309	0.0144081
759.387	0.0144618
759.465	0.0143426
759.543	0.0142879
759.621	0.0143801
759.700	0.0144790
759.778	0.0144804
759.856	0.0145531
759.934	0.0146265
760.012	0.0144574
760.090	0.0144845
760.168	0.0145795
760.246	0.0144813
760.325	0.0144733
760.403	0.0144067
760.481	0.0143964
760.559	0.0144603
760.637	0.0143989
760.715	0.0143472
760.793	0.0143284
760.871	0.0143333
760.950	0.0142395
761.028	0.0143063
761.106	0.0143095
761.184	0.0140701
761.262	0.0141875
761.340	0.0141136
761.418	0.0141167
761.496	0.0139756
761.575	0.0139854
761.653	0.0141348
761.731	0.0141586
761.809	0.0141141
761.887	0.0141176
761.965	0.0140699
762.043	0.0142134
762.121	0.0141138
762.200	0.0141064
762.278	0.0143394
762.356	0.0143865
762.434	0.0142973
762.512	0.0143840
762.590	0.0143265
762.668	0.0146085
762.746	0.0147040
762.825	0.0146473
762.903	0.0146327
762.981	0.0147525
763.059	0.0147318
763.137	0.0148164
763.215	0.0147899
763.293	0.0146885
763.371	0.0146393
763.450	0.0146333
763.528	0.0145972
763.606	0.0145019
763.684	0.0143420
763.762	0.0143113
763.840	0.0142188
763.918	0.0142626
763.996	0.0141914
764.075	0.0141915
764.153	0.0140778
764.231	0.0139500
764.309	0.0140958
764.387	0.0141438
764.465	0.0142006
764.543	0.0139953
764.621	0.0142397
764.700	0.0143214
764.778	0.0141997
764.856	0.0141436
764.934	0.0142867
765.012	0.0143964
765.090	0.0143147
765.168	0.0145438
765.246	0.0144195
765.325	0.0143987
765.403	0.0145686
765.481	0.0145643
765.559	0.0144374
765.637	0.0144495
765.715	0.0144735
765.793	0.0145397
765.871	0.0143732
765.950	0.0144821
766.028	0.0143934
766.106	0.0143922
766.184	0.0144242
766.262	0.0145219
766.340	0.0143684
766.418	0.0142886
766.496	0.0142715
766.575	0.0142644
766.653	0.0143633
766.731	0.0143475
766.809	0.0143298
766.887	0.0143240
766.965	0.0142252
767.043	0.0143049
767.121	0.0144081
767.200	0.0143987
767.278	0.0143544
767.356	0.0145021
767.434	0.0144604
767.512	0.0145148
767.590	0.0145386
767.668	0.0144916
767.746	0.0143774
767.825	0.0144923
767.903	0.0144118
767.981	0.0145414
768.059	0.0143261
768.137	0.0143594
768.215	0.0143310
768.293	0.0144045
768.371	0.0143545
768.450	0.0143514
768.528	0.0143590
768.606	0.0145237
768.684	0.0143658
768.762	0.0143100
768.840	0.0142978
768.918	0.0144204
768.996	0.0143713
769.075	0.0143903
769.153	0.0143822
769.231	0.0143754
769.309	0.0141420
769.387	0.0143250
769.465	0.0143819
769.543	0.0143184
769.621	0.0144080
769.700	0.0143025
769.778	0.0143713
769.856	0.0142751
769.934	0.0143861
770.012	0.0143181
770.090	0.0142826
770.168	0.0142648
770.246	0.0142724
770.325	0.0144415
770.403	0.0144482
770.481	0.0143220
770.559	0.0144590
770.637	0.0145502
770.715	0.0144518
770.793	0.0145127
770.871	0.0145172
770.950	0.0146402
771.028	0.0144551
771.106	0.0144640
771.184	0.0143997
771.262	0.0144356
771.340	0.0143620
771.418	0.0142294
771.496	0.0142992
771.575	0.0144096
771.653	0.0142819
771.731	0.0142049
771.809	0.0142041
771.887	0.0142527
771.965	0.0141295
772.043	0.0141945
772.121	0.0142035
772.200	0.0142573
772.278	0.0141855
772.356	0.0143045
772.434	0.0144373
772.512	0.0144058
772.590	0.0143501
772.668	0.0144130
772.746	0.0144868
772.825	0.0144300
772.903	0.0145458
772.981	0.0145468
773.059	0.0144923
773.137	0.0144727
773.215	0.0144460
773.293	0.0144980
773.371	0.0145430
773.450	0.0145527
773.528	0.0143903
773.606	0.0144987
773.684	0.0145390
773.762	0.0144925
773.840	0.0143948
773.918	0.0144069
773.996	0.0144287
774.075	0.0144212
774.153	0.0143589
774.231	0.0143584
774.309	0.0144189
774.387	0.0143604
774.465	0.0142690
774.543	0.0141998
774.621	0.0143347
774.700	0.0143223
774.778	0.0141790
774.856	0.0142844
774.934	0.0144839
775.012	0.0143115
775.090	0.0141920
775.168	0.0142902
775.246	0.0143394
775.325	0.0142992
775.403	0.0143352
775.481	0.0145027
775.559	0.0144302
775.637	0.0145230
775.715	0.0143793
775.793	0.0143551
775.871	0.0145308
775.950	0.0144841
776.028	0.0144549
776.106	0.0143990
776.184	0.0143542
776.262	0.0144145
776.340	0.0143184
776.418	0.0143791
776.496	0.0144283
776.575	0.0143288
776.653	0.0142575
776.731	0.0143233
776.809	0.0142542
776.887	0.0141999
776.965	0.0143005
777.043	0.0143215
777.121	0.0143905
777.200	0.0141694
777.278	0.0143155
777.356	0.0143251
777.434	0.0142651
777.512	0.0143371
777.590	0.0142561
777.668	0.0143655
777.746	0.0145112
777.825	0.0144511
777.903	0.0144146
777.981	0.0144353
778.059	0.0142872
778.137	0.0143025
778.215	0.0144164
778.293	0.0145225
778.371	0.0144505
778.450	0.0144637
778.528	0.0144252
778.606	0.0144299
778.684	0.0144186
778.762	0.0144750
778.840	0.0144211
778.918	0.0143306
778.996	0.0142969
779.075	0.0143053
779.153	0.0142258
779.231	0.0142931
779.309	0.0144521
779.387	0.0143655
779.465	0.0142918
779.543	0.0142533
779.621	0.0144637
779.700	0.0143636
779.778	0.0142637
779.856	0.0142999
779.934	0.0142548
780.012	0.0141375
780.090	0.0142570
780.168	0.0143330
780.246	0.0143585
780.325	0.0143295
780.403	0.0143065
780.481	0.0143488
780.559	0.0143744
780.637	0.0144038
780.715	0.0143658
780.793	0.0145948
780.871	0.0145421
780.950	0.0143082
781.028	0.0142098
781.106	0.0143254
781.184	0.0143802
781.262	0.0144270
781.340	0.0143759
781.418	0.0143151
781.496	0.0143567
781.575	0.0144505
781.653	0.0144593
781.731	0.0142150
781.809	0.0143044
781.887	0.0143537
781.965	0.0143146
782.043	0.0142666
782.121	0.0143327
782.200	0.0142925
782.278	0.0142910
782.356	0.0144024
782.434	0.0144982
782.512	0.0144702
782.590	0.0144236
782.668	0.0143716
782.746	0.0141590
782.825	0.0143454
782.903	0.0144993
782.981	0.0143669
783.059	0.0143803
783.137	0.0144257
783.215	0.0143798
783.293	0.0144629
783.371	0.0144027
783.450	0.0144528
783.528	0.0143818
783.606	0.0144231
783.684	0.0144524
783.762	0.0143957
783.840	0.0143479
783.918	0.0143879
783.996	0.0144980
784.075	0.0143522
784.153	0.0143318
784.231	0.0142529
784.309	0.0144891
784.387	0.0144534
784.465	0.0143572
784.543	0.0144435
784.621	0.0143524
784.700	0.0143769
784.778	0.0143471
784.856	0.0142658
784.934	0.0143658
785.012	0.0143183
785.090	0.0143219
785.168	0.0141967
785.246	0.0143166
785.325	0.0142863
785.403	0.0143470
785.481	0.0144466
785.559	0.0144798
785.637	0.0145752
785.715	0.0142638
785.793	0.0142944
785.871	0.0144062
785.950	0.0143666
786.028	0.0144379
786.106	0.0143297
786.184	0.0143176
786.262	0.0143829
786.340	0.0144350
786.418	0.0143850
786.496	0.0143102
786.575	0.0144002
786.653	0.0143066
786.731	0.0143235
786.809	0.0142860
786.887	0.0143945
786.965	0.0143408
787.043	0.0142758
787.121	0.0143730
787.200	0.0144459
787.278	0.0143124
787.356	0.0142915
787.434	0.0144363
787.512	0.0144312
787.590	0.0143907
787.668	0.0143327
787.746	0.0143675
787.825	0.0143827
787.903	0.0143965
787.981	0.0145457
788.059	0.0144357
788.137	0.0143815
788.215	0.0143555
788.293	0.0144617
788.371	0.0144656
788.450	0.0144443
788.528	0.0144491
788.606	0.0143964
788.684	0.0142127
788.762	0.0143782
788.840	0.0142271
788.918	0.0144332
788.996	0.0144312
789.075	0.0143722
789.153	0.0142692
789.231	0.0143693
789.309	0.0144651
789.387	0.0142036
789.465	0.0143857
789.543	0.0143013
789.621	0.0142133
789.700	0.0142501
789.778	0.0142628
789.856	0.0142232
789.934	0.0143816
790.012	0.0143053
790.090	0.0143414
790.168	0.0143729
790.246	0.0142475
790.325	0.0142137
790.403	0.0142909
790.481	0.0144054
790.559	0.0143468
790.637	0.0143640
790.715	0.0144749
790.793	0.0143780
790.871	0.0144674
790.950	0.0143498
791.028	0.0143326
791.106	0.0143642
791.184	0.0143867
791.262	0.0144599
791.340	0.0145283
791.418	0.0143883
791.496	0.0144302
791.575	0.0144460
791.653	0.0143519
791.731	0.0143977
791.809	0.0143421
791.887	0.0143233
791.965	0.0145185
792.043	0.0143906
792.121	0.0144411
792.200	0.0144731
792.278	0.0144218
792.356	0.0142918
792.434	0.0144357
792.512	0.0142262
792.590	0.0143929
792.668	0.0143845
792.746	0.0143117
792.825	0.0142749
792.903	0.0143559
792.981	0.0143584
793.059	0.0141840
793.137	0.0143598
793.215	0.0143306
793.293	0.0143194
793.371	0.0143461
793.450	0.0141786
793.528	0.0142887
793.606	0.0142433
793.684	0.0142548
793.762	0.0142779
793.840	0.0143920
793.918	0.0143549
793.996	0.0144034
794.075	0.0142697
794.153	0.0143324
794.231	0.0143732
794.309	0.0143216
794.387	0.0142075
794.465	0.0143404
794.543	0.0143240
794.621	0.0143031
794.700	0.0143737
794.778	0.0143643
794.856	0.0143811
794.934	0.0143886
795.012	0.0144163
795.090	0.0144411
795.168	0.0143018
795.246	0.0144457
795.325	0.0144131
795.403	0.0143363
795.481	0.0143896
795.559	0.0143884
795.637	0.0144415
795.715	0.0142941
795.793	0.0144348
795.871	0.0143775
795.950	0.0144478
796.028	0.0144738
796.106	0.0144057
796.184	0.0145457
796.262	0.0144571
796.340	0.0143519
796.418	0.0143831
796.496	0.0143987
796.575	0.0143981
796.653	0.0144375
796.731	0.0144098
796.809	0.0143988
796.887	0.0143816
796.965	0.0142944
797.043	0.0143527
797.121	0.0142431
797.200	0.0142686
797.278	0.0144163
797.356	0.0142815
797.434	0.0142877
797.512	0.0144121
797.590	0.0142751
797.668	0.0143462
797.746	0.0142857
797.825	0.0142910
797.903	0.0145382
797.981	0.0142300
798.059	0.0143835
798.137	0.0142650
798.215	0.0144131
798.293	0.0143380
798.371	0.0141980
798.450	0.0143993
798.528	0.0144127
798.606	0.0145067
798.684	0.0144609
798.762	0.0144509
798.840	0.0143302
798.918	0.0143864
798.996	0.0144890
799.075	0.0143859
799.153	0.0144102
799.231	0.0145324
799.309	0.0143864
799.387	0.0144231
799.465	0.0143816
799.543	0.0144184
799.621	0.0144541
799.700	0.0143870
799.778	0.0143507
799.856	0.0143716
799.934	0.0144897
800.012	0.0145016
800.090	0.0144560
800.168	0.0143575
800.246	0.0143594
800.325	0.0143109
800.403	0.0142817
800.481	0.0143578
800.559	0.0143634
800.637	0.0143997
800.715	0.0142892
800.793	0.0143680
800.871	0.0141373
800.950	0.0142682
801.028	0.0143198
801.106	0.0143071
801.184	0.0142748
801.262	0.0142595
801.340	0.0142857
801.418	0.0143657
801.496	0.0145936
801.575	0.0144754
801.653	0.0145263
801.731	0.0144186
801.809	0.0143789
801.887	0.0145523
801.965	0.0144383
802.043	0.0144043
802.121	0.0144280
802.200	0.0144990
802.278	0.0144946
802.356	0.0143466
802.434	0.0145482
802.512	0.0145602
802.590	0.0143324
802.668	0.0144538
802.746	0.0144707
802.825	0.0143986
802.903	0.0144673
802.981	0.0144456
803.059	0.0143896
803.137	0.0144392
803.215	0.0143244
803.293	0.0143555
803.371	0.0144012
803.450	0.0143643
803.528	0.0142642
803.606	0.0144961
803.684	0.0143172
803.762	0.0144093
803.840	0.0144020
803.918	0.0144411
803.996	0.0144096
804.075	0.0143503
804.153	0.0144380
804.231	0.0142772
804.309	0.0143584
804.387	0.0145494
804.465	0.0145358
804.543	0.0145018
804.621	0.0143688
804.700	0.0145380
804.778	0.0144485
804.856	0.0145040
804.934	0.0144927
805.012	0.0145146
805.090	0.0144492
805.168	0.0144485
805.246	0.0143423
805.325	0.0144110
805.403	0.0142773
805.481	0.0142994
805.559	0.0143274
805.637	0.0143838
805.715	0.0142815
805.793	0.0142033
805.871	0.0141518
805.950	0.0142086
806.028	0.0142847
806.106	0.0142918
806.184	0.0143147
806.262	0.0143027
806.340	0.0143275
806.418	0.0143921
806.496	0.0143001
806.575	0.0144414
806.653	0.0144125
806.731	0.0143771
806.809	0.0144816
806.887	0.0144832
806.965	0.0146591
807.043	0.0145570
807.121	0.0145737
807.200	0.0144788
807.278	0.0145696
807.356	0.0146259
807.434	0.0145304
807.512	0.0146684
807.590	0.0146515
807.668	0.0146291
807.746	0.0146460
807.825	0.0144849
807.903	0.0144195
807.981	0.0145174
808.059	0.0143491
808.137	0.0143528
808.215	0.0143404
808.293	0.0143816
808.371	0.0144614
808.450	0.0143861
808.528	0.0142031
808.606	0.0143851
808.684	0.0143029
808.762	0.0143404
808.840	0.0142300
808.918	0.0143108
808.996	0.0142634
809.075	0.0142898
809.153	0.0141532
809.231	0.0141026
809.309	0.0142361
809.387	0.0142252
809.465	0.0142733
809.543	0.0143418
809.621	0.0143209
809.700	0.0143450
809.778	0.0144307
809.856	0.0145414
809.934	0.0145193
810.012	0.0144803
810.090	0.0144044
810.168	0.0144571
810.246	0.0145192
810.325	0.0144710
810.403	0.0144892
810.481	0.0145355
810.559	0.0144781
810.637	0.0144973
810.715	0.0143055
810.793	0.0143251
810.871	0.0142955
810.950	0.0143816
811.028	0.0142722
811.106	0.0143948
811.184	0.0143726
811.262	0.0142793
811.340	0.0142664
811.418	0.0143284
811.496	0.0143459
811.575	0.0141962
811.653	0.0142367
811.731	0.0142646
811.809	0.0142213
811.887	0.0142616
811.965	0.0144145
812.043	0.0143568
812.121	0.0142877
812.200	0.0143394
812.278	0.0144591
812.356	0.0144149
812.434	0.0142871
812.512	0.0144694
812.590	0.0144686
812.668	0.0145849
812.746	0.0145034
812.825	0.0145765
812.903	0.0145076
812.981	0.0142892
813.059	0.0144701
813.137	0.0144839
813.215	0.0143333
813.293	0.0143430
813.371	0.0143044
813.450	0.0144456
813.528	0.0143391
813.606	0.0142224
813.684	0.0143607
813.762	0.0144242
813.840	0.0142520
813.918	0.0143037
813.996	0.0143312
814.075	0.0143751
814.153	0.0142983
814.231	0.0142410
814.309	0.0143276
814.387	0.0143633
814.465	0.0144646
814.543	0.0142809
814.621	0.0144093
814.700	0.0144604
814.778	0.0144811
814.856	0.0145232
814.934	0.0144079
815.012	0.0142848
815.090	0.0143972
815.168	0.0144347
815.246	0.0144602
815.325	0.0144122
815.403	0.0143971
815.481	0.0145661
815.559	0.0143748
815.637	0.0143942
815.715	0.0143626
815.793	0.0144419
815.871	0.0144028
815.950	0.0145094
816.028	0.0143929
816.106	0.0143527
816.184	0.0144648
816.262	0.0144044
816.340	0.0144073
816.418	0.0143405
816.496	0.0142975
816.575	0.0142614
816.653	0.0143488
816.731	0.0142637
816.809	0.0142661
816.887	0.0143346
816.965	0.0143227
817.043	0.0142294
817.121	0.0143495
817.200	0.0143984
817.278	0.0143543
817.356	0.0143513
817.434	0.0143421
817.512	0.0143947
817.590	0.0144086
817.668	0.0143831
817.746	0.0143066
817.825	0.0144628
817.903	0.0144162
817.981	0.0143024
818.059	0.0142983
818.137	0.0143613
818.215	0.0143514
818.293	0.0143887
818.371	0.0142857
818.450	0.0144102
818.528	0.0143262
818.606	0.0142920
818.684	0.0143355
818.762	0.0144117
818.840	0.0143822
818.918	0.0143405
818.996	0.0143674
819.075	0.0142059
819.153	0.0143905
819.231	0.0143149
819.309	0.0142619
819.387	0.0144363
819.465	0.0142828
819.543	0.0142104
819.621	0.0142944
819.700	0.0142978
819.778	0.0142699
819.856	0.0143702
819.934	0.0142320
820.012	0.0142559
820.090	0.0143215
820.168	0.0143784
820.246	0.0143089
820.325	0.0143906
820.403	0.0142857
820.481	0.0143980
820.559	0.0141589
820.637	0.0142535
820.715	0.0144888
820.793	0.0143855
820.871	0.0143408
820.950	0.0144344
821.028	0.0143575
821.106	0.0143404
821.184	0.0144800
821.262	0.0144532
821.340	0.0144419
821.418	0.0144526
821.496	0.0143121
821.575	0.0144595
821.653	0.0145190
821.731	0.0143051
821.809	0.0144501
821.887	0.0144030
821.965	0.0144254
822.043	0.0142772
822.121	0.0142085
822.200	0.0143381
822.278	0.0142128
822.356	0.0143160
822.434	0.0145053
822.512	0.0141911
822.590	0.0143817
822.668	0.0143352
822.746	0.0143490
822.825	0.0142027
822.903	0.0142956
822.981	0.0143611
823.059	0.0143954
823.137	0.0143443
823.215	0.0142767
823.293	0.0143941
823.371	0.0145042
823.450	0.0144118
823.528	0.0143705
823.606	0.0143457
823.684	0.0143864
823.762	0.0144134
823.840	0.0143621
823.918	0.0143806
823.996	0.0143506
824.075	0.0144106
824.153	0.0142842
824.231	0.0143654
824.309	0.0142958
824.387	0.0143016
824.465	0.0143789
824.543	0.0143682
824.621	0.0143872
824.700	0.0143169
824.778	0.0144407
824.856	0.0143143
824.934	0.0144342
825.012	0.0144522
825.090	0.0143910
825.168	0.0144427
825.246	0.0143650
825.325	0.0144492
825.403	0.0145293
825.481	0.0143301
825.559	0.0144726
825.637	0.0144650
825.715	0.0143520
825.793	0.0142680
825.871	0.0143478
825.950	0.0143222
826.028	0.0143441
826.106	0.0142722
826.184	0.0142937
826.262	0.0144234
826.340	0.0143323
826.418	0.0143294
826.496	0.0143340
826.575	0.0143837
826.653	0.0144129
826.731	0.0143608
826.809	0.0142280
826.887	0.0143240
826.965	0.0144253
827.043	0.0142887
827.121	0.0143984
827.200	0.0143946
827.278	0.0144215
827.356	0.0144419
827.434	0.0143807
827.512	0.0144524
827.590	0.0143280
827.668	0.0144246
827.746	0.0144370
827.825	0.0143925
827.903	0.0144718
827.981	0.0144106
828.059	0.0143457
828.137	0.0143823
828.215	0.0143958
828.293	0.0145641
828.371	0.0143639
828.450	0.0144084
828.528	0.0143266
828.606	0.0144674
828.684	0.0144228
828.762	0.0144462
828.840	0.0144670
828.918	0.0145049
828.996	0.0142280
829.075	0.0144530
829.153	0.0144862
829.231	0.0143710
829.309	0.0143934
829.387	0.0143803
829.465	0.0144786
829.543	0.0143863
829.621	0.0144462
829.700	0.0143667
829.778	0.0143369
829.856	0.0143221
829.934	0.0142523
830.012	0.0143826
830.090	0.0142551
830.168	0.0143898
830.246	0.0145443
830.325	0.0144648
830.403	0.0144519
830.481	0.0143100
830.559	0.0143584
830.637	0.0142989
830.715	0.0144176
830.793	0.0144520
830.871	0.0144353
830.950	0.0143416
831.028	0.0142133
831.106	0.0144716
831.184	0.0144906
831.262	0.0143538
831.340	0.0143913
831.418	0.0143087
831.496	0.0143491
831.575	0.0143379
831.653	0.0144159
831.731	0.0142756
831.809	0.0143623
831.887	0.0143615
831.965	0.0143716
832.043	0.0143932
832.121	0.0143639
832.200	0.0144345
832.278	0.0144717
832.356	0.0144041
832.434	0.0142838
832.512	0.0143295
832.590	0.0144168
832.668	0.0143324
832.746	0.0143723
832.825	0.0143501
832.903	0.0143643
832.981	0.0142872
833.059	0.0144078
833.137	0.0143975
833.215	0.0143459
833.293	0.0143787
833.371	0.0143502
833.450	0.0144477
833.528	0.0143507
833.606	0.0144376
833.684	0.0143793
833.762	0.0145406
833.840	0.0143149
833.918	0.0141777
833.996	0.0144338
834.075	0.0144112
834.153	0.0142880
834.231	0.0143102
834.309	0.0144162
834.387	0.0142726
834.465	0.0142477
834.543	0.0141975
834.621	0.0142834
834.700	0.0144192
834.778	0.0142384
834.856	0.0143890
834.934	0.0145201
835.012	0.0143715
835.090	0.0144494
835.168	0.0144231
835.246	0.0145508
835.325	0.0145035
835.403	0.0144511
835.481	0.0142934
835.559	0.0143414
835.637	0.0144871
835.715	0.0143909
835.793	0.0143977
835.871	0.0144421
835.950	0.0143286
836.028	0.0144145
836.106	0.0143315
836.184	0.0143274
836.262	0.0143894
836.340	0.0145457
836.418	0.0145390
836.496	0.0144288
836.575	0.0144572
836.653	0.0144461
836.731	0.0143479
836.809	0.0145795
836.887	0.0145903
836.965	0.0145522
837.043	0.0144965
837.121	0.0143393
837.200	0.0144581
837.278	0.0143754
837.356	0.0144827
837.434	0.0142606
837.512	0.0142098
837.590	0.0143441
837.668	0.0143930
837.746	0.0143612
837.825	0.0144711
837.903	0.0144528
837.981	0.0144106
838.059	0.0142291
838.137	0.0143462
838.215	0.0143600
838.293	0.0142947
838.371	0.0143282
838.450	0.0143102
838.528	0.0143300
838.606	0.0144636
838.684	0.0143253
838.762	0.0143676
838.840	0.0142664
838.918	0.0143484
838.996	0.0143781
839.075	0.0143417
839.153	0.0144514
839.231	0.0144210
839.309	0.0144231
839.387	0.0145464
839.465	0.0144343
839.543	0.0145057
839.621	0.0143896
839.700	0.0143588
839.778	0.0144237
839.856	0.0144226
839.934	0.0144225
840.012	0.0143359
840.090	0.0142793
840.168	0.0144273
840.246	0.0144400
840.325	0.0143127
840.403	0.0142593
840.481	0.0142622
840.559	0.0143460
840.637	0.0143636
840.715	0.0142300
840.793	0.0144326
840.871	0.0143620
840.950	0.0143367
841.028	0.0145076
841.106	0.0142984
841.184	0.0144730
841.262	0.0142724
841.340	0.0142748
841.418	0.0142460
841.496	0.0143068
841.575	0.0143356
841.653	0.0142429
841.731	0.0142283
841.809	0.0143861
841.887	0.0142068
841.965	0.0143430
842.043	0.0143633
842.121	0.0142322
842.200	0.0143168
842.278	0.0144985
842.356	0.0144332
842.434	0.0143880
842.512	0.0144915
842.590	0.0144810
842.668	0.0145436
842.746	0.0144316
842.825	0.0143382
842.903	0.0144933
842.981	0.0143272
843.059	0.0143598
843.137	0.0144073
843.215	0.0143846
843.293	0.0143619
843.371	0.0143568
843.450	0.0143571
843.528	0.0142890
843.606	0.0142857
843.684	0.0144887
843.762	0.0144608
843.840	0.0143168
843.918	0.0143078
843.996	0.0143585
844.075	0.0144522
844.153	0.0145383
844.231	0.0144549
844.309	0.0143105
844.387	0.0144154
844.465	0.0143930
844.543	0.0143270
844.621	0.0143761
844.700	0.0142705
844.778	0.0143515
844.856	0.0144141
844.934	0.0143449
845.012	0.0143702
845.090	0.0144978
845.168	0.0144460
845.246	0.0143073
845.325	0.0143016
845.403	0.0144307
845.481	0.0143808
845.559	0.0143613
845.637	0.0145313
845.715	0.0144444
845.793	0.0145368
845.871	0.0143980
845.950	0.0143029
846.028	0.0145081
846.106	0.0144891
846.184	0.0143328
846.262	0.0144075
846.340	0.0144379
846.418	0.0144652
846.496	0.0144672
846.575	0.0143819
846.653	0.0143774
846.731	0.0145299
846.809	0.0143749
846.887	0.0143797
846.965	0.0145582
847.043	0.0144707
847.121	0.0145974
847.200	0.0144397
847.278	0.0144148
847.356	0.0143333
847.434	0.0144088
847.512	0.0144048
847.590	0.0144443
847.668	0.0143175
847.746	0.0143697
847.825	0.0143112
847.903	0.0142935
847.981	0.0142606
848.059	0.0140138
848.137	0.0142170
848.215	0.0143076
848.293	0.0141932
848.371	0.0143278
848.450	0.0143561
848.528	0.0144835
848.606	0.0143079
848.684	0.0143819
848.762	0.0143568
848.840	0.0145226
848.918	0.0145211
848.996	0.0144688
849.075	0.0145089
849.153	0.0144051
849.231	0.0144632
849.309	0.0144677
849.387	0.0145600
849.465	0.0144090
849.543	0.0143436
849.621	0.0144671
849.700	0.0145705
849.778	0.0144682
849.856	0.0142795
849.934	0.0143549
850.012	0.0142758
850.090	0.0143238
850.168	0.0143432
850.246	0.0143461
850.325	0.0143593
850.403	0.0142558
850.481	0.0142996
850.559	0.0141649
850.637	0.0144466
850.715	0.0142781
850.793	0.0142998
850.871	0.0143395
850.950	0.0142570
851.028	0.0143968
851.106	0.0143137
851.184	0.0142789
851.262	0.0143816
851.340	0.0143925
851.418	0.0143979
851.496	0.0143484
851.575	0.0143659
851.653	0.0143749
851.731	0.0143786
851.809	0.0144018
851.887	0.0145530
851.965	0.0144138
852.043	0.0143938
852.121	0.0144193
852.200	0.0146170
852.278	0.0145113
852.356	0.0144352
852.434	0.0143700
852.512	0.0143509
852.590	0.0144433
852.668	0.0144183
852.746	0.0144065
852.825	0.0143668
852.903	0.0142344
852.981	0.0142532
853.059	0.0143355
853.137	0.0142988
853.215	0.0143239
853.293	0.0143661
853.371	0.0143530
853.450	0.0142274
853.528	0.0143473
853.606	0.0143848
853.684	0.0143475
853.762	0.0144285
853.840	0.0143970
853.918	0.0144015
853.996	0.0143694
854.075	0.0144503
854.153	0.0141817
854.231	0.0143996
854.309	0.0144028
854.387	0.0143063
854.465	0.0144899
854.543	0.0145004
854.621	0.0144474
854.700	0.0144084
854.778	0.0143970
854.856	0.0143229
854.934	0.0144637
855.012	0.0144085
855.090	0.0143263
855.168	0.0142606
855.246	0.0145380
855.325	0.0145470
855.403	0.0143836
855.481	0.0143436
855.559	0.0143816
855.637	0.0143404
855.715	0.0144118
855.793	0.0144550
855.871	0.0145032
855.950	0.0142841
856.028	0.0142513
856.106	0.0143768
856.184	0.0144068
856.262	0.0142270
856.340	0.0142632
856.418	0.0144337
856.496	0.0143180
856.575	0.0144186
856.653	0.0144645
856.731	0.0143390
856.809	0.0142930
856.887	0.0144485
856.965	0.0144210
857.043	0.0145152
857.121	0.0144477
857.200	0.0142771
857.278	0.0144637
857.356	0.0143954
857.434	0.0143869
857.512	0.0143128
857.590	0.0142248
857.668	0.0142702
857.746	0.0142281
857.825	0.0143786
857.903	0.0142976
857.981	0.0143022
858.059	0.0143375
858.137	0.0144370
858.215	0.0143710
858.293	0.0142414
858.371	0.0144196
858.450	0.0144301
858.528	0.0144436
858.606	0.0144473
858.684	0.0144173
858.762	0.0144863
858.840	0.0144133
858.918	0.0144056
858.996	0.0144031
859.075	0.0143839
859.153	0.0144377
859.231	0.0143539
859.309	0.0143382
859.387	0.0144029
859.465	0.0144395
859.543	0.0145083
859.621	0.0143301
859.700	0.0142743
859.778	0.0143295
859.856	0.0144138
859.934	0.0145325
860.012	0.0143855
860.090	0.0143310
860.168	0.0144746
860.246	0.0143640
860.325	0.0143512
860.403	0.0143208
860.481	0.0141837
860.559	0.0142717
860.637	0.0144822
860.715	0.0143142
860.793	0.0143468
860.871	0.0143109
860.950	0.0143386
861.028	0.0143723
861.106	0.0143048
861.184	0.0143579
861.262	0.0145065
861.340	0.0143991
861.418	0.0143728
861.496	0.0143319
861.575	0.0144273
861.653	0.0143651
861.731	0.0144994
861.809	0.0143630
861.887	0.0143708
861.965	0.0144205
862.043	0.0142758
862.121	0.0142995
862.200	0.0143653
862.278	0.0143581
862.356	0.0142737
862.434	0.0144167
862.512	0.0143480
862.590	0.0142670
862.668	0.0142944
862.746	0.0142779
862.825	0.0144701
862.903	0.0143465
862.981	0.0144716
863.059	0.0144911
863.137	0.0144878
863.215	0.0145465
863.293	0.0144461
863.371	0.0143507
863.450	0.0144270
863.528	0.0144063
863.606	0.0143412
863.684	0.0143934
863.762	0.0144749
863.840	0.0142825
863.918	0.0143338
863.996	0.0143633
864.075	0.0142439
864.153	0.0141410
864.231	0.0141983
864.309	0.0142685
864.387	0.0141779
864.465	0.0143577
864.543	0.0144461
864.621	0.0142678
864.700	0.0141800
864.778	0.0142903
864.856	0.0143701
864.934	0.0141851
865.012	0.0142595
865.090	0.0143945
865.168	0.0143324
865.246	0.0143803
865.325	0.0144078
865.403	0.0142184
865.481	0.0142451
865.559	0.0143885
865.637	0.0143345
865.715	0.0143405
865.793	0.0143101
865.871	0.0142434
865.950	0.0144784
866.028	0.0144617
866.106	0.0143954
866.184	0.0144294
866.262	0.0145944
866.340	0.0144324
866.418	0.0144324
866.496	0.0142885
866.575	0.0143114
866.653	0.0146312
866.731	0.0142733
866.809	0.0142924
866.887	0.0142658
866.965	0.0143868
867.043	0.0143313
867.121	0.0143256
867.200	0.0142796
867.278	0.0143970
867.356	0.0143074
867.434	0.0142389
867.512	0.0143110
867.590	0.0143195
867.668	0.0143877
867.746	0.0142869
867.825	0.0144073
867.903	0.0144111
867.981	0.0143554
868.059	0.0144395
868.137	0.0143195
868.215	0.0143018
868.293	0.0144719
868.371	0.0144032
868.450	0.0143964
868.528	0.0143296
868.606	0.0143094
868.684	0.0143386
868.762	0.0142507
868.840	0.0142908
868.918	0.0143089
868.996	0.0142422
869.075	0.0143468
869.153	0.0143830
869.231	0.0144156
869.309	0.0143125
869.387	0.0142937
869.465	0.0143437
869.543	0.0144473
869.621	0.0143161
869.700	0.0143151
869.778	0.0144440
869.856	0.0143720
869.934	0.0142501
870.012	0.0142709
870.090	0.0144592
870.168	0.0142996
870.246	0.0145226
870.325	0.0142854
870.403	0.0144805
870.481	0.0142992
870.559	0.0144405
870.637	0.0144378
870.715	0.0144319
870.793	0.0143467
870.871	0.0144865
870.950	0.0144677
871.028	0.0145406
871.106	0.0142601
871.184	0.0143574
871.262	0.0144277
871.340	0.0145798
871.418	0.0143378
871.496	0.0142606
871.575	0.0142053
871.653	0.0143046
871.731	0.0144104
871.809	0.0143452
871.887	0.0143469
871.965	0.0143185
872.043	0.0142612
872.121	0.0142745
872.200	0.0143520
872.278	0.0143265
872.356	0.0143419
872.434	0.0142947
872.512	0.0143223
872.590	0.0143127
872.668	0.0143743
872.746	0.0144389
872.825	0.0142406
872.903	0.0143429
872.981	0.0143935
873.059	0.0143272
873.137	0.0143742
873.215	0.0144346
873.293	0.0144348
873.371	0.0144434
873.450	0.0143990
873.528	0.0144708
873.606	0.0143983
873.684	0.0143663
873.762	0.0144218
873.840	0.0145253
873.918	0.0144133
873.996	0.0144777
874.075	0.0144162
874.153	0.0144913
874.231	0.0145644
874.309	0.0144120
874.387	0.0145354
874.465	0.0144456
874.543	0.0144887
874.621	0.0144443
874.700	0.0143296
874.778	0.0144950
874.856	0.0144980
874.934	0.0144418
875.012	0.0143771
875.090	0.0143194
875.168	0.0142467
875.246	0.0143179
875.325	0.0144493
875.403	0.0142709
875.481	0.0143938
875.559	0.0143380
875.637	0.0143552
875.715	0.0144000
875.793	0.0142991
875.871	0.0143729
875.950	0.0143683
876.028	0.0144147
876.106	0.0142626
876.184	0.0144637
876.262	0.0143958
876.340	0.0143618
876.418	0.0144001
876.496	0.0142620
876.575	0.0143044
876.653	0.0143496
876.731	0.0143857
876.809	0.0143671
876.887	0.0143689
876.965	0.0144093
877.043	0.0143951
877.121	0.0144313
877.200	0.0144252
877.278	0.0144755
877.356	0.0145213
877.434	0.0143381
877.512	0.0143817
877.590	0.0144017
877.668	0.0143977
877.746	0.0144620
877.825	0.0145774
877.903	0.0144237
877.981	0.0143353
878.059	0.0143410
878.137	0.0143606
878.215	0.0143530
878.293	0.0143050
878.371	0.0145148
878.450	0.0143135
878.528	0.0144363
878.606	0.0145444
878.684	0.0144746
878.762	0.0143475
878.840	0.0143877
878.918	0.0142474
878.996	0.0143150
879.075	0.0143310
879.153	0.0143008
879.231	0.0144096
879.309	0.0145036
879.387	0.0144873
879.465	0.0144985
879.543	0.0144493
879.621	0.0145313
879.700	0.0144008
879.778	0.0144383
879.856	0.0143575
879.934	0.0143258
880.012	0.0144963
880.090	0.0143228
880.168	0.0144731
880.246	0.0145567
880.325	0.0144529
880.403	0.0143917
880.481	0.0143922
880.559	0.0143413
880.637	0.0143909
880.715	0.0143632
880.793	0.0143005
880.871	0.0143359
880.950	0.0144296
881.028	0.0143407
881.106	0.0144072
881.184	0.0143684
881.262	0.0144052
881.340	0.0144615
881.418	0.0143780
881.496	0.0144463
881.575	0.0143922
881.653	0.0143683
881.731	0.0145177
881.809	0.0145198
881.887	0.0144415
881.965	0.0144746
882.043	0.0144443
882.121	0.0143587
882.200	0.0144140
882.278	0.0144099
882.356	0.0143374
882.434	0.0145355
882.512	0.0142719
882.590	0.0143192
882.668	0.0143674
882.746	0.0143890
882.825	0.0143449
882.903	0.0144837
882.981	0.0143848
883.059	0.0144415
883.137	0.0142702
883.215	0.0144201
883.293	0.0142603
883.371	0.0141956
883.450	0.0142153
883.528	0.0142857
883.606	0.0144047
883.684	0.0143299
883.762	0.0143278
883.840	0.0143053
883.918	0.0144182
883.996	0.0144309
884.075	0.0143491
884.153	0.0145250
884.231	0.0142757
884.309	0.0143721
884.387	0.0144123
884.465	0.0143935
884.543	0.0143415
884.621	0.0144866
884.700	0.0144549
884.778	0.0144324
884.856	0.0143172
884.934	0.0143902
885.012	0.0143625
885.090	0.0143324
885.168	0.0144312
885.246	0.0144930
885.325	0.0143536
885.403	0.0143923
885.481	0.0143368
885.559	0.0143510
885.637	0.0142027
885.715	0.0142534
885.793	0.0142953
885.871	0.0142992
885.950	0.0144031
886.028	0.0143887
886.106	0.0143582
886.184	0.0141914
886.262	0.0143819
886.340	0.0144122
886.418	0.0143229
886.496	0.0143796
886.575	0.0143575
886.653	0.0144225
886.731	0.0143481
886.809	0.0143889
886.887	0.0144212
886.965	0.0143657
887.043	0.0143056
887.121	0.0144154
887.200	0.0143684
887.278	0.0143681
887.356	0.0143184
887.434	0.0142786
887.512	0.0141761
887.590	0.0143161
887.668	0.0144242
887.746	0.0144154
887.825	0.0143913
887.903	0.0143535
887.981	0.0143180
888.059	0.0143478
888.137	0.0143275
888.215	0.0143060
888.293	0.0143410
888.371	0.0143024
888.450	0.0144070
888.528	0.0142711
888.606	0.0143247
888.684	0.0143969
888.762	0.0144335
888.840	0.0143481
888.918	0.0143171
888.996	0.0143279
889.075	0.0143975
889.153	0.0143629
889.231	0.0143208
889.309	0.0143880
889.387	0.0144564
889.465	0.0143662
889.543	0.0145672
889.621	0.0144434
889.700	0.0144361
889.778	0.0144315
889.856	0.0143810
889.934	0.0144314
890.012	0.0143828
890.090	0.0143482
890.168	0.0143709
890.246	0.0144766
890.325	0.0143616
890.403	0.0142831
890.481	0.0142944
890.559	0.0144296
890.637	0.0143212
890.715	0.0142551
890.793	0.0142614
890.871	0.0143307
890.950	0.0143431
891.028	0.0143858
891.106	0.0143700
891.184	0.0143386
891.262	0.0143010
891.340	0.0143660
891.418	0.0144206
891.496	0.0143778
891.575	0.0144394
891.653	0.0144077
891.731	0.0144370
891.809	0.0143782
891.887	0.0144688
891.965	0.0145316
892.043	0.0145702
892.121	0.0143657
892.200	0.0144379
892.278	0.0144275
892.356	0.0144046
892.434	0.0143903
892.512	0.0143987
892.590	0.0144729
892.668	0.0144646
892.746	0.0143031
892.825	0.0142044
892.903	0.0141923
892.981	0.0142162
893.059	0.0143100
893.137	0.0142212
893.215	0.0142085
893.293	0.0141827
893.371	0.0142892
893.450	0.0143625
893.528	0.0143192
893.606	0.0143679
893.684	0.0143441
893.762	0.0144515
893.840	0.0144041
893.918	0.0145055
893.996	0.0145311
894.075	0.0145673
894.153	0.0144959
894.231	0.0145676
894.309	0.0144040
894.387	0.0145528
894.465	0.0144815
894.543	0.0144698
894.621	0.0144722
894.700	0.0145091
894.778	0.0144942
894.856	0.0144981
894.934	0.0143875
895.012	0.0142185
895.090	0.0142694
895.168	0.0142627
895.246	0.0144659
895.325	0.0142782
895.403	0.0142343
895.481	0.0143473
895.559	0.0142719
895.637	0.0143015
895.715	0.0144242
895.793	0.0142072
895.871	0.0143295
895.950	0.0142992
896.028	0.0144521
896.106	0.0143528
896.184	0.0142661
896.262	0.0143504
896.340	0.0143398
896.418	0.0145760
896.496	0.0145870
896.575	0.0145203
896.653	0.0144031
896.731	0.0142340
896.809	0.0143523
896.887	0.0143270
896.965	0.0142923
897.043	0.0143494
897.121	0.0144376
897.200	0.0143949
897.278	0.0143529
897.356	0.0143127
897.434	0.0144022
897.512	0.0144505
897.590	0.0143743
897.668	0.0144092
897.746	0.0144836
897.825	0.0144189
897.903	0.0143895
897.981	0.0143489
898.059	0.0144343
898.137	0.0142603
898.215	0.0142843
898.293	0.0143210
898.371	0.0142749
898.450	0.0142473
898.528	0.0142110
898.606	0.0142808
898.684	0.0142380
898.762	0.0142144
898.840	0.0142390
898.918	0.0140747
898.996	0.0142213
899.075	0.0143382
899.153	0.0144385
899.231	0.0143680
899.309	0.0143708
899.387	0.0144128
899.465	0.0144804
899.543	0.0144726
899.621	0.0144676
899.700	0.0146242
899.778	0.0145924
899.856	0.0144966
899.934	0.0144892
900.012	0.0146263
900.090	0.0146702
900.168	0.0145824
900.246	0.0144134
900.325	0.0143639
900.403	0.0145861
900.481	0.0144505
900.559	0.0144721
900.637	0.0143250
900.715	0.0144693
900.793	0.0142408
900.871	0.0142640
900.950	0.0144255
901.028	0.0142233
901.106	0.0142616
901.184	0.0143837
901.262	0.0142213
901.340	0.0141602
901.418	0.0143484
901.496	0.0143421
901.575	0.0144130
901.653	0.0143118
901.731	0.0143426
901.809	0.0143665
901.887	0.0146117
901.965	0.0144698
902.043	0.0144629
902.121	0.0146272
902.200	0.0145567
902.278	0.0146074
902.356	0.0146559
902.434	0.0145827
902.512	0.0145236
902.590	0.0145395
902.668	0.0145852
902.746	0.0144600
902.825	0.0144615
902.903	0.0144781
902.981	0.0143753
903.059	0.0143740
903.137	0.0144263
903.215	0.0143046
903.293	0.0142245
903.371	0.0142404
903.450	0.0143581
903.528	0.0142393
903.606	0.0144015
903.684	0.0145300
903.762	0.0145214
903.840	0.0144456
903.918	0.0142809
903.996	0.0143427
904.075	0.0144391
904.153	0.0143151
904.231	0.0143121
904.309	0.0143706
904.387	0.0143187
904.465	0.0144573
904.543	0.0143407
904.621	0.0144013
904.700	0.0143935
904.778	0.0143409
904.856	0.0143648
904.934	0.0143775
905.012	0.0144977
905.090	0.0144083
905.168	0.0145441
905.246	0.0146937
905.325	0.0145242
905.403	0.0144489
905.481	0.0145827
905.559	0.0145167
905.637	0.0145089
905.715	0.0144933
905.793	0.0145016
905.871	0.0144994
905.950	0.0144466
906.028	0.0144603
906.106	0.0143972
906.184	0.0144483
906.262	0.0145164
906.340	0.0144370
906.418	0.0143828
906.496	0.0143063
906.575	0.0143806
906.653	0.0143738
906.731	0.0144547
906.809	0.0144884
906.887	0.0143241
906.965	0.0143462
907.043	0.0143285
907.121	0.0141784
907.200	0.0143447
907.278	0.0142215
907.356	0.0142546
907.434	0.0143633
907.512	0.0142540
907.590	0.0142462
907.668	0.0144227
907.746	0.0144437
907.825	0.0145274
907.903	0.0144116
907.981	0.0145361
908.059	0.0145683
908.137	0.0145963
908.215	0.0144445
908.293	0.0145022
908.371	0.0146041
908.450	0.0145256
908.528	0.0145561
908.606	0.0143986
908.684	0.0144769
908.762	0.0143310
908.840	0.0144711
908.918	0.0144891
908.996	0.0143330
909.075	0.0143035
909.153	0.0143520
909.231	0.0143227
909.309	0.0144344
909.387	0.0143566
909.465	0.0143874
909.543	0.0143659
909.621	0.0143995
909.700	0.0142805
909.778	0.0142012
909.856	0.0141774
909.934	0.0143131
910.012	0.0141884
910.090	0.0142812
910.168	0.0143148
910.246	0.0142500
910.325	0.0143819
910.403	0.0144116
910.481	0.0144003
910.559	0.0143260
910.637	0.0145200
910.715	0.0143576
910.793	0.0143787
910.871	0.0144812
910.950	0.0143673
911.028	0.0144380
911.106	0.0145023
911.184	0.0145564
911.262	0.0144685
911.340	0.0145221
911.418	0.0144009
911.496	0.0145004
911.575	0.0143872
911.653	0.0142439
911.731	0.0144607
911.809	0.0142800
911.887	0.0142644
911.965	0.0142725
912.043	0.0142783
912.121	0.0142224
912.200	0.0143302
912.278	0.0142751
912.356	0.0143483
912.434	0.0142733
912.512	0.0144985
912.590	0.0144910
912.668	0.0145483
912.746	0.0144031
912.825	0.0144138
912.903	0.0144894
912.981	0.0144674
913.059	0.0143880
913.137	0.0144411
913.215	0.0144270
913.293	0.0143490
913.371	0.0142368
913.450	0.0142985
913.528	0.0144042
913.606	0.0143254
913.684	0.0143330
913.762	0.0142823
913.840	0.0143509
913.918	0.0141902
913.996	0.0142493
914.075	0.0143587
914.153	0.0142899
914.231	0.0143507
914.309	0.0143251
914.387	0.0142861
914.465	0.0144303
914.543	0.0142290
914.621	0.0142101
914.700	0.0143597
914.778	0.0143420
914.856	0.0143691
914.934	0.0143556
915.012	0.0142883
915.090	0.0142832
915.168	0.0143082
915.246	0.0144431
915.325	0.0144579
915.403	0.0144033
915.481	0.0143993
915.559	0.0143822
915.637	0.0144070
915.715	0.0143539
915.793	0.0144281
915.871	0.0145834
915.950	0.0145161
916.028	0.0144544
916.106	0.0143679
916.184	0.0144617
916.262	0.0143465
916.340	0.0144055
916.418	0.0142884
916.496	0.0142698
916.575	0.0143609
916.653	0.0143283
916.731	0.0143590
916.809	0.0141318
916.887	0.0143573
916.965	0.0143122
917.043	0.0143333
917.121	0.0143201
917.200	0.0143417
917.278	0.0143183
917.356	0.0142928
917.434	0.0143442
917.512	0.0144758
917.590	0.0143591
917.668	0.0143612
917.746	0.0145477
917.825	0.0143909
917.903	0.0142231
917.981	0.0142443
918.059	0.0145471
918.137	0.0144550
918.215	0.0143297
918.293	0.0144013
918.371	0.0143275
918.450	0.0143790
918.528	0.0145124
918.606	0.0144382
918.684	0.0145166
918.762	0.0144794
918.840	0.0144990
918.918	0.0144344
918.996	0.0144885
919.075	0.0144582
919.153	0.0143076
919.231	0.0143303
919.309	0.0144234
919.387	0.0142680
919.465	0.0143268
919.543	0.0143130
919.621	0.0142849
919.700	0.0143380
919.778	0.0143468
919.856	0.0143479
919.934	0.0143762
920.012	0.0143352
920.090	0.0143387
920.168	0.0143925
920.246	0.0144366
920.325	0.0143211
920.403	0.0144630
920.481	0.0144489
920.559	0.0143994
920.637	0.0144444
920.715	0.0144796
920.793	0.0142909
920.871	0.0145023
920.950	0.0144702
921.028	0.0144886
921.106	0.0143365
921.184	0.0142779
921.262	0.0144386
921.340	0.0143933
921.418	0.0141982
921.496	0.0144448
921.575	0.0144023
921.653	0.0142879
921.731	0.0142107
921.809	0.0143758
921.887	0.0144003
921.965	0.0142684
922.043	0.0143345
922.121	0.0143147
922.200	0.0142894
922.278	0.0143166
922.356	0.0143520
922.434	0.0143700
922.512	0.0143338
922.590	0.0143542
922.668	0.0144360
922.746	0.0144322
922.825	0.0144252
922.903	0.0143886
922.981	0.0144155
923.059	0.0144368
923.137	0.0144597
923.215	0.0144666
923.293	0.0143425
923.371	0.0145329
923.450	0.0144947
923.528	0.0143214
923.606	0.0144174
923.684	0.0145309
923.762	0.0145855
923.840	0.0145430
923.918	0.0143406
923.996	0.0145068
924.075	0.0144614
924.153	0.0144231
924.231	0.0144060
924.309	0.0144052
924.387	0.0142932
924.465	0.0144405
924.543	0.0143292
924.621	0.0142173
924.700	0.0142193
924.778	0.0143620
924.856	0.0141731
924.934	0.0143111
925.012	0.0143418
925.090	0.0142089
925.168	0.0142766
925.246	0.0143962
925.325	0.0143683
925.403	0.0144599
925.481	0.0144227
925.559	0.0143307
925.637	0.0145181
925.715	0.0144537
925.793	0.0145009
925.871	0.0144685
925.950	0.0143447
926.028	0.0144247
926.106	0.0145087
926.184	0.0144536
926.262	0.0143361
926.340	0.0144386
926.418	0.0144705
926.496	0.0144399
926.575	0.0144482
926.653	0.0144735
926.731	0.0143502
926.809	0.0144864
926.887	0.0143399
926.965	0.0143259
927.043	0.0144237
927.121	0.0144279
927.200	0.0142576
927.278	0.0143564
927.356	0.0144267
927.434	0.0143312
927.512	0.0143608
927.590	0.0143784
927.668	0.0142944
927.746	0.0141168
927.825	0.0142828
927.903	0.0143134
927.981	0.0144145
928.059	0.0142273
928.137	0.0142673
928.215	0.0143676
928.293	0.0143578
928.371	0.0142914
928.450	0.0144483
928.528	0.0143578
928.606	0.0143484
928.684	0.0145440
928.762	0.0143890
928.840	0.0143342
928.918	0.0144238
928.996	0.0143134
929.075	0.0143777
929.153	0.0145166
929.231	0.0144862
929.309	0.0143539
929.387	0.0143151
929.465	0.0143325
929.543	0.0142799
929.621	0.0143349
929.700	0.0143533
929.778	0.0144532
929.856	0.0144547
929.934	0.0142877
930.012	0.0143768
930.090	0.0144295
930.168	0.0143099
930.246	0.0143714
930.325	0.0142990
930.403	0.0142239
930.481	0.0143284
930.559	0.0143584
930.637	0.0142898
930.715	0.0143150
930.793	0.0142550
930.871	0.0142413
930.950	0.0144997
931.028	0.0143523
931.106	0.0142349
931.184	0.0143160
931.262	0.0142959
931.340	0.0142954
931.418	0.0144943
931.496	0.0142974
931.575	0.0142213
931.653	0.0143752
931.731	0.0143008
931.809	0.0143972
931.887	0.0145733
931.965	0.0143124
932.043	0.0143966
932.121	0.0143881
932.200	0.0141564
932.278	0.0145494
932.356	0.0143566
932.434	0.0143180
932.512	0.0143719
932.590	0.0144467
932.668	0.0143996
932.746	0.0144985
932.825	0.0143213
932.903	0.0143789
932.981	0.0143535
933.059	0.0143832
933.137	0.0142917
933.215	0.0143365
933.293	0.0143805
933.371	0.0143703
933.450	0.0142622
933.528	0.0143105
933.606	0.0143006
933.684	0.0143430
933.762	0.0143044
933.840	0.0144853
933.918	0.0144501
933.996	0.0143427
934.075	0.0143079
934.153	0.0142937
934.231	0.0143314
934.309	0.0143295
934.387	0.0143285
934.465	0.0143418
934.543	0.0143909
934.621	0.0144060
934.700	0.0144852
934.778	0.0144166
934.856	0.0142830
934.934	0.0144502
935.012	0.0143547
935.090	0.0143999
935.168	0.0143061
935.246	0.0144640
935.325	0.0143578
935.403	0.0144617
935.481	0.0143533
935.559	0.0143773
935.637	0.0144621
935.715	0.0142920
935.793	0.0143926
935.871	0.0143198
935.950	0.0144337
936.028	0.0144982
936.106	0.0142867
936.184	0.0144375
936.262	0.0143979
936.340	0.0144019
936.418	0.0144626
936.496	0.0144429
936.575	0.0143310
936.653	0.0143436
936.731	0.0144304
936.809	0.0143855
936.887	0.0143001
936.965	0.0144161
937.043	0.0144177
937.121	0.0143781
937.200	0.0143156
937.278	0.0144651
937.356	0.0143333
937.434	0.0143420
937.512	0.0143359
937.590	0.0144312
937.668	0.0143887
937.746	0.0143815
937.825	0.0144162
937.903	0.0143687
937.981	0.0143571
938.059	0.0143040
938.137	0.0143873
938.215	0.0142828
938.293	0.0145943
938.371	0.0144218
938.450	0.0144225
938.528	0.0144311
938.606	0.0143399
938.684	0.0142403
938.762	0.0143909
938.840	0.0143887
938.918	0.0142448
938.996	0.0143028
939.075	0.0143277
939.153	0.0142796
939.231	0.0142791
939.309	0.0143865
939.387	0.0143707
939.465	0.0143435
939.543	0.0144483
939.621	0.0144880
939.700	0.0143559
939.778	0.0144613
939.856	0.0143082
939.934	0.0143971
940.012	0.0143456
940.090	0.0144440
940.168	0.0144554
940.246	0.0144290
940.325	0.0145087
940.403	0.0145368
940.481	0.0144098
940.559	0.0144157
940.637	0.0143549
940.715	0.0143783
940.793	0.0141611
940.871	0.0144083
940.950	0.0142832
941.028	0.0143997
941.106	0.0143345
941.184	0.0142761
941.262	0.0144381
941.340	0.0143404
941.418	0.0141158
941.496	0.0141318
941.575	0.0143900
941.653	0.0144436
941.731	0.0142617
941.809	0.0143053
941.887	0.0142802
941.965	0.0142798
942.043	0.0144130
942.121	0.0145112
942.200	0.0144314
942.278	0.0142522
942.356	0.0143118
942.434	0.0143737
942.512	0.0144057
942.590	0.0143832
942.668	0.0143856
942.746	0.0145358
942.825	0.0144392
942.903	0.0143638
942.981	0.0143116
943.059	0.0144217
943.137	0.0143960
943.215	0.0143604
943.293	0.0143816
943.371	0.0144996
943.450	0.0144868
943.528	0.0144107
943.606	0.0143829
943.684	0.0143085
943.762	0.0144087
943.840	0.0143591
943.918	0.0142637
943.996	0.0142795
944.075	0.0143906
944.153	0.0143890
944.231	0.0142760
944.309	0.0144872
944.387	0.0142726
944.465	0.0143077
944.543	0.0143687
944.621	0.0143222
944.700	0.0143262
944.778	0.0143252
944.856	0.0143379
944.934	0.0142923
945.012	0.0141456
945.090	0.0143217
945.168	0.0143359
945.246	0.0142093
945.325	0.0143320
945.403	0.0141466
945.481	0.0141654
945.559	0.0142927
945.637	0.0142751
945.715	0.0143335
945.793	0.0144134
945.871	0.0143412
945.950	0.0143086
946.028	0.0143156
946.106	0.0142773
946.184	0.0143530
946.262	0.0143861
946.340	0.0143925
946.418	0.0144245
946.496	0.0143124
946.575	0.0144361
946.653	0.0143898
946.731	0.0146013
946.809	0.0145331
946.887	0.0144221
946.965	0.0143591
947.043	0.0144272
947.121	0.0144736
947.200	0.0143620
947.278	0.0143889
947.356	0.0144344
947.434	0.0144386
947.512	0.0143095
947.590	0.0142507
947.668	0.0142948
947.746	0.0144061
947.825	0.0143597
947.903	0.0142603
947.981	0.0143880
948.059	0.0144164
948.137	0.0142831
948.215	0.0142130
948.293	0.0142421
948.371	0.0144133
948.450	0.0143073
948.528	0.0143594
948.606	0.0144144
948.684	0.0143204
948.762	0.0142512
948.840	0.0142893
948.918	0.0143386
948.996	0.0142570
949.075	0.0142609
949.153	0.0142504
949.231	0.0142435
949.309	0.0143942
949.387	0.0144830
949.465	0.0144442
949.543	0.0142727
949.621	0.0144096
949.700	0.0144798
949.778	0.0143287
949.856	0.0144233
949.934	0.0144500
950.012	0.0144816
950.090	0.0144913
950.168	0.0142974
950.246	0.0142981
950.325	0.0143346
950.403	0.0142947
950.481	0.0144349
950.559	0.0143227
950.637	0.0143076
950.715	0.0144656
950.793	0.0142445
950.871	0.0142860
950.950	0.0143742
951.028	0.0144022
951.106	0.0141998
951.184	0.0141821
951.262	0.0143075
951.340	0.0143392
951.418	0.0141926
951.496	0.0141476
951.575	0.0143343
951.653	0.0144309
951.731	0.0143806
951.809	0.0143935
951.887	0.0143277
951.965	0.0142351
952.043	0.0144077
952.121	0.0144119
952.200	0.0143311
952.278	0.0143599
952.356	0.0143906
952.434	0.0145007
952.512	0.0144335
952.590	0.0142728
952.668	0.0143439
952.746	0.0143957
952.825	0.0143948
952.903	0.0144196
952.981	0.0143581
953.059	0.0143554
953.137	0.0145376
953.215	0.0144729
953.293	0.0143254
953.371	0.0143701
953.450	0.0144871
953.528	0.0143987
953.606	0.0143195
953.684	0.0144112
953.762	0.0144079
953.840	0.0143132
953.918	0.0142736
953.996	0.0142520
954.075	0.0143027
954.153	0.0143036
954.231	0.0144978
954.309	0.0144951
954.387	0.0143212
954.465	0.0143922
954.543	0.0143054
954.621	0.0144215
954.700	0.0141914
954.778	0.0143628
954.856	0.0144152
954.934	0.0143559
955.012	0.0143550
955.090	0.0143884
955.168	0.0144247
955.246	0.0144469
955.325	0.0142993
955.403	0.0143694
955.481	0.0145084
955.559	0.0144476
955.637	0.0144984
955.715	0.0144174
955.793	0.0143915
955.871	0.0144839
955.950	0.0142894
956.028	0.0145104
956.106	0.0144116
956.184	0.0143105
956.262	0.0143932
956.340	0.0143462
956.418	0.0142703
956.496	0.0142448
956.575	0.0143122
956.653	0.0141844
956.731	0.0141106
956.809	0.0142855
956.887	0.0142018
956.965	0.0142255
957.043	0.0142200
957.121	0.0141089
957.200	0.0142135
957.278	0.0140397
957.356	0.0142567
957.434	0.0141490
957.512	0.0142540
957.590	0.0142902
957.668	0.0142661
957.746	0.0142781
957.825	0.0142664
957.903	0.0144118
957.981	0.0144586
958.059	0.0143970
958.137	0.0143063
958.215	0.0143126
958.293	0.0144890
958.371	0.0143537
958.450	0.0144166
958.528	0.0143859
958.606	0.0143347
958.684	0.0143724
958.762	0.0142023
958.840	0.0141998
958.918	0.0143362
958.996	0.0143570
959.075	0.0143031
959.153	0.0143448
959.231	0.0143024
959.309	0.0142867
959.387	0.0143584
959.465	0.0141876
959.543	0.0142597
959.621	0.0142835
959.700	0.0142303
959.778	0.0141685
959.856	0.0141808
959.934	0.0141530
960.012	0.0142925
960.090	0.0143879
960.168	0.0143189
960.246	0.0143532
960.325	0.0144381
960.403	0.0143061
960.481	0.0142653
960.559	0.0142716
960.637	0.0143034
960.715	0.0143523
960.793	0.0143481
960.871	0.0143629
960.950	0.0144634
961.028	0.0144870
961.106	0.0143853
961.184	0.0144562
961.262	0.0143014
961.340	0.0142706
961.418	0.0143435
961.496	0.0143785
961.575	0.0142619
961.653	0.0143828
961.731	0.0143063
961.809	0.0143678
961.887	0.0144521
961.965	0.0143612
962.043	0.0142970
962.121	0.0145192
962.200	0.0143534
962.278	0.0141508
962.356	0.0143820
962.434	0.0144505
962.512	0.0143623
962.590	0.0142453
962.668	0.0143719
962.746	0.0143870
962.825	0.0143842
962.903	0.0144324
962.981	0.0144140
963.059	0.0142146
963.137	0.0143349
963.215	0.0144145
963.293	0.0143482
963.371	0.0143986
963.450	0.0143358
963.528	0.0144841
963.606	0.0144172
963.684	0.0143664
963.762	0.0144124
963.840	0.0144218
963.918	0.0143063
963.996	0.0144381
964.075	0.0144933
964.153	0.0143069
964.231	0.0144109
964.309	0.0144746
964.387	0.0144057
964.465	0.0143530
964.543	0.0144144
964.621	0.0143175
964.700	0.0144656
964.778	0.0142890
964.856	0.0144476
964.934	0.0143867
965.012	0.0143964
965.090	0.0144592
965.168	0.0144814
965.246	0.0144141
965.325	0.0144270
965.403	0.0143892
965.481	0.0143655
965.559	0.0143723
965.637	0.0144180
965.715	0.0143419
965.793	0.0144135
965.871	0.0144151
965.950	0.0144415
966.028	0.0143786
966.106	0.0144081
966.184	0.0145616
966.262	0.0144327
966.340	0.0144720
966.418	0.0144482
966.496	0.0143628
966.575	0.0144465
966.653	0.0144501
966.731	0.0143008
966.809	0.0143224
966.887	0.0143271
966.965	0.0143923
967.043	0.0142949
967.121	0.0143745
967.200	0.0145279
967.278	0.0144204
967.356	0.0144810
967.434	0.0144281
967.512	0.0144368
967.590	0.0144884
967.668	0.0145081
967.746	0.0144164
967.825	0.0143643
967.903	0.0144722
967.981	0.0144697
968.059	0.0143450
968.137	0.0145161
968.215	0.0144979
968.293	0.0143652
968.371	0.0144912
968.450	0.0144775
968.528	0.0144299
968.606	0.0144465
968.684	0.0143513
968.762	0.0144517
968.840	0.0145079
968.918	0.0143773
968.996	0.0142618
969.075	0.0143499
969.153	0.0144133
969.231	0.0143926
969.309	0.0143860
969.387	0.0143536
969.465	0.0144491
969.543	0.0145409
969.621	0.0145302
969.700	0.0143567
969.778	0.0143304
969.856	0.0144362
969.934	0.0143736
970.012	0.0144123
970.090	0.0143656
970.168	0.0145327
970.246	0.0143721
970.325	0.0143617
970.403	0.0143745
970.481	0.0144203
970.559	0.0144322
970.637	0.0144360
970.715	0.0143906
970.793	0.0143470
970.871	0.0142374
970.950	0.0143102
971.028	0.0143326
971.106	0.0143626
971.184	0.0143598
971.262	0.0143726
971.340	0.0142835
971.418	0.0143106
971.496	0.0143245
971.575	0.0143844
971.653	0.0144464
971.731	0.0142756
971.809	0.0143275
971.887	0.0143797
971.965	0.0144202
972.043	0.0143317
972.121	0.0144514
972.200	0.0144064
972.278	0.0143604
972.356	0.0143023
972.434	0.0143948
972.512	0.0144072
972.590	0.0144892
972.668	0.0144176
972.746	0.0143281
972.825	0.0142853
972.903	0.0143458
972.981	0.0144393
973.059	0.0143674
973.137	0.0143530
973.215	0.0143597
973.293	0.0142640
973.371	0.0142558
973.450	0.0142841
973.528	0.0142589
973.606	0.0143092
973.684	0.0142756
973.762	0.0143396
973.840	0.0144539
973.918	0.0143594
973.996	0.0144125
974.075	0.0142397
974.153	0.0143611
974.231	0.0144176
974.309	0.0144306
974.387	0.0144371
974.465	0.0144463
974.543	0.0144152
974.621	0.0143446
974.700	0.0143877
974.778	0.0144915
974.856	0.0143357
974.934	0.0145809
975.012	0.0144460
975.090	0.0144216
975.168	0.0144513
975.246	0.0143636
975.325	0.0144376
975.403	0.0144035
975.481	0.0143740
975.559	0.0143631
975.637	0.0144312
975.715	0.0144830
975.793	0.0143573
975.871	0.0144375
975.950	0.0144143
976.028	0.0144222
976.106	0.0144611
976.184	0.0142637
976.262	0.0144086
976.340	0.0142934
976.418	0.0142480
976.496	0.0142268
976.575	0.0143136
976.653	0.0142520
976.731	0.0142452
976.809	0.0143777
976.887	0.0145707
976.965	0.0144617
977.043	0.0143676
977.121	0.0145544
977.200	0.0143681
977.278	0.0144354
977.356	0.0143884
977.434	0.0142991
977.512	0.0143710
977.590	0.0143738
977.668	0.0142764
977.746	0.0142720
977.825	0.0145118
977.903	0.0142421
977.981	0.0144200
978.059	0.0143468
978.137	0.0143460
978.215	0.0143582
978.293	0.0141703
978.371	0.0143025
978.450	0.0144183
978.528	0.0142892
978.606	0.0142396
978.684	0.0142506
978.762	0.0143460
978.840	0.0142900
978.918	0.0143324
978.996	0.0143535
979.075	0.0144862
979.153	0.0144300
979.231	0.0143367
979.309	0.0143081
979.387	0.0144669
979.465	0.0144117
979.543	0.0143846
979.621	0.0143610
979.700	0.0144200
979.778	0.0145718
979.856	0.0143616
979.934	0.0142525
980.012	0.0143942
980.090	0.0143446
980.168	0.0143177
980.246	0.0144014
980.325	0.0144830
980.403	0.0143906
980.481	0.0142803
980.559	0.0143119
980.637	0.0143258
980.715	0.0143681
980.793	0.0143134
980.871	0.0143696
980.950	0.0142618
981.028	0.0143715
981.106	0.0143926
981.184	0.0144524
981.262	0.0143451
981.340	0.0143762
981.418	0.0144046
981.496	0.0143987
981.575	0.0144616
981.653	0.0144405
981.731	0.0143291
981.809	0.0144516
981.887	0.0145222
981.965	0.0144858
982.043	0.0144008
982.121	0.0143952
982.200	0.0144268
982.278	0.0145419
982.356	0.0145478
982.434	0.0145736
982.512	0.0144358
982.590	0.0142522
982.668	0.0145295
982.746	0.0144581
982.825	0.0144418
982.903	0.0143645
982.981	0.0143808
983.059	0.0142677
983.137	0.0142373
983.215	0.0142635
983.293	0.0142885
983.371	0.0144147
983.450	0.0143487
983.528	0.0142607
983.606	0.0141962
983.684	0.0143909
983.762	0.0142991
983.840	0.0143803
983.918	0.0143947
983.996	0.0143014
984.075	0.0143427
984.153	0.0144036
984.231	0.0144462
984.309	0.0144540
984.387	0.0144501
984.465	0.0144164
984.543	0.0144367
984.621	0.0143736
984.700	0.0144862
984.778	0.0143629
984.856	0.0145018
984.934	0.0143805
985.012	0.0143526
985.090	0.0144212
985.168	0.0143967
985.246	0.0142741
985.325	0.0143745
985.403	0.0143201
985.481	0.0142414
985.559	0.0142226
985.637	0.0143083
985.715	0.0142506
985.793	0.0142384
985.871	0.0142715
985.950	0.0142999
986.028	0.0143298
986.106	0.0141489
986.184	0.0143646
986.262	0.0144223
986.340	0.0145193
986.418	0.0143172
986.496	0.0141956
986.575	0.0145380
986.653	0.0144508
986.731	0.0144276
986.809	0.0145250
986.887	0.0145099
986.965	0.0143787
987.043	0.0144855
987.121	0.0145475
987.200	0.0145093
987.278	0.0145189
987.356	0.0144495
987.434	0.0145296
987.512	0.0144321
987.590	0.0144574
987.668	0.0144769
987.746	0.0143524
987.825	0.0143936
987.903	0.0144301
987.981	0.0142670
988.059	0.0142751
988.137	0.0143153
988.215	0.0143063
988.293	0.0142551
988.371	0.0143417
988.450	0.0143558
988.528	0.0142236
988.606	0.0142158
988.684	0.0143606
988.762	0.0143996
988.840	0.0144693
988.918	0.0144128
988.996	0.0143040
989.075	0.0144125
989.153	0.0144269
989.231	0.0144707
989.309	0.0144833
989.387	0.0144480
989.465	0.0145180
989.543	0.0145286
989.621	0.0145600
989.700	0.0144364
989.778	0.0144161
989.856	0.0145549
989.934	0.0144721
990.012	0.0144655
990.090	0.0144353
990.168	0.0144376
990.246	0.0144132
990.325	0.0143906
990.403	0.0142827
990.481	0.0144480
990.559	0.0144058
990.637	0.0143914
990.715	0.0143178
990.793	0.0144501
990.871	0.0143816
990.950	0.0142577
991.028	0.0144223
991.106	0.0142369
991.184	0.0143932
991.262	0.0145098
991.340	0.0144610
991.418	0.0144300
991.496	0.0144036
991.575	0.0144722
991.653	0.0143993
991.731	0.0143966
991.809	0.0143785
991.887	0.0145539
991.965	0.0144069
992.043	0.0143376
992.121	0.0142863
992.200	0.0144216
992.278	0.0144697
992.356	0.0143614
992.434	0.0142654
992.512	0.0142399
992.590	0.0143361
992.668	0.0142496
992.746	0.0143310
992.825	0.0142538
992.903	0.0144550
992.981	0.0144436
993.059	0.0143902
993.137	0.0143043
993.215	0.0143517
993.293	0.0142580
993.371	0.0143800
993.450	0.0144444
993.528	0.0142157
993.606	0.0143361
993.684	0.0143669
993.762	0.0142535
993.840	0.0143864
993.918	0.0143318
993.996	0.0143642
994.075	0.0143106
994.153	0.0143584
994.231	0.0143539
994.309	0.0143678
994.387	0.0144635
994.465	0.0143307
994.543	0.0144024
994.621	0.0143971
994.700	0.0143902
994.778	0.0143733
994.856	0.0144599
994.934	0.0144269
995.012	0.0143819
995.090	0.0143311
995.168	0.0144512
995.246	0.0144966
995.325	0.0144389
995.403	0.0143697
995.481	0.0144118
995.559	0.0144549
995.637	0.0144162
995.715	0.0143484
995.793	0.0143262
995.871	0.0144464
995.950	0.0143612
996.028	0.0144071
996.106	0.0143271
996.184	0.0143115
996.262	0.0143143
996.340	0.0145868
996.418	0.0143746
996.496	0.0141920
996.575	0.0143833
996.653	0.0144684
996.731	0.0144730
996.809	0.0142934
996.887	0.0143614
996.965	0.0144690
997.043	0.0142647
997.121	0.0144501
997.200	0.0143658
997.278	0.0143250
997.356	0.0142145
997.434	0.0144050
997.512	0.0144160
997.590	0.0143567
997.668	0.0143961
997.746	0.0143427
997.825	0.0144467
997.903	0.0144926
997.981	0.0143963
998.059	0.0143316
998.137	0.0143601
998.215	0.0143486
998.293	0.0143716
998.371	0.0143869
998.450	0.0144170
998.528	0.0144439
998.606	0.0143424
998.684	0.0144080
998.762	0.0143823
998.840	0.0144506
998.918	0.0144437
