05/04/2022	21:08:22	Ver.	4.1	UNKNOWN
Optical Delay	678.996401	Delta X		0.078125	Sweeps	1	Scan Rate	0/0
Coordinates	Axis 1	NaN	Axis 2	NaN	Axis 3	NaN	Axis 4	NaN	Axis 5	NaN	Axis 6	0.000000
TX Power	0.000000	RX Power	0.000000

678.996	0.0145541
679.075	0.0145227
679.153	0.0146152
679.231	0.0145572
679.309	0.0145287
679.387	0.0145599
679.465	0.0145191
679.543	0.0145986
679.621	0.0143411
679.700	0.0144825
679.778	0.0146857
679.856	0.0146355
679.934	0.0145215
680.012	0.0145702
680.090	0.0146317
680.168	0.0144884
680.246	0.0145984
680.325	0.0146479
680.403	0.0145376
680.481	0.0147156
680.559	0.0144953
680.637	0.0145350
680.715	0.0147229
680.793	0.0145667
680.871	0.0146094
680.950	0.0146025
681.028	0.0144719
681.106	0.0145435
681.184	0.0144965
681.262	0.0145116
681.340	0.0145419
681.418	0.0145308
681.496	0.0145705
681.575	0.0146181
681.653	0.0144428
681.731	0.0144998
681.809	0.0144899
681.887	0.0145443
681.965	0.0146328
682.043	0.0144844
682.121	0.0146120
682.200	0.0146359
682.278	0.0146471
682.356	0.0146291
682.434	0.0145584
682.512	0.0145000
682.590	0.0146053
682.668	0.0145313
682.746	0.0145864
682.825	0.0147211
682.903	0.0144825
682.981	0.0145768
683.059	0.0146120
683.137	0.0145390
683.215	0.0146106
683.293	0.0145140
683.371	0.0144910
683.450	0.0144282
683.528	0.0145063
683.606	0.0144578
683.684	0.0145895
683.762	0.0146271
683.840	0.0145234
683.918	0.0145234
683.996	0.0145449
684.075	0.0145650
684.153	0.0147031
684.231	0.0146527
684.309	0.0144804
684.387	0.0146356
684.465	0.0147346
684.543	0.0145786
684.621	0.0146179
684.700	0.0146555
684.778	0.0147125
684.856	0.0145786
684.934	0.0146285
685.012	0.0146606
685.090	0.0146619
685.168	0.0147123
685.246	0.0146297
685.325	0.0145991
685.403	0.0145325
685.481	0.0144707
685.559	0.0147137
685.637	0.0146461
685.715	0.0145319
685.793	0.0145116
685.871	0.0145358
685.950	0.0146453
686.028	0.0146554
686.106	0.0145292
686.184	0.0145747
686.262	0.0146376
686.340	0.0144997
686.418	0.0144842
686.496	0.0145813
686.575	0.0144607
686.653	0.0145773
686.731	0.0145841
686.809	0.0146750
686.887	0.0146948
686.965	0.0146962
687.043	0.0146555
687.121	0.0145772
687.200	0.0144618
687.278	0.0146268
687.356	0.0147445
687.434	0.0144807
687.512	0.0145328
687.590	0.0144482
687.668	0.0145893
687.746	0.0145737
687.825	0.0144769
687.903	0.0145544
687.981	0.0145207
688.059	0.0145176
688.137	0.0145066
688.215	0.0146676
688.293	0.0146723
688.371	0.0145410
688.450	0.0144875
688.528	0.0144503
688.606	0.0146422
688.684	0.0146127
688.762	0.0145817
688.840	0.0145740
688.918	0.0145897
688.996	0.0144515
689.075	0.0145319
689.153	0.0145982
689.231	0.0146457
689.309	0.0144876
689.387	0.0145792
689.465	0.0145395
689.543	0.0145337
689.621	0.0146379
689.700	0.0144699
689.778	0.0146185
689.856	0.0144630
689.934	0.0146149
690.012	0.0145858
690.090	0.0146410
690.168	0.0145573
690.246	0.0145805
690.325	0.0145926
690.403	0.0146100
690.481	0.0145325
690.559	0.0146288
690.637	0.0146891
690.715	0.0145258
690.793	0.0147099
690.871	0.0145827
690.950	0.0146957
691.028	0.0145627
691.106	0.0146337
691.184	0.0146446
691.262	0.0146467
691.340	0.0145889
691.418	0.0144872
691.496	0.0146529
691.575	0.0146435
691.653	0.0146014
691.731	0.0146029
691.809	0.0146102
691.887	0.0146710
691.965	0.0146655
692.043	0.0145538
692.121	0.0145822
692.200	0.0145750
692.278	0.0145166
692.356	0.0145408
692.434	0.0145718
692.512	0.0145959
692.590	0.0146426
692.668	0.0145193
692.746	0.0145706
692.825	0.0144813
692.903	0.0145578
692.981	0.0146361
693.059	0.0144966
693.137	0.0144598
693.215	0.0143888
693.293	0.0144936
693.371	0.0145690
693.450	0.0143408
693.528	0.0143826
693.606	0.0143332
693.684	0.0143686
693.762	0.0143404
693.840	0.0143958
693.918	0.0143433
693.996	0.0142397
694.075	0.0145678
694.153	0.0144508
694.231	0.0144293
694.309	0.0144943
694.387	0.0146614
694.465	0.0143874
694.543	0.0146403
694.621	0.0146432
694.700	0.0146505
694.778	0.0148150
694.856	0.0147122
694.934	0.0146249
695.012	0.0148116
695.090	0.0147306
695.168	0.0148486
695.246	0.0147416
695.325	0.0146270
695.403	0.0146866
695.481	0.0146605
695.559	0.0145702
695.637	0.0146114
695.715	0.0145771
695.793	0.0145065
695.871	0.0143905
695.950	0.0144043
696.028	0.0144987
696.106	0.0144788
696.184	0.0143337
696.262	0.0143176
696.340	0.0145586
696.418	0.0145601
696.496	0.0145102
696.575	0.0143289
696.653	0.0145230
696.731	0.0145305
696.809	0.0146440
696.887	0.0147592
696.965	0.0146506
697.043	0.0146380
697.121	0.0146728
697.200	0.0147463
697.278	0.0148163
697.356	0.0145382
697.434	0.0146415
697.512	0.0147039
697.590	0.0146216
697.668	0.0145294
697.746	0.0146233
697.825	0.0146236
697.903	0.0145837
697.981	0.0144496
698.059	0.0146327
698.137	0.0147456
698.215	0.0144115
698.293	0.0143903
698.371	0.0144551
698.450	0.0144680
698.528	0.0144408
698.606	0.0145409
698.684	0.0145544
698.762	0.0145222
698.840	0.0145540
698.918	0.0144793
698.996	0.0144977
699.075	0.0144835
699.153	0.0145274
699.231	0.0146068
699.309	0.0145872
699.387	0.0144278
699.465	0.0144192
699.543	0.0145914
699.621	0.0144488
699.700	0.0145145
699.778	0.0144298
699.856	0.0145531
699.934	0.0146432
700.012	0.0144991
700.090	0.0145936
700.168	0.0145290
700.246	0.0144891
700.325	0.0145496
700.403	0.0146522
700.481	0.0147429
700.559	0.0147097
700.637	0.0147472
700.715	0.0147269
700.793	0.0147073
700.871	0.0148306
700.950	0.0148051
701.028	0.0148034
701.106	0.0146877
701.184	0.0145490
701.262	0.0146880
701.340	0.0146042
701.418	0.0144812
701.496	0.0144643
701.575	0.0144510
701.653	0.0144984
701.731	0.0143976
701.809	0.0144264
701.887	0.0144385
701.965	0.0144517
702.043	0.0144349
702.121	0.0144752
702.200	0.0143860
702.278	0.0144827
702.356	0.0145896
702.434	0.0144989
702.512	0.0146172
702.590	0.0145710
702.668	0.0146905
702.746	0.0147491
702.825	0.0145528
702.903	0.0145904
702.981	0.0145934
703.059	0.0145479
703.137	0.0144696
703.215	0.0146505
703.293	0.0144608
703.371	0.0146426
703.450	0.0146846
703.528	0.0145857
703.606	0.0144000
703.684	0.0144398
703.762	0.0144196
703.840	0.0142438
703.918	0.0143179
703.996	0.0145611
704.075	0.0145233
704.153	0.0146745
704.231	0.0145775
704.309	0.0147331
704.387	0.0149388
704.465	0.0146645
704.543	0.0145991
704.621	0.0145950
704.700	0.0144942
704.778	0.0145451
704.856	0.0146055
704.934	0.0145915
705.012	0.0146620
705.090	0.0148385
705.168	0.0148338
705.246	0.0149070
705.325	0.0147247
705.403	0.0146421
705.481	0.0146429
705.559	0.0143822
705.637	0.0142750
705.715	0.0139905
705.793	0.0140116
705.871	0.0138999
705.950	0.0137939
706.028	0.0138412
706.106	0.0137367
706.184	0.0140179
706.262	0.0143089
706.340	0.0144675
706.418	0.0145948
706.496	0.0146539
706.575	0.0147495
706.653	0.0147713
706.731	0.0147130
706.809	0.0146530
706.887	0.0148171
706.965	0.0148244
707.043	0.0150905
707.121	0.0150982
707.200	0.0151530
707.278	0.0151437
707.356	0.0152073
707.434	0.0152049
707.512	0.0151438
707.590	0.0149905
707.668	0.0149061
707.746	0.0149702
707.825	0.0149174
707.903	0.0147864
707.981	0.0148008
708.059	0.0146193
708.137	0.0146396
708.215	0.0145210
708.293	0.0142873
708.371	0.0140723
708.450	0.0137904
708.528	0.0135739
708.606	0.0134521
708.684	0.0132133
708.762	0.0132244
708.840	0.0132439
708.918	0.0133709
708.996	0.0136982
709.075	0.0137691
709.153	0.0142010
709.231	0.0145792
709.309	0.0149281
709.387	0.0153228
709.465	0.0157926
709.543	0.0159899
709.621	0.0160389
709.700	0.0159537
709.778	0.0158583
709.856	0.0155546
709.934	0.0153202
710.012	0.0149878
710.090	0.0148560
710.168	0.0146242
710.246	0.0145286
710.325	0.0144558
710.403	0.0142817
710.481	0.0145094
710.559	0.0147330
710.637	0.0148851
710.715	0.0150175
710.793	0.0151969
710.871	0.0153754
710.950	0.0153577
711.028	0.0149532
711.106	0.0146449
711.184	0.0144976
711.262	0.0141394
711.340	0.0135904
711.418	0.0130566
711.496	0.0131464
711.575	0.0129412
711.653	0.0128822
711.731	0.0130923
711.809	0.0130204
711.887	0.0132987
711.965	0.0135926
712.043	0.0139732
712.121	0.0145697
712.200	0.0147675
712.278	0.0153210
712.356	0.0157418
712.434	0.0160471
712.512	0.0160202
712.590	0.0160926
712.668	0.0158691
712.746	0.0158474
712.825	0.0157282
712.903	0.0154173
712.981	0.0151764
713.059	0.0149170
713.137	0.0144524
713.215	0.0144394
713.293	0.0143326
713.371	0.0143353
713.450	0.0143884
713.528	0.0146240
713.606	0.0149337
713.684	0.0150867
713.762	0.0152649
713.840	0.0153510
713.918	0.0152989
713.996	0.0148943
714.075	0.0146912
714.153	0.0141402
714.231	0.0136772
714.309	0.0133808
714.387	0.0130277
714.465	0.0128229
714.543	0.0126139
714.621	0.0127168
714.700	0.0127361
714.778	0.0129100
714.856	0.0133009
714.934	0.0136603
715.012	0.0141801
715.090	0.0146687
715.168	0.0150393
715.246	0.0155005
715.325	0.0158613
715.403	0.0160371
715.481	0.0161568
715.559	0.0161530
715.637	0.0160027
715.715	0.0159487
715.793	0.0156642
715.871	0.0151149
715.950	0.0148166
716.028	0.0145751
716.106	0.0143929
716.184	0.0142113
716.262	0.0140972
716.340	0.0141035
716.418	0.0141947
716.496	0.0142580
716.575	0.0145570
716.653	0.0147750
716.731	0.0148032
716.809	0.0150455
716.887	0.0148025
716.965	0.0147354
717.043	0.0146162
717.121	0.0144848
717.200	0.0142428
717.278	0.0140905
717.356	0.0137061
717.434	0.0136108
717.512	0.0134937
717.590	0.0134202
717.668	0.0135901
717.746	0.0134999
717.825	0.0136185
717.903	0.0137561
717.981	0.0138954
718.059	0.0141257
718.137	0.0145303
718.215	0.0148496
718.293	0.0151308
718.371	0.0152984
718.450	0.0155070
718.528	0.0155488
718.606	0.0156417
718.684	0.0155358
718.762	0.0153000
718.840	0.0151463
718.918	0.0147206
718.996	0.0145760
719.075	0.0143785
719.153	0.0142518
719.231	0.0141585
719.309	0.0141388
719.387	0.0142131
719.465	0.0142898
719.543	0.0144400
719.621	0.0146104
719.700	0.0148615
719.778	0.0148418
719.856	0.0149165
719.934	0.0150382
720.012	0.0149895
720.090	0.0149554
720.168	0.0148080
720.246	0.0148559
720.325	0.0146912
720.403	0.0144867
720.481	0.0144296
720.559	0.0142831
720.637	0.0140824
720.715	0.0141235
720.793	0.0139066
720.871	0.0141288
720.950	0.0139871
721.028	0.0141050
721.106	0.0142006
721.184	0.0142648
721.262	0.0145274
721.340	0.0148706
721.418	0.0149747
721.496	0.0149533
721.575	0.0151028
721.653	0.0152381
721.731	0.0149673
721.809	0.0149586
721.887	0.0149237
721.965	0.0147801
722.043	0.0145978
722.121	0.0144979
722.200	0.0143929
722.278	0.0140401
722.356	0.0139831
722.434	0.0138127
722.512	0.0137299
722.590	0.0137374
722.668	0.0136694
722.746	0.0137355
722.825	0.0137414
722.903	0.0140455
722.981	0.0143734
723.059	0.0147324
723.137	0.0148977
723.215	0.0151344
723.293	0.0151818
723.371	0.0151932
723.450	0.0152717
723.528	0.0153107
723.606	0.0152818
723.684	0.0151241
723.762	0.0149090
723.840	0.0149389
723.918	0.0149124
723.996	0.0148333
724.075	0.0145766
724.153	0.0146362
724.231	0.0147428
724.309	0.0145483
724.387	0.0146648
724.465	0.0148269
724.543	0.0149500
724.621	0.0148862
724.700	0.0149742
724.778	0.0149547
724.856	0.0148273
724.934	0.0147971
725.012	0.0146638
725.090	0.0143407
725.168	0.0141567
725.246	0.0139822
725.325	0.0136954
725.403	0.0135539
725.481	0.0135036
725.559	0.0132510
725.637	0.0131975
725.715	0.0133012
725.793	0.0134779
725.871	0.0135979
725.950	0.0138308
726.028	0.0142085
726.106	0.0144911
726.184	0.0145013
726.262	0.0147511
726.340	0.0150732
726.418	0.0152789
726.496	0.0153689
726.575	0.0153878
726.653	0.0153658
726.731	0.0154999
726.809	0.0153996
726.887	0.0153775
726.965	0.0153089
727.043	0.0151221
727.121	0.0149439
727.200	0.0148385
727.278	0.0147997
727.356	0.0145843
727.434	0.0146401
727.512	0.0144633
727.590	0.0146558
727.668	0.0146039
727.746	0.0146124
727.825	0.0147934
727.903	0.0148592
727.981	0.0149060
728.059	0.0147718
728.137	0.0147469
728.215	0.0145967
728.293	0.0147143
728.371	0.0145816
728.450	0.0142621
728.528	0.0142205
728.606	0.0141948
728.684	0.0138126
728.762	0.0138075
728.840	0.0138396
728.918	0.0137238
728.996	0.0136134
729.075	0.0137050
729.153	0.0138390
729.231	0.0140223
729.309	0.0141507
729.387	0.0142148
729.465	0.0144284
729.543	0.0145953
729.621	0.0148182
729.700	0.0149474
729.778	0.0150084
729.856	0.0151479
729.934	0.0151141
730.012	0.0150507
730.090	0.0151785
730.168	0.0150232
730.246	0.0149082
730.325	0.0148797
730.403	0.0149071
730.481	0.0148714
730.559	0.0146722
730.637	0.0147385
730.715	0.0147411
730.793	0.0147603
730.871	0.0147440
730.950	0.0148450
731.028	0.0149820
731.106	0.0149435
731.184	0.0149525
731.262	0.0149166
731.340	0.0151044
731.418	0.0148697
731.496	0.0149331
731.575	0.0148560
731.653	0.0146483
731.731	0.0145102
731.809	0.0144045
731.887	0.0142696
731.965	0.0141624
732.043	0.0140588
732.121	0.0140535
732.200	0.0139922
732.278	0.0139680
732.356	0.0140638
732.434	0.0140269
732.512	0.0141595
732.590	0.0141214
732.668	0.0142077
732.746	0.0144211
732.825	0.0146994
732.903	0.0146326
732.981	0.0146806
733.059	0.0146652
733.137	0.0148454
733.215	0.0147739
733.293	0.0148335
733.371	0.0149398
733.450	0.0148705
733.528	0.0146707
733.606	0.0148438
733.684	0.0148346
733.762	0.0146970
733.840	0.0147470
733.918	0.0147801
733.996	0.0148006
734.075	0.0148663
734.153	0.0148614
734.231	0.0148895
734.309	0.0148191
734.387	0.0147323
734.465	0.0146610
734.543	0.0145905
734.621	0.0146170
734.700	0.0145601
734.778	0.0145018
734.856	0.0144430
734.934	0.0143853
735.012	0.0144231
735.090	0.0142597
735.168	0.0143557
735.246	0.0144737
735.325	0.0143472
735.403	0.0142509
735.481	0.0142797
735.559	0.0144590
735.637	0.0145288
735.715	0.0144337
735.793	0.0145283
735.871	0.0144961
735.950	0.0146362
736.028	0.0148067
736.106	0.0145899
736.184	0.0146847
736.262	0.0148141
736.340	0.0148598
736.418	0.0149990
736.496	0.0147740
736.575	0.0148914
736.653	0.0149820
736.731	0.0148952
736.809	0.0149889
736.887	0.0148686
736.965	0.0148286
737.043	0.0147423
737.121	0.0147337
737.200	0.0144279
737.278	0.0143077
737.356	0.0144611
737.434	0.0144655
737.512	0.0143009
737.590	0.0141855
737.668	0.0141973
737.746	0.0141104
737.825	0.0140497
737.903	0.0141407
737.981	0.0141528
738.059	0.0142851
738.137	0.0144146
738.215	0.0145703
738.293	0.0145924
738.371	0.0145572
738.450	0.0148078
738.528	0.0147164
738.606	0.0146378
738.684	0.0147282
738.762	0.0146243
738.840	0.0147349
738.918	0.0147307
738.996	0.0146816
739.075	0.0146020
739.153	0.0147587
739.231	0.0146173
739.309	0.0148348
739.387	0.0147668
739.465	0.0147116
739.543	0.0148898
739.621	0.0149243
739.700	0.0148979
739.778	0.0147115
739.856	0.0148946
739.934	0.0147493
740.012	0.0145795
740.090	0.0146214
740.168	0.0145636
740.246	0.0144523
740.325	0.0143983
740.403	0.0144030
740.481	0.0143201
740.559	0.0142417
740.637	0.0144153
740.715	0.0142412
740.793	0.0142213
740.871	0.0141746
740.950	0.0142732
741.028	0.0143213
741.106	0.0143078
741.184	0.0142391
741.262	0.0144890
741.340	0.0146717
741.418	0.0146046
741.496	0.0144321
741.575	0.0145998
741.653	0.0148853
741.731	0.0144955
741.809	0.0146197
741.887	0.0146648
741.965	0.0145467
742.043	0.0145910
742.121	0.0146611
742.200	0.0146069
742.278	0.0147627
742.356	0.0145902
742.434	0.0146433
742.512	0.0146523
742.590	0.0145773
742.668	0.0145805
742.746	0.0146666
742.825	0.0145293
742.903	0.0145872
742.981	0.0147376
743.059	0.0145827
743.137	0.0145422
743.215	0.0146801
743.293	0.0147422
743.371	0.0148096
743.450	0.0147827
743.528	0.0146642
743.606	0.0147194
743.684	0.0146524
743.762	0.0146661
743.840	0.0146165
743.918	0.0145917
743.996	0.0147919
744.075	0.0144970
744.153	0.0144830
744.231	0.0144829
744.309	0.0144891
744.387	0.0145792
744.465	0.0145089
744.543	0.0144007
744.621	0.0144553
744.700	0.0144505
744.778	0.0145306
744.856	0.0145037
744.934	0.0146310
745.012	0.0146051
745.090	0.0144201
745.168	0.0144044
745.246	0.0145996
745.325	0.0145444
745.403	0.0145866
745.481	0.0144882
745.559	0.0145176
745.637	0.0144200
745.715	0.0144005
745.793	0.0145509
745.871	0.0144981
745.950	0.0146127
746.028	0.0146630
746.106	0.0145583
746.184	0.0146420
746.262	0.0146718
746.340	0.0147047
746.418	0.0148145
746.496	0.0148251
746.575	0.0146848
746.653	0.0146902
746.731	0.0148167
746.809	0.0147215
746.887	0.0146349
746.965	0.0147453
747.043	0.0146791
747.121	0.0147632
747.200	0.0145897
747.278	0.0145972
747.356	0.0145992
747.434	0.0146854
747.512	0.0145251
747.590	0.0144993
747.668	0.0145750
747.746	0.0145995
747.825	0.0144867
747.903	0.0144814
747.981	0.0145346
748.059	0.0145409
748.137	0.0145044
748.215	0.0146130
748.293	0.0144456
748.371	0.0144009
748.450	0.0144376
748.528	0.0144380
748.606	0.0144955
748.684	0.0145130
748.762	0.0144881
748.840	0.0146042
748.918	0.0146453
748.996	0.0146809
749.075	0.0147330
749.153	0.0145484
749.231	0.0147125
749.309	0.0147163
749.387	0.0147240
749.465	0.0145611
749.543	0.0146598
749.621	0.0146462
749.700	0.0144734
749.778	0.0144737
749.856	0.0145715
749.934	0.0145831
750.012	0.0145660
750.090	0.0145248
750.168	0.0144522
750.246	0.0144634
750.325	0.0144737
750.403	0.0144966
750.481	0.0146095
750.559	0.0145125
750.637	0.0144824
750.715	0.0146036
750.793	0.0146046
750.871	0.0143466
750.950	0.0142905
751.028	0.0142726
751.106	0.0144099
751.184	0.0144007
751.262	0.0143907
751.340	0.0143446
751.418	0.0143407
751.496	0.0144263
751.575	0.0145652
751.653	0.0145416
751.731	0.0146464
751.809	0.0146477
751.887	0.0147784
751.965	0.0148767
752.043	0.0148287
752.121	0.0147938
752.200	0.0148884
752.278	0.0147691
752.356	0.0148447
752.434	0.0147514
752.512	0.0147469
752.590	0.0148608
752.668	0.0147058
752.746	0.0146471
752.825	0.0145262
752.903	0.0145831
752.981	0.0144186
753.059	0.0144312
753.137	0.0144650
753.215	0.0144419
753.293	0.0145192
753.371	0.0145300
753.450	0.0144231
753.528	0.0145313
753.606	0.0144339
753.684	0.0144895
753.762	0.0144572
753.840	0.0145956
753.918	0.0144950
753.996	0.0144623
754.075	0.0144646
754.153	0.0145037
754.231	0.0144893
754.309	0.0145227
754.387	0.0144085
754.465	0.0145043
754.543	0.0144532
754.621	0.0144361
754.700	0.0146136
754.778	0.0144581
754.856	0.0145758
754.934	0.0145703
755.012	0.0144710
755.090	0.0144965
755.168	0.0146458
755.246	0.0145492
755.325	0.0146452
755.403	0.0145837
755.481	0.0146474
755.559	0.0147163
755.637	0.0145803
755.715	0.0146352
755.793	0.0147307
755.871	0.0146675
755.950	0.0146361
756.028	0.0144904
756.106	0.0146530
756.184	0.0145711
756.262	0.0146413
756.340	0.0145638
756.418	0.0146207
756.496	0.0146687
756.575	0.0146651
756.653	0.0145236
756.731	0.0145251
756.809	0.0145097
756.887	0.0147105
756.965	0.0145382
757.043	0.0144459
757.121	0.0145552
757.200	0.0145271
757.278	0.0144238
757.356	0.0145837
757.434	0.0146481
757.512	0.0144590
757.590	0.0145372
757.668	0.0144417
757.746	0.0143390
757.825	0.0144263
757.903	0.0145335
757.981	0.0144543
758.059	0.0144382
758.137	0.0145870
758.215	0.0145502
758.293	0.0145060
758.371	0.0145113
758.450	0.0144777
758.528	0.0144794
758.606	0.0145638
758.684	0.0146636
758.762	0.0146205
758.840	0.0147137
758.918	0.0146753
758.996	0.0146629
759.075	0.0146751
759.153	0.0147238
759.231	0.0147392
759.309	0.0147708
759.387	0.0149138
759.465	0.0149517
759.543	0.0147543
759.621	0.0148220
759.700	0.0147553
759.778	0.0147288
759.856	0.0147486
759.934	0.0147526
760.012	0.0147630
760.090	0.0147259
760.168	0.0145782
760.246	0.0145349
760.325	0.0145549
760.403	0.0144550
760.481	0.0144312
760.559	0.0144716
760.637	0.0143801
760.715	0.0142407
760.793	0.0143976
760.871	0.0144219
760.950	0.0143196
761.028	0.0142583
761.106	0.0142992
761.184	0.0143152
761.262	0.0144347
761.340	0.0144947
761.418	0.0142319
761.496	0.0143240
761.575	0.0145504
761.653	0.0145530
761.731	0.0146670
761.809	0.0146385
761.887	0.0146669
761.965	0.0146411
762.043	0.0146527
762.121	0.0147639
762.200	0.0147083
762.278	0.0146721
762.356	0.0145972
762.434	0.0146979
762.512	0.0148450
762.590	0.0147191
762.668	0.0145848
762.746	0.0147227
762.825	0.0147772
762.903	0.0147505
762.981	0.0145458
763.059	0.0147543
763.137	0.0147253
763.215	0.0145345
763.293	0.0145358
763.371	0.0147655
763.450	0.0145659
763.528	0.0146286
763.606	0.0145339
763.684	0.0144975
763.762	0.0143880
763.840	0.0144566
763.918	0.0146794
763.996	0.0145288
764.075	0.0144861
764.153	0.0144137
764.231	0.0145578
764.309	0.0145239
764.387	0.0144857
764.465	0.0144534
764.543	0.0145278
764.621	0.0144784
764.700	0.0144017
764.778	0.0145564
764.856	0.0146133
764.934	0.0145907
765.012	0.0144991
765.090	0.0145605
765.168	0.0144944
765.246	0.0145621
765.325	0.0145525
765.403	0.0146291
765.481	0.0146606
765.559	0.0145709
765.637	0.0146907
765.715	0.0145113
765.793	0.0143846
765.871	0.0144941
765.950	0.0145674
766.028	0.0145782
766.106	0.0145940
766.184	0.0146063
766.262	0.0146152
766.340	0.0144410
766.418	0.0145830
766.496	0.0146510
766.575	0.0146577
766.653	0.0146254
766.731	0.0146224
766.809	0.0146009
766.887	0.0147523
766.965	0.0146754
767.043	0.0147098
767.121	0.0147061
767.200	0.0147130
767.278	0.0147060
767.356	0.0146162
767.434	0.0145988
767.512	0.0147052
767.590	0.0146306
767.668	0.0147279
767.746	0.0146338
767.825	0.0146315
767.903	0.0145157
767.981	0.0145297
768.059	0.0146638
768.137	0.0145908
768.215	0.0145802
768.293	0.0145298
768.371	0.0145371
768.450	0.0143210
768.528	0.0144908
768.606	0.0145432
768.684	0.0145694
768.762	0.0144191
768.840	0.0145459
768.918	0.0144600
768.996	0.0144096
769.075	0.0145515
769.153	0.0144640
769.231	0.0144236
769.309	0.0145393
769.387	0.0145794
769.465	0.0146039
769.543	0.0145408
769.621	0.0145239
769.700	0.0145007
769.778	0.0145435
769.856	0.0145891
769.934	0.0145723
770.012	0.0145815
770.090	0.0146310
770.168	0.0145612
770.246	0.0145700
770.325	0.0147035
770.403	0.0145973
770.481	0.0145887
770.559	0.0145700
770.637	0.0146440
770.715	0.0145717
770.793	0.0147051
770.871	0.0146167
770.950	0.0144694
771.028	0.0145798
771.106	0.0146381
771.184	0.0146706
771.262	0.0145524
771.340	0.0145832
771.418	0.0146625
771.496	0.0146181
771.575	0.0145627
771.653	0.0145666
771.731	0.0145198
771.809	0.0144702
771.887	0.0145736
771.965	0.0146254
772.043	0.0145538
772.121	0.0145109
772.200	0.0145744
772.278	0.0146632
772.356	0.0146053
772.434	0.0147364
772.512	0.0146397
772.590	0.0147670
772.668	0.0147354
772.746	0.0145528
772.825	0.0146748
772.903	0.0146508
772.981	0.0144846
773.059	0.0147115
773.137	0.0146159
773.215	0.0144814
773.293	0.0144963
773.371	0.0144427
773.450	0.0146060
773.528	0.0145023
773.606	0.0145138
773.684	0.0145776
773.762	0.0145435
773.840	0.0144072
773.918	0.0144478
773.996	0.0146146
774.075	0.0145535
774.153	0.0144346
774.231	0.0145021
774.309	0.0145468
774.387	0.0144603
774.465	0.0144151
774.543	0.0145264
774.621	0.0144019
774.700	0.0144388
774.778	0.0144834
774.856	0.0145452
774.934	0.0144640
775.012	0.0144485
775.090	0.0144838
775.168	0.0145119
775.246	0.0145382
775.325	0.0145142
775.403	0.0145937
775.481	0.0146439
775.559	0.0145662
775.637	0.0145432
775.715	0.0145666
775.793	0.0145335
775.871	0.0145229
775.950	0.0144927
776.028	0.0144872
776.106	0.0145201
776.184	0.0145479
776.262	0.0146355
776.340	0.0143420
776.418	0.0145100
776.496	0.0145764
776.575	0.0145969
776.653	0.0146336
776.731	0.0145670
776.809	0.0146191
776.887	0.0147159
776.965	0.0146318
777.043	0.0145922
777.121	0.0144405
777.200	0.0145567
777.278	0.0148786
777.356	0.0145789
777.434	0.0145360
777.512	0.0145850
777.590	0.0144994
777.668	0.0146593
777.746	0.0145004
777.825	0.0144472
777.903	0.0145787
777.981	0.0145715
778.059	0.0145705
778.137	0.0144975
778.215	0.0145817
778.293	0.0145226
778.371	0.0145768
778.450	0.0145981
778.528	0.0146004
778.606	0.0144633
778.684	0.0145985
778.762	0.0145000
778.840	0.0144888
778.918	0.0146206
778.996	0.0145271
779.075	0.0144892
779.153	0.0144794
779.231	0.0145952
779.309	0.0145348
779.387	0.0144978
779.465	0.0144836
779.543	0.0143974
779.621	0.0145231
779.700	0.0145132
779.778	0.0145280
779.856	0.0147006
779.934	0.0145060
780.012	0.0145751
780.090	0.0145636
780.168	0.0146150
780.246	0.0146546
780.325	0.0145000
780.403	0.0146590
780.481	0.0145774
780.559	0.0146092
780.637	0.0146420
780.715	0.0144869
780.793	0.0145393
780.871	0.0146513
780.950	0.0144450
781.028	0.0144689
781.106	0.0144524
781.184	0.0145588
781.262	0.0145273
781.340	0.0144966
781.418	0.0143478
781.496	0.0145229
781.575	0.0146495
781.653	0.0145215
781.731	0.0144334
781.809	0.0145606
781.887	0.0144495
781.965	0.0145949
782.043	0.0145979
782.121	0.0144930
782.200	0.0145137
782.278	0.0145048
782.356	0.0145961
782.434	0.0146467
782.512	0.0145399
782.590	0.0144495
782.668	0.0145644
782.746	0.0146505
782.825	0.0146099
782.903	0.0145777
782.981	0.0146046
783.059	0.0144923
783.137	0.0145251
783.215	0.0146471
783.293	0.0147527
783.371	0.0145593
783.450	0.0146818
783.528	0.0146521
783.606	0.0146301
783.684	0.0146909
783.762	0.0145076
783.840	0.0146513
783.918	0.0146763
783.996	0.0145983
784.075	0.0146616
784.153	0.0144814
784.231	0.0145512
784.309	0.0146046
784.387	0.0144946
784.465	0.0145322
784.543	0.0145126
784.621	0.0145038
784.700	0.0144760
784.778	0.0144712
784.856	0.0144944
784.934	0.0144406
785.012	0.0145799
785.090	0.0145078
785.168	0.0145827
785.246	0.0144619
785.325	0.0146365
785.403	0.0145848
785.481	0.0145105
785.559	0.0144910
785.637	0.0144126
785.715	0.0144696
785.793	0.0144383
785.871	0.0144902
785.950	0.0144761
786.028	0.0146158
786.106	0.0145818
786.184	0.0146049
786.262	0.0145521
786.340	0.0144742
786.418	0.0145862
786.496	0.0144770
786.575	0.0145010
786.653	0.0145319
786.731	0.0145051
786.809	0.0145325
786.887	0.0145774
786.965	0.0146894
787.043	0.0146553
787.121	0.0145599
787.200	0.0145215
787.278	0.0145986
787.356	0.0145837
787.434	0.0145874
787.512	0.0146259
787.590	0.0146263
787.668	0.0145808
787.746	0.0146587
787.825	0.0146423
787.903	0.0145897
787.981	0.0146764
788.059	0.0145342
788.137	0.0146627
788.215	0.0146561
788.293	0.0145856
788.371	0.0146139
788.450	0.0146622
788.528	0.0144456
788.606	0.0144771
788.684	0.0145877
788.762	0.0146177
788.840	0.0145721
788.918	0.0145444
788.996	0.0144505
789.075	0.0144782
789.153	0.0145190
789.231	0.0145431
789.309	0.0143799
789.387	0.0144115
789.465	0.0145155
789.543	0.0145551
789.621	0.0145010
789.700	0.0145400
789.778	0.0145090
789.856	0.0144541
789.934	0.0145190
790.012	0.0145157
790.090	0.0146070
790.168	0.0144524
790.246	0.0146088
790.325	0.0146506
790.403	0.0145799
790.481	0.0146009
790.559	0.0145567
790.637	0.0145162
790.715	0.0145161
790.793	0.0145668
790.871	0.0146252
790.950	0.0145365
791.028	0.0146156
791.106	0.0146297
791.184	0.0145891
791.262	0.0145523
791.340	0.0144440
791.418	0.0146527
791.496	0.0145824
791.575	0.0145685
791.653	0.0145686
791.731	0.0145149
791.809	0.0146827
791.887	0.0146437
791.965	0.0144830
792.043	0.0146880
792.121	0.0146352
792.200	0.0146228
792.278	0.0145947
792.356	0.0146616
792.434	0.0145440
792.512	0.0144715
792.590	0.0145618
792.668	0.0145074
792.746	0.0145605
792.825	0.0145132
792.903	0.0145560
792.981	0.0145971
793.059	0.0145166
793.137	0.0144652
793.215	0.0146000
793.293	0.0145049
793.371	0.0145681
793.450	0.0145621
793.528	0.0143718
793.606	0.0144647
793.684	0.0145251
793.762	0.0143596
793.840	0.0145087
793.918	0.0145440
793.996	0.0145166
794.075	0.0145152
794.153	0.0144238
794.231	0.0145538
794.309	0.0146168
794.387	0.0144407
794.465	0.0144536
794.543	0.0144728
794.621	0.0146339
794.700	0.0145706
794.778	0.0146001
794.856	0.0146542
794.934	0.0145028
795.012	0.0146017
795.090	0.0146418
795.168	0.0146461
795.246	0.0145142
795.325	0.0146525
795.403	0.0146114
795.481	0.0146278
795.559	0.0146124
795.637	0.0145803
795.715	0.0145008
795.793	0.0145351
795.871	0.0146780
795.950	0.0145332
796.028	0.0146050
796.106	0.0146540
796.184	0.0144613
796.262	0.0146094
796.340	0.0145673
796.418	0.0145803
796.496	0.0146841
796.575	0.0146354
796.653	0.0144674
796.731	0.0144862
796.809	0.0144595
796.887	0.0146858
796.965	0.0146175
797.043	0.0145010
797.121	0.0145188
797.200	0.0144698
797.278	0.0145897
797.356	0.0146250
797.434	0.0144480
797.512	0.0145519
797.590	0.0147268
797.668	0.0144403
797.746	0.0146026
797.825	0.0146004
797.903	0.0144973
797.981	0.0145312
798.059	0.0144881
798.137	0.0146024
798.215	0.0144547
798.293	0.0144687
798.371	0.0145115
798.450	0.0145702
798.528	0.0145150
798.606	0.0146347
798.684	0.0146638
798.762	0.0145595
798.840	0.0145988
798.918	0.0146838
798.996	0.0146052
799.075	0.0145462
799.153	0.0146449
799.231	0.0146298
799.309	0.0145849
799.387	0.0144915
799.465	0.0144818
799.543	0.0146992
799.621	0.0146024
799.700	0.0147311
799.778	0.0146188
799.856	0.0147092
799.934	0.0145145
800.012	0.0145709
800.090	0.0144519
800.168	0.0145512
800.246	0.0145551
800.325	0.0146136
800.403	0.0146443
800.481	0.0145496
800.559	0.0145724
800.637	0.0146391
800.715	0.0145412
800.793	0.0145168
800.871	0.0145782
800.950	0.0145699
801.028	0.0145827
801.106	0.0146228
801.184	0.0145379
801.262	0.0146434
801.340	0.0144594
801.418	0.0145316
801.496	0.0146206
801.575	0.0144730
801.653	0.0145282
801.731	0.0145410
801.809	0.0144425
801.887	0.0145223
801.965	0.0145868
802.043	0.0144485
802.121	0.0145120
802.200	0.0145679
802.278	0.0144911
802.356	0.0144785
802.434	0.0146022
802.512	0.0145486
802.590	0.0146564
802.668	0.0145196
802.746	0.0146004
802.825	0.0146864
802.903	0.0145940
802.981	0.0146194
803.059	0.0146603
803.137	0.0147096
803.215	0.0146721
803.293	0.0146973
803.371	0.0145986
803.450	0.0147108
803.528	0.0146518
803.606	0.0147758
803.684	0.0147062
803.762	0.0147153
803.840	0.0146951
803.918	0.0146643
803.996	0.0146062
804.075	0.0146618
804.153	0.0146604
804.231	0.0145866
804.309	0.0145094
804.387	0.0145405
804.465	0.0144830
804.543	0.0144742
804.621	0.0144649
804.700	0.0144988
804.778	0.0145702
804.856	0.0145477
804.934	0.0144522
805.012	0.0144917
805.090	0.0144604
805.168	0.0146467
805.246	0.0145735
805.325	0.0146291
805.403	0.0145326
805.481	0.0145280
805.559	0.0147083
805.637	0.0145843
805.715	0.0145551
805.793	0.0147205
805.871	0.0147031
805.950	0.0146528
806.028	0.0146754
806.106	0.0146415
806.184	0.0145867
806.262	0.0146111
806.340	0.0146294
806.418	0.0148222
806.496	0.0146701
806.575	0.0146189
806.653	0.0147271
806.731	0.0147336
806.809	0.0147051
806.887	0.0145964
806.965	0.0145291
807.043	0.0147277
807.121	0.0147063
807.200	0.0145784
807.278	0.0145901
807.356	0.0144839
807.434	0.0144768
807.512	0.0144663
807.590	0.0144136
807.668	0.0144302
807.746	0.0146255
807.825	0.0144968
807.903	0.0144734
807.981	0.0145230
808.059	0.0144343
808.137	0.0145372
808.215	0.0146172
808.293	0.0145889
808.371	0.0145991
808.450	0.0144892
808.528	0.0145895
808.606	0.0146757
808.684	0.0146594
808.762	0.0147077
808.840	0.0145144
808.918	0.0146974
808.996	0.0147905
809.075	0.0148924
809.153	0.0148357
809.231	0.0146751
809.309	0.0146158
809.387	0.0146468
809.465	0.0146876
809.543	0.0146652
809.621	0.0146435
809.700	0.0146658
809.778	0.0146091
809.856	0.0145634
809.934	0.0146410
810.012	0.0146731
810.090	0.0146123
810.168	0.0144608
810.246	0.0145786
810.325	0.0144599
810.403	0.0143232
810.481	0.0144633
810.559	0.0144180
810.637	0.0143634
810.715	0.0145716
810.793	0.0144289
810.871	0.0145006
810.950	0.0146247
811.028	0.0144512
811.106	0.0145992
811.184	0.0145493
811.262	0.0145950
811.340	0.0146183
811.418	0.0145925
811.496	0.0146300
811.575	0.0148235
811.653	0.0147166
811.731	0.0146511
811.809	0.0146390
811.887	0.0148554
811.965	0.0146983
812.043	0.0147723
812.121	0.0146730
812.200	0.0145943
812.278	0.0146684
812.356	0.0146110
812.434	0.0145524
812.512	0.0147462
812.590	0.0145264
812.668	0.0145163
812.746	0.0145860
812.825	0.0146823
812.903	0.0146166
812.981	0.0145866
813.059	0.0145437
813.137	0.0144695
813.215	0.0145605
813.293	0.0145421
813.371	0.0143539
813.450	0.0143935
813.528	0.0145306
813.606	0.0144837
813.684	0.0144037
813.762	0.0145724
813.840	0.0143672
813.918	0.0142847
813.996	0.0145060
814.075	0.0144914
814.153	0.0144080
814.231	0.0145865
814.309	0.0145666
814.387	0.0145087
814.465	0.0145125
814.543	0.0146462
814.621	0.0146889
814.700	0.0146736
814.778	0.0146776
814.856	0.0145898
814.934	0.0147168
815.012	0.0147098
815.090	0.0146471
815.168	0.0144878
815.246	0.0144382
815.325	0.0145393
815.403	0.0145557
815.481	0.0145144
815.559	0.0145687
815.637	0.0144234
815.715	0.0145479
815.793	0.0145525
815.871	0.0145568
815.950	0.0145342
816.028	0.0145675
816.106	0.0145265
816.184	0.0144728
816.262	0.0145263
816.340	0.0145239
816.418	0.0144932
816.496	0.0145265
816.575	0.0144776
816.653	0.0146040
816.731	0.0144662
816.809	0.0145132
816.887	0.0146663
816.965	0.0145987
817.043	0.0144169
817.121	0.0144936
817.200	0.0145974
817.278	0.0145767
817.356	0.0146005
817.434	0.0145734
817.512	0.0145808
817.590	0.0145682
817.668	0.0146059
817.746	0.0146634
817.825	0.0146304
817.903	0.0146711
817.981	0.0146554
818.059	0.0146309
818.137	0.0145583
818.215	0.0146143
818.293	0.0145934
818.371	0.0143899
818.450	0.0144876
818.528	0.0144419
818.606	0.0144794
818.684	0.0146007
818.762	0.0144469
818.840	0.0145172
818.918	0.0145348
818.996	0.0145405
819.075	0.0146094
819.153	0.0146205
819.231	0.0147089
819.309	0.0146696
819.387	0.0146040
819.465	0.0145319
819.543	0.0146799
819.621	0.0145650
819.700	0.0145164
819.778	0.0146415
819.856	0.0145162
819.934	0.0146525
820.012	0.0146644
820.090	0.0146951
820.168	0.0146313
820.246	0.0144879
820.325	0.0146261
820.403	0.0145465
820.481	0.0146315
820.559	0.0146484
820.637	0.0147150
820.715	0.0145986
820.793	0.0145975
820.871	0.0145050
820.950	0.0147164
821.028	0.0146370
821.106	0.0146608
821.184	0.0145277
821.262	0.0145595
821.340	0.0144551
821.418	0.0145895
821.496	0.0145444
821.575	0.0145449
821.653	0.0145232
821.731	0.0144622
821.809	0.0145091
821.887	0.0143835
821.965	0.0144302
822.043	0.0145554
822.121	0.0144633
822.200	0.0145539
822.278	0.0145075
822.356	0.0144360
822.434	0.0146008
822.512	0.0144953
822.590	0.0145523
822.668	0.0145637
822.746	0.0144627
822.825	0.0146326
822.903	0.0145490
822.981	0.0144896
823.059	0.0144990
823.137	0.0145450
823.215	0.0145708
823.293	0.0147714
823.371	0.0147633
823.450	0.0146449
823.528	0.0145896
823.606	0.0146643
823.684	0.0146292
823.762	0.0145522
823.840	0.0146562
823.918	0.0146967
823.996	0.0145898
824.075	0.0146144
824.153	0.0146384
824.231	0.0147439
824.309	0.0146153
824.387	0.0144321
824.465	0.0146108
824.543	0.0146590
824.621	0.0146305
824.700	0.0145764
824.778	0.0146329
824.856	0.0144640
824.934	0.0144665
825.012	0.0145556
825.090	0.0145780
825.168	0.0145071
825.246	0.0144398
825.325	0.0145488
825.403	0.0145454
825.481	0.0145359
825.559	0.0145349
825.637	0.0144171
825.715	0.0145654
825.793	0.0144511
825.871	0.0144901
825.950	0.0145006
826.028	0.0146304
826.106	0.0146141
826.184	0.0145722
826.262	0.0145763
826.340	0.0145091
826.418	0.0144798
826.496	0.0145617
826.575	0.0146330
826.653	0.0147767
826.731	0.0147228
826.809	0.0146053
826.887	0.0146806
826.965	0.0147395
827.043	0.0145989
827.121	0.0146763
827.200	0.0147512
827.278	0.0147828
827.356	0.0146440
827.434	0.0146657
827.512	0.0146004
827.590	0.0146346
827.668	0.0146827
827.746	0.0146642
827.825	0.0145616
827.903	0.0147951
827.981	0.0146308
828.059	0.0146204
828.137	0.0146183
828.215	0.0146428
828.293	0.0145824
828.371	0.0145716
828.450	0.0144280
828.528	0.0145673
828.606	0.0145956
828.684	0.0145948
828.762	0.0144848
828.840	0.0145353
828.918	0.0145239
828.996	0.0145528
829.075	0.0145092
829.153	0.0145255
829.231	0.0144852
829.309	0.0144414
829.387	0.0146359
829.465	0.0147025
829.543	0.0145701
829.621	0.0145731
829.700	0.0145779
829.778	0.0145329
829.856	0.0144954
829.934	0.0145152
830.012	0.0146220
830.090	0.0145317
830.168	0.0145491
830.246	0.0145945
830.325	0.0147210
830.403	0.0146465
830.481	0.0146579
830.559	0.0146622
830.637	0.0145776
830.715	0.0144402
830.793	0.0146616
830.871	0.0145150
830.950	0.0145446
831.028	0.0144872
831.106	0.0146426
831.184	0.0145721
831.262	0.0145114
831.340	0.0145880
831.418	0.0145955
831.496	0.0145864
831.575	0.0145412
831.653	0.0144722
831.731	0.0145255
831.809	0.0145934
831.887	0.0145836
831.965	0.0145683
832.043	0.0145033
832.121	0.0146204
832.200	0.0145453
832.278	0.0144930
832.356	0.0145856
832.434	0.0146426
832.512	0.0146535
832.590	0.0144240
832.668	0.0144859
832.746	0.0146375
832.825	0.0145596
832.903	0.0144162
832.981	0.0145393
833.059	0.0145588
833.137	0.0144226
833.215	0.0144521
833.293	0.0145872
833.371	0.0145625
833.450	0.0143396
833.528	0.0145701
833.606	0.0144946
833.684	0.0146003
833.762	0.0145377
833.840	0.0145084
833.918	0.0144530
833.996	0.0145782
834.075	0.0145858
834.153	0.0145791
834.231	0.0145979
834.309	0.0145329
834.387	0.0145795
834.465	0.0145879
834.543	0.0146771
834.621	0.0145981
834.700	0.0146038
834.778	0.0144962
834.856	0.0147308
834.934	0.0146278
835.012	0.0146415
835.090	0.0145457
835.168	0.0145840
835.246	0.0145629
835.325	0.0145752
835.403	0.0144916
835.481	0.0146587
835.559	0.0146386
835.637	0.0146098
835.715	0.0146754
835.793	0.0144453
835.871	0.0146012
835.950	0.0145598
836.028	0.0145119
836.106	0.0145323
836.184	0.0144135
836.262	0.0146548
836.340	0.0145260
836.418	0.0144875
836.496	0.0145986
836.575	0.0145869
836.653	0.0144193
836.731	0.0145589
836.809	0.0144827
836.887	0.0144137
836.965	0.0144189
837.043	0.0145444
837.121	0.0145473
837.200	0.0145293
837.278	0.0144810
837.356	0.0144650
837.434	0.0144926
837.512	0.0144943
837.590	0.0144968
837.668	0.0145390
837.746	0.0145337
837.825	0.0145651
837.903	0.0144910
837.981	0.0144692
838.059	0.0144526
838.137	0.0145615
838.215	0.0145978
838.293	0.0145666
838.371	0.0145181
838.450	0.0144937
838.528	0.0145026
838.606	0.0146213
838.684	0.0147557
838.762	0.0146064
838.840	0.0146194
838.918	0.0146036
838.996	0.0145653
839.075	0.0146144
839.153	0.0145296
839.231	0.0146200
839.309	0.0145558
839.387	0.0144991
839.465	0.0144860
839.543	0.0145924
839.621	0.0146204
839.700	0.0145259
839.778	0.0144466
839.856	0.0145157
839.934	0.0146217
840.012	0.0146390
840.090	0.0144061
840.168	0.0143810
840.246	0.0145193
840.325	0.0146278
840.403	0.0146776
840.481	0.0145785
840.559	0.0143316
840.637	0.0145716
840.715	0.0144432
840.793	0.0145908
840.871	0.0145279
840.950	0.0145058
841.028	0.0145640
841.106	0.0144567
841.184	0.0144593
841.262	0.0143432
841.340	0.0145756
841.418	0.0145145
841.496	0.0145840
841.575	0.0144842
841.653	0.0145499
841.731	0.0145678
841.809	0.0146013
841.887	0.0145129
841.965	0.0145266
842.043	0.0145114
842.121	0.0145123
842.200	0.0146568
842.278	0.0145827
842.356	0.0145478
842.434	0.0145784
842.512	0.0145792
842.590	0.0146339
842.668	0.0146252
842.746	0.0145544
842.825	0.0144364
842.903	0.0145931
842.981	0.0145355
843.059	0.0145420
843.137	0.0145167
843.215	0.0143941
843.293	0.0145018
843.371	0.0144273
843.450	0.0144595
843.528	0.0146078
843.606	0.0144143
843.684	0.0145196
843.762	0.0145329
843.840	0.0144009
843.918	0.0144594
843.996	0.0145471
844.075	0.0145296
844.153	0.0146158
844.231	0.0145607
844.309	0.0144871
844.387	0.0144949
844.465	0.0145423
844.543	0.0144925
844.621	0.0146227
844.700	0.0145493
844.778	0.0144990
844.856	0.0146216
844.934	0.0145831
845.012	0.0145765
845.090	0.0145819
845.168	0.0145558
845.246	0.0148529
845.325	0.0146228
845.403	0.0145905
845.481	0.0144988
845.559	0.0147216
845.637	0.0146788
845.715	0.0145116
845.793	0.0145782
845.871	0.0145689
845.950	0.0144978
846.028	0.0146017
846.106	0.0143726
846.184	0.0146073
846.262	0.0146045
846.340	0.0145951
846.418	0.0144881
846.496	0.0144468
846.575	0.0145849
846.653	0.0144354
846.731	0.0144684
846.809	0.0144662
846.887	0.0144743
846.965	0.0144901
847.043	0.0146136
847.121	0.0145262
847.200	0.0145792
847.278	0.0144732
847.356	0.0145526
847.434	0.0146201
847.512	0.0144928
847.590	0.0145052
847.668	0.0147077
847.746	0.0146283
847.825	0.0146526
847.903	0.0146024
847.981	0.0146664
848.059	0.0146839
848.137	0.0146925
848.215	0.0145420
848.293	0.0145934
848.371	0.0146703
848.450	0.0146307
848.528	0.0146678
848.606	0.0147234
848.684	0.0147226
848.762	0.0147055
848.840	0.0146596
848.918	0.0146047
848.996	0.0146363
849.075	0.0146788
849.153	0.0145366
849.231	0.0146739
849.309	0.0145108
849.387	0.0145979
849.465	0.0145357
849.543	0.0145841
849.621	0.0145268
849.700	0.0146252
849.778	0.0146683
849.856	0.0145004
849.934	0.0145313
850.012	0.0143843
850.090	0.0145044
850.168	0.0144977
850.246	0.0146812
850.325	0.0145862
850.403	0.0146593
850.481	0.0144359
850.559	0.0145946
850.637	0.0146622
850.715	0.0144857
850.793	0.0145779
850.871	0.0145760
850.950	0.0146127
851.028	0.0146958
851.106	0.0146721
851.184	0.0146022
851.262	0.0145552
851.340	0.0146564
851.418	0.0146865
851.496	0.0146267
851.575	0.0146733
851.653	0.0145927
851.731	0.0145394
851.809	0.0144905
851.887	0.0146603
851.965	0.0145772
852.043	0.0144976
852.121	0.0145225
852.200	0.0144633
852.278	0.0145979
852.356	0.0146288
852.434	0.0145673
852.512	0.0145793
852.590	0.0145656
852.668	0.0145262
852.746	0.0146580
852.825	0.0146024
852.903	0.0146426
852.981	0.0145630
853.059	0.0145805
853.137	0.0145407
853.215	0.0144255
853.293	0.0145449
853.371	0.0146149
853.450	0.0145285
853.528	0.0145602
853.606	0.0146303
853.684	0.0146355
853.762	0.0145882
853.840	0.0146080
853.918	0.0146249
853.996	0.0145770
854.075	0.0144382
854.153	0.0146160
854.231	0.0143877
854.309	0.0146348
854.387	0.0146529
854.465	0.0145666
854.543	0.0145808
854.621	0.0145199
854.700	0.0143946
854.778	0.0144704
854.856	0.0145987
854.934	0.0145294
855.012	0.0143386
855.090	0.0145345
855.168	0.0145675
855.246	0.0143819
855.325	0.0145757
855.403	0.0145559
855.481	0.0145104
855.559	0.0143488
855.637	0.0145373
855.715	0.0143966
855.793	0.0144427
855.871	0.0144884
855.950	0.0145010
856.028	0.0144135
856.106	0.0144304
856.184	0.0146372
856.262	0.0145351
856.340	0.0145433
856.418	0.0144688
856.496	0.0145258
856.575	0.0144460
856.653	0.0145980
856.731	0.0144461
856.809	0.0145853
856.887	0.0145044
856.965	0.0146497
857.043	0.0145805
857.121	0.0146496
857.200	0.0147365
857.278	0.0145462
857.356	0.0146175
857.434	0.0144785
857.512	0.0145872
857.590	0.0146600
857.668	0.0145645
857.746	0.0145165
857.825	0.0145012
857.903	0.0145203
857.981	0.0144968
858.059	0.0144410
858.137	0.0143756
858.215	0.0145521
858.293	0.0146809
858.371	0.0144370
858.450	0.0145197
858.528	0.0144913
858.606	0.0144834
858.684	0.0145762
858.762	0.0144628
858.840	0.0145296
858.918	0.0145084
858.996	0.0146877
859.075	0.0145636
859.153	0.0145862
859.231	0.0145774
859.309	0.0143970
859.387	0.0145081
859.465	0.0144788
859.543	0.0145801
859.621	0.0147217
859.700	0.0144174
859.778	0.0145164
859.856	0.0144045
859.934	0.0144135
860.012	0.0145683
860.090	0.0145858
860.168	0.0145786
860.246	0.0145033
860.325	0.0144418
860.403	0.0145241
860.481	0.0145755
860.559	0.0146426
860.637	0.0144621
860.715	0.0145576
860.793	0.0145115
860.871	0.0146329
860.950	0.0145625
861.028	0.0145473
861.106	0.0144976
861.184	0.0145708
861.262	0.0145168
861.340	0.0145870
861.418	0.0143867
861.496	0.0144212
861.575	0.0144064
861.653	0.0144537
861.731	0.0144852
861.809	0.0143966
861.887	0.0145136
861.965	0.0144952
862.043	0.0145427
862.121	0.0144720
862.200	0.0145574
862.278	0.0145020
862.356	0.0144997
862.434	0.0144489
862.512	0.0146918
862.590	0.0145500
862.668	0.0145603
862.746	0.0146404
862.825	0.0144051
862.903	0.0145586
862.981	0.0144915
863.059	0.0146134
863.137	0.0145048
863.215	0.0145733
863.293	0.0146862
863.371	0.0144884
863.450	0.0145188
863.528	0.0146407
863.606	0.0145491
863.684	0.0144798
863.762	0.0145914
863.840	0.0145057
863.918	0.0144308
863.996	0.0145052
864.075	0.0144686
864.153	0.0146655
864.231	0.0145764
864.309	0.0146091
864.387	0.0145292
864.465	0.0145775
864.543	0.0145460
864.621	0.0146483
864.700	0.0145355
864.778	0.0145769
864.856	0.0144875
864.934	0.0144945
865.012	0.0144883
865.090	0.0144038
865.168	0.0146458
865.246	0.0146444
865.325	0.0144861
865.403	0.0145789
865.481	0.0146010
865.559	0.0145207
865.637	0.0144833
865.715	0.0145703
865.793	0.0146021
865.871	0.0146482
865.950	0.0146090
866.028	0.0146639
866.106	0.0146173
866.184	0.0145361
866.262	0.0145291
866.340	0.0145490
866.418	0.0145950
866.496	0.0146274
866.575	0.0146907
866.653	0.0145412
866.731	0.0146378
866.809	0.0145933
866.887	0.0145168
866.965	0.0146223
867.043	0.0146207
867.121	0.0145094
867.200	0.0147730
867.278	0.0145556
867.356	0.0145229
867.434	0.0146217
867.512	0.0145647
867.590	0.0144717
867.668	0.0145563
867.746	0.0145953
867.825	0.0145831
867.903	0.0144501
867.981	0.0145595
868.059	0.0146008
868.137	0.0145412
868.215	0.0145586
868.293	0.0144807
868.371	0.0144185
868.450	0.0145599
868.528	0.0146785
868.606	0.0144679
868.684	0.0145567
868.762	0.0147282
868.840	0.0145830
868.918	0.0145818
868.996	0.0145342
869.075	0.0148112
869.153	0.0145515
869.231	0.0145386
869.309	0.0147185
869.387	0.0146807
869.465	0.0145367
869.543	0.0145835
869.621	0.0146214
869.700	0.0145766
869.778	0.0146531
869.856	0.0146079
869.934	0.0145621
870.012	0.0146724
870.090	0.0146771
870.168	0.0145403
870.246	0.0145886
870.325	0.0145876
870.403	0.0145392
870.481	0.0145348
870.559	0.0145422
870.637	0.0145850
870.715	0.0145757
870.793	0.0143250
870.871	0.0144788
870.950	0.0146587
871.028	0.0147630
871.106	0.0143614
871.184	0.0144576
871.262	0.0145949
871.340	0.0145164
871.418	0.0144508
871.496	0.0144197
871.575	0.0144884
871.653	0.0146339
871.731	0.0146063
871.809	0.0145014
871.887	0.0145059
871.965	0.0146082
872.043	0.0144843
872.121	0.0145319
872.200	0.0145711
872.278	0.0145573
872.356	0.0146333
872.434	0.0146023
872.512	0.0146288
872.590	0.0146265
872.668	0.0146085
872.746	0.0146568
872.825	0.0145888
872.903	0.0146078
872.981	0.0146217
873.059	0.0146302
873.137	0.0147332
873.215	0.0145472
873.293	0.0145818
873.371	0.0146786
873.450	0.0146014
873.528	0.0147276
873.606	0.0145152
873.684	0.0145554
873.762	0.0146345
873.840	0.0145938
873.918	0.0145522
873.996	0.0146932
874.075	0.0145795
874.153	0.0143843
874.231	0.0145572
874.309	0.0145572
874.387	0.0145653
874.465	0.0144665
874.543	0.0145589
874.621	0.0145534
874.700	0.0146175
874.778	0.0146008
874.856	0.0145597
874.934	0.0146212
875.012	0.0145900
875.090	0.0147359
875.168	0.0146703
875.246	0.0145158
875.325	0.0146246
875.403	0.0146453
875.481	0.0144738
875.559	0.0145769
875.637	0.0144650
875.715	0.0146819
875.793	0.0146572
875.871	0.0147595
875.950	0.0144257
876.028	0.0144329
876.106	0.0146288
876.184	0.0145230
876.262	0.0144127
876.340	0.0144904
876.418	0.0144695
876.496	0.0144791
876.575	0.0143552
876.653	0.0145105
876.731	0.0144891
876.809	0.0144531
876.887	0.0144758
876.965	0.0143410
877.043	0.0145639
877.121	0.0144810
877.200	0.0144387
877.278	0.0145868
877.356	0.0145036
877.434	0.0144859
877.512	0.0144470
877.590	0.0145732
877.668	0.0144661
877.746	0.0145617
877.825	0.0145048
877.903	0.0145290
877.981	0.0148221
878.059	0.0146681
878.137	0.0147001
878.215	0.0145956
878.293	0.0146207
878.371	0.0145390
878.450	0.0146381
878.528	0.0145126
878.606	0.0144812
878.684	0.0146732
878.762	0.0144854
878.840	0.0147343
878.918	0.0145157
878.996	0.0145275
879.075	0.0146828
879.153	0.0145365
879.231	0.0145219
879.309	0.0146650
879.387	0.0145493
879.465	0.0145936
879.543	0.0146848
879.621	0.0145296
879.700	0.0144068
879.778	0.0144705
879.856	0.0145074
879.934	0.0145624
880.012	0.0145361
880.090	0.0145590
880.168	0.0144495
880.246	0.0144852
880.325	0.0145528
880.403	0.0145710
880.481	0.0146964
880.559	0.0144972
880.637	0.0145918
880.715	0.0145304
880.793	0.0145121
880.871	0.0145003
880.950	0.0145478
881.028	0.0145377
881.106	0.0146192
881.184	0.0146358
881.262	0.0145374
881.340	0.0145591
881.418	0.0146020
881.496	0.0144765
881.575	0.0144650
881.653	0.0145757
881.731	0.0145822
881.809	0.0145862
881.887	0.0144901
881.965	0.0144627
882.043	0.0144225
882.121	0.0144701
882.200	0.0145589
882.278	0.0145377
882.356	0.0143961
882.434	0.0145262
882.512	0.0145227
882.590	0.0145481
882.668	0.0146170
882.746	0.0145065
882.825	0.0145096
882.903	0.0145374
882.981	0.0145541
883.059	0.0145506
883.137	0.0144634
883.215	0.0145380
883.293	0.0144489
883.371	0.0144960
883.450	0.0146450
883.528	0.0145699
883.606	0.0146228
883.684	0.0145899
883.762	0.0145818
883.840	0.0146309
883.918	0.0146104
883.996	0.0145882
884.075	0.0146579
884.153	0.0145629
884.231	0.0144913
884.309	0.0144498
884.387	0.0145358
884.465	0.0146439
884.543	0.0145161
884.621	0.0145677
884.700	0.0146752
884.778	0.0146506
884.856	0.0145155
884.934	0.0145838
885.012	0.0146712
885.090	0.0145870
885.168	0.0145293
885.246	0.0145628
885.325	0.0145165
885.403	0.0146719
885.481	0.0146210
885.559	0.0146424
885.637	0.0146647
885.715	0.0144379
885.793	0.0145769
885.871	0.0146455
885.950	0.0146523
886.028	0.0146246
886.106	0.0145023
886.184	0.0145374
886.262	0.0143620
886.340	0.0145602
886.418	0.0145421
886.496	0.0144135
886.575	0.0144893
886.653	0.0145210
886.731	0.0144525
886.809	0.0145461
886.887	0.0143651
886.965	0.0144608
887.043	0.0144695
887.121	0.0145029
887.200	0.0144656
887.278	0.0144742
887.356	0.0145657
887.434	0.0144335
887.512	0.0144514
887.590	0.0146918
887.668	0.0146973
887.746	0.0145678
887.825	0.0145868
887.903	0.0147479
887.981	0.0146327
888.059	0.0147401
888.137	0.0147620
888.215	0.0146964
888.293	0.0146623
888.371	0.0147607
888.450	0.0147606
888.528	0.0146799
888.606	0.0146330
888.684	0.0145780
888.762	0.0145747
888.840	0.0145340
888.918	0.0143488
888.996	0.0144899
889.075	0.0145284
889.153	0.0144227
889.231	0.0144476
889.309	0.0144554
889.387	0.0146481
889.465	0.0143837
889.543	0.0144980
889.621	0.0146057
889.700	0.0144826
889.778	0.0146712
889.856	0.0147275
889.934	0.0146671
890.012	0.0147274
890.090	0.0146312
890.168	0.0147200
890.246	0.0146992
890.325	0.0147098
890.403	0.0148291
890.481	0.0146631
890.559	0.0146173
890.637	0.0145169
890.715	0.0146989
890.793	0.0146922
890.871	0.0146923
890.950	0.0145544
891.028	0.0145654
891.106	0.0145016
891.184	0.0146712
891.262	0.0145536
891.340	0.0144724
891.418	0.0145164
891.496	0.0145556
891.575	0.0145628
891.653	0.0144668
891.731	0.0145139
891.809	0.0144859
891.887	0.0146071
891.965	0.0147343
892.043	0.0147044
892.121	0.0145340
892.200	0.0147556
892.278	0.0147054
892.356	0.0146586
892.434	0.0146506
892.512	0.0147628
892.590	0.0145875
892.668	0.0146365
892.746	0.0145291
892.825	0.0145060
892.903	0.0144308
892.981	0.0145082
893.059	0.0145281
893.137	0.0144622
893.215	0.0145213
893.293	0.0147488
893.371	0.0146161
893.450	0.0146356
893.528	0.0146247
893.606	0.0145544
893.684	0.0146913
893.762	0.0146938
893.840	0.0146917
893.918	0.0145966
893.996	0.0145331
894.075	0.0145251
894.153	0.0144894
894.231	0.0144943
894.309	0.0144688
894.387	0.0144431
894.465	0.0143136
894.543	0.0144713
894.621	0.0144344
894.700	0.0144865
894.778	0.0145222
894.856	0.0144885
894.934	0.0144975
895.012	0.0145669
895.090	0.0145811
895.168	0.0144526
895.246	0.0144846
895.325	0.0146089
895.403	0.0145261
895.481	0.0145621
895.559	0.0147523
895.637	0.0147113
895.715	0.0146783
895.793	0.0146025
895.871	0.0146513
895.950	0.0146387
896.028	0.0146812
896.106	0.0146227
896.184	0.0145851
896.262	0.0146071
896.340	0.0146070
896.418	0.0146667
896.496	0.0146171
896.575	0.0146356
896.653	0.0146721
896.731	0.0144775
896.809	0.0144870
896.887	0.0145955
896.965	0.0143929
897.043	0.0145477
897.121	0.0147523
897.200	0.0143374
897.278	0.0144617
897.356	0.0144642
897.434	0.0145237
897.512	0.0144778
897.590	0.0144934
897.668	0.0144157
897.746	0.0143365
897.825	0.0145928
897.903	0.0146110
897.981	0.0146358
898.059	0.0145696
898.137	0.0144939
898.215	0.0147188
898.293	0.0146449
898.371	0.0145742
898.450	0.0145541
898.528	0.0146096
898.606	0.0145836
898.684	0.0144643
898.762	0.0144979
898.840	0.0144786
898.918	0.0146076
898.996	0.0145897
899.075	0.0145779
899.153	0.0145860
899.231	0.0147102
899.309	0.0146253
899.387	0.0146738
899.465	0.0146283
899.543	0.0145391
899.621	0.0146603
899.700	0.0147364
899.778	0.0145909
899.856	0.0146313
899.934	0.0146123
900.012	0.0146519
900.090	0.0145567
900.168	0.0144958
900.246	0.0143768
900.325	0.0144817
900.403	0.0143943
900.481	0.0143420
900.559	0.0144268
900.637	0.0145558
900.715	0.0143968
900.793	0.0144589
900.871	0.0146091
900.950	0.0145782
901.028	0.0145723
901.106	0.0147088
901.184	0.0147102
901.262	0.0147958
901.340	0.0147372
901.418	0.0146426
901.496	0.0145861
901.575	0.0145977
901.653	0.0145813
901.731	0.0145613
901.809	0.0145681
901.887	0.0145763
901.965	0.0144627
902.043	0.0144884
902.121	0.0146344
902.200	0.0146007
902.278	0.0146954
902.356	0.0146860
902.434	0.0146967
902.512	0.0146727
902.590	0.0147679
902.668	0.0145652
902.746	0.0144843
902.825	0.0146943
902.903	0.0144816
902.981	0.0144207
903.059	0.0144416
903.137	0.0143664
903.215	0.0143439
903.293	0.0144925
903.371	0.0144402
903.450	0.0144881
903.528	0.0145007
903.606	0.0145390
903.684	0.0144760
903.762	0.0145051
903.840	0.0146161
903.918	0.0147636
903.996	0.0147892
904.075	0.0147061
904.153	0.0146136
904.231	0.0147108
904.309	0.0147407
904.387	0.0147016
904.465	0.0146680
904.543	0.0145494
904.621	0.0145482
904.700	0.0144789
904.778	0.0147183
904.856	0.0145763
904.934	0.0144408
905.012	0.0144408
905.090	0.0146223
905.168	0.0145922
905.246	0.0144729
905.325	0.0145245
905.403	0.0144403
905.481	0.0144466
905.559	0.0146714
905.637	0.0145470
905.715	0.0145850
905.793	0.0144820
905.871	0.0144259
905.950	0.0144418
906.028	0.0143914
906.106	0.0143505
906.184	0.0143804
906.262	0.0143747
906.340	0.0144900
906.418	0.0144734
906.496	0.0144536
906.575	0.0146333
906.653	0.0146055
906.731	0.0145372
906.809	0.0147668
906.887	0.0147929
906.965	0.0147166
907.043	0.0146539
907.121	0.0148099
907.200	0.0146811
907.278	0.0145294
907.356	0.0146530
907.434	0.0147334
907.512	0.0146394
907.590	0.0145969
907.668	0.0144298
907.746	0.0145877
907.825	0.0145757
907.903	0.0145182
907.981	0.0144247
908.059	0.0143423
908.137	0.0142656
908.215	0.0145038
908.293	0.0145141
908.371	0.0146774
908.450	0.0145582
908.528	0.0145009
908.606	0.0145683
908.684	0.0145648
908.762	0.0146503
908.840	0.0145709
908.918	0.0145965
908.996	0.0145245
909.075	0.0145520
909.153	0.0146262
909.231	0.0145297
909.309	0.0145016
909.387	0.0144978
909.465	0.0145285
909.543	0.0144112
909.621	0.0145532
909.700	0.0145718
909.778	0.0146183
909.856	0.0146651
909.934	0.0147005
910.012	0.0144939
910.090	0.0146538
910.168	0.0146545
910.246	0.0145536
910.325	0.0146478
910.403	0.0146771
910.481	0.0147340
910.559	0.0147109
910.637	0.0145212
910.715	0.0145042
910.793	0.0145372
910.871	0.0144884
910.950	0.0146561
911.028	0.0145655
911.106	0.0146217
911.184	0.0145552
911.262	0.0145560
911.340	0.0147349
911.418	0.0146032
911.496	0.0145237
911.575	0.0145972
911.653	0.0146449
911.731	0.0146056
911.809	0.0145037
911.887	0.0145252
911.965	0.0145526
912.043	0.0145461
912.121	0.0145709
912.200	0.0144856
912.278	0.0145839
912.356	0.0145039
912.434	0.0144516
912.512	0.0144794
912.590	0.0144801
912.668	0.0145269
912.746	0.0144326
912.825	0.0144814
912.903	0.0146432
912.981	0.0146175
913.059	0.0146014
913.137	0.0146255
913.215	0.0146920
913.293	0.0147513
913.371	0.0147621
913.450	0.0146136
913.528	0.0147564
913.606	0.0146726
913.684	0.0146771
913.762	0.0147040
913.840	0.0146628
913.918	0.0145516
913.996	0.0145882
914.075	0.0146239
914.153	0.0145412
914.231	0.0145197
914.309	0.0145232
914.387	0.0145779
914.465	0.0144962
914.543	0.0145200
914.621	0.0146464
914.700	0.0146699
914.778	0.0146777
914.856	0.0146301
914.934	0.0146795
915.012	0.0146638
915.090	0.0145808
915.168	0.0145609
915.246	0.0146803
915.325	0.0146252
915.403	0.0145512
915.481	0.0145144
915.559	0.0146407
915.637	0.0145762
915.715	0.0144240
915.793	0.0145308
915.871	0.0146255
915.950	0.0146684
916.028	0.0147081
916.106	0.0147311
916.184	0.0145647
916.262	0.0146680
916.340	0.0145549
916.418	0.0146988
916.496	0.0146721
916.575	0.0146745
916.653	0.0145888
916.731	0.0145589
916.809	0.0145802
916.887	0.0146346
916.965	0.0146509
917.043	0.0144456
917.121	0.0145245
917.200	0.0146793
917.278	0.0144651
917.356	0.0145179
917.434	0.0144717
917.512	0.0145682
917.590	0.0145633
917.668	0.0145956
917.746	0.0147134
917.825	0.0146037
917.903	0.0145614
917.981	0.0145583
918.059	0.0145892
918.137	0.0144445
918.215	0.0146253
918.293	0.0144731
918.371	0.0145378
918.450	0.0146126
918.528	0.0145919
918.606	0.0146371
918.684	0.0145551
918.762	0.0145335
918.840	0.0145018
918.918	0.0145630
918.996	0.0144489
919.075	0.0145084
919.153	0.0146601
919.231	0.0146314
919.309	0.0147040
919.387	0.0145765
919.465	0.0145311
919.543	0.0146474
919.621	0.0146998
919.700	0.0147180
919.778	0.0147153
919.856	0.0146358
919.934	0.0146214
920.012	0.0144765
920.090	0.0144677
920.168	0.0146284
920.246	0.0144353
920.325	0.0145277
920.403	0.0144951
920.481	0.0144538
920.559	0.0144983
920.637	0.0144079
920.715	0.0144357
920.793	0.0143639
920.871	0.0143291
920.950	0.0145373
921.028	0.0145947
921.106	0.0145361
921.184	0.0144895
921.262	0.0145082
921.340	0.0145955
921.418	0.0147103
921.496	0.0146756
921.575	0.0145893
921.653	0.0145584
921.731	0.0144714
921.809	0.0146176
921.887	0.0145901
921.965	0.0146489
922.043	0.0145421
922.121	0.0146285
922.200	0.0145013
922.278	0.0145660
922.356	0.0146664
922.434	0.0146440
922.512	0.0146139
922.590	0.0145201
922.668	0.0145953
922.746	0.0145542
922.825	0.0145509
922.903	0.0144737
922.981	0.0145217
923.059	0.0145021
923.137	0.0146551
923.215	0.0146191
923.293	0.0145400
923.371	0.0145856
923.450	0.0146083
923.528	0.0145509
923.606	0.0145144
923.684	0.0146113
923.762	0.0143503
923.840	0.0145334
923.918	0.0146235
923.996	0.0144604
924.075	0.0146277
924.153	0.0145208
924.231	0.0145083
924.309	0.0145888
924.387	0.0146256
924.465	0.0145843
924.543	0.0145676
924.621	0.0145481
924.700	0.0145914
924.778	0.0146794
924.856	0.0147257
924.934	0.0147234
925.012	0.0144743
925.090	0.0145477
925.168	0.0145512
925.246	0.0145422
925.325	0.0145305
925.403	0.0145203
925.481	0.0145930
925.559	0.0145860
925.637	0.0145592
925.715	0.0144952
925.793	0.0145934
925.871	0.0145290
925.950	0.0145363
926.028	0.0144865
926.106	0.0144004
926.184	0.0144270
926.262	0.0144287
926.340	0.0144495
926.418	0.0144776
926.496	0.0144947
926.575	0.0144722
926.653	0.0144555
926.731	0.0144896
926.809	0.0145316
926.887	0.0145684
926.965	0.0144895
927.043	0.0144633
927.121	0.0145865
927.200	0.0144199
927.278	0.0145977
927.356	0.0145451
927.434	0.0146324
927.512	0.0146457
927.590	0.0146852
927.668	0.0145705
927.746	0.0145418
927.825	0.0146467
927.903	0.0146152
927.981	0.0145945
928.059	0.0145290
928.137	0.0144942
928.215	0.0145917
928.293	0.0145799
928.371	0.0146308
928.450	0.0144249
928.528	0.0144173
928.606	0.0144880
928.684	0.0145372
928.762	0.0144678
928.840	0.0145413
928.918	0.0145809
928.996	0.0144934
929.075	0.0144206
929.153	0.0144325
929.231	0.0144287
929.309	0.0145663
929.387	0.0146958
929.465	0.0143722
929.543	0.0144467
929.621	0.0145569
929.700	0.0145300
929.778	0.0145465
929.856	0.0146381
929.934	0.0145979
930.012	0.0144460
930.090	0.0145611
930.168	0.0145058
930.246	0.0145265
930.325	0.0145818
930.403	0.0146007
930.481	0.0146024
930.559	0.0145644
930.637	0.0145967
930.715	0.0145339
930.793	0.0144716
930.871	0.0146572
930.950	0.0145859
931.028	0.0144699
931.106	0.0144009
931.184	0.0144380
931.262	0.0145122
931.340	0.0144642
931.418	0.0146039
931.496	0.0145078
931.575	0.0144538
931.653	0.0145862
931.731	0.0146370
931.809	0.0145707
931.887	0.0145423
931.965	0.0146473
932.043	0.0145831
932.121	0.0146407
932.200	0.0145042
932.278	0.0145240
932.356	0.0145150
932.434	0.0145815
932.512	0.0145731
932.590	0.0144955
932.668	0.0144781
932.746	0.0145016
932.825	0.0146039
932.903	0.0145859
932.981	0.0146078
933.059	0.0144396
933.137	0.0145053
933.215	0.0146307
933.293	0.0145303
933.371	0.0145050
933.450	0.0144630
933.528	0.0145475
933.606	0.0144885
933.684	0.0145520
933.762	0.0145536
933.840	0.0145480
933.918	0.0145760
933.996	0.0144479
934.075	0.0144899
934.153	0.0145039
934.231	0.0145982
934.309	0.0145592
934.387	0.0146682
934.465	0.0148415
934.543	0.0146357
934.621	0.0145097
934.700	0.0146174
934.778	0.0145642
934.856	0.0145764
934.934	0.0146109
935.012	0.0144310
935.090	0.0147311
935.168	0.0146545
935.246	0.0145921
935.325	0.0145798
935.403	0.0145775
935.481	0.0146735
935.559	0.0145982
935.637	0.0143864
935.715	0.0145355
935.793	0.0146658
935.871	0.0146392
935.950	0.0145541
936.028	0.0144797
936.106	0.0145963
936.184	0.0145823
936.262	0.0145365
936.340	0.0146481
936.418	0.0146165
936.496	0.0145535
936.575	0.0145573
936.653	0.0145669
936.731	0.0145881
936.809	0.0145086
936.887	0.0146495
936.965	0.0145366
937.043	0.0145317
937.121	0.0145532
937.200	0.0145525
937.278	0.0146245
937.356	0.0145415
937.434	0.0145663
937.512	0.0146578
937.590	0.0147256
937.668	0.0146520
937.746	0.0146054
937.825	0.0146796
937.903	0.0145879
937.981	0.0147144
938.059	0.0146188
938.137	0.0145768
938.215	0.0145429
938.293	0.0145234
938.371	0.0146111
938.450	0.0145898
938.528	0.0145416
938.606	0.0144883
938.684	0.0146775
938.762	0.0144540
938.840	0.0146172
938.918	0.0146468
938.996	0.0145226
939.075	0.0146333
939.153	0.0146864
939.231	0.0145776
939.309	0.0144348
939.387	0.0145999
939.465	0.0145807
939.543	0.0145402
939.621	0.0144693
939.700	0.0145814
939.778	0.0144232
939.856	0.0145375
939.934	0.0146323
940.012	0.0145683
940.090	0.0144132
940.168	0.0144987
940.246	0.0144207
940.325	0.0146074
940.403	0.0146011
940.481	0.0144747
940.559	0.0144341
940.637	0.0145232
940.715	0.0145290
940.793	0.0144991
940.871	0.0145824
940.950	0.0145821
941.028	0.0145969
941.106	0.0146038
941.184	0.0145808
941.262	0.0146510
941.340	0.0144617
941.418	0.0144920
941.496	0.0146072
941.575	0.0145793
941.653	0.0146608
941.731	0.0146117
941.809	0.0147361
941.887	0.0147594
941.965	0.0147043
942.043	0.0146099
942.121	0.0145611
942.200	0.0146128
942.278	0.0146995
942.356	0.0147644
942.434	0.0146474
942.512	0.0146141
942.590	0.0146764
942.668	0.0146005
942.746	0.0144919
942.825	0.0144260
942.903	0.0146114
942.981	0.0145390
943.059	0.0144392
943.137	0.0145834
943.215	0.0145554
943.293	0.0144019
943.371	0.0145239
943.450	0.0146394
943.528	0.0144209
943.606	0.0145549
943.684	0.0146453
943.762	0.0145863
943.840	0.0145766
943.918	0.0144289
943.996	0.0145919
944.075	0.0145566
944.153	0.0145817
944.231	0.0145383
944.309	0.0145472
944.387	0.0145853
944.465	0.0145147
944.543	0.0145319
944.621	0.0146217
944.700	0.0145968
944.778	0.0145741
944.856	0.0146696
944.934	0.0145606
945.012	0.0145634
945.090	0.0146464
945.168	0.0145646
945.246	0.0144212
945.325	0.0145905
945.403	0.0145536
945.481	0.0146179
945.559	0.0144560
945.637	0.0144511
945.715	0.0146433
945.793	0.0145548
945.871	0.0145895
945.950	0.0144801
946.028	0.0145861
946.106	0.0146525
946.184	0.0145741
946.262	0.0146355
946.340	0.0144945
946.418	0.0144746
946.496	0.0145080
946.575	0.0146278
946.653	0.0145154
946.731	0.0145172
946.809	0.0144626
946.887	0.0145184
946.965	0.0144878
947.043	0.0145856
947.121	0.0145961
947.200	0.0145681
947.278	0.0145700
947.356	0.0145934
947.434	0.0144573
947.512	0.0144063
947.590	0.0144928
947.668	0.0146561
947.746	0.0145259
947.825	0.0146294
947.903	0.0144404
947.981	0.0144681
948.059	0.0144711
948.137	0.0145570
948.215	0.0143980
948.293	0.0145158
948.371	0.0146318
948.450	0.0144429
948.528	0.0145685
948.606	0.0147537
948.684	0.0146958
948.762	0.0144669
948.840	0.0145389
948.918	0.0146809
948.996	0.0146542
949.075	0.0146030
949.153	0.0144436
949.231	0.0146804
949.309	0.0144379
949.387	0.0144681
949.465	0.0146085
949.543	0.0145567
949.621	0.0145686
949.700	0.0145982
949.778	0.0145391
949.856	0.0145939
949.934	0.0145750
950.012	0.0144879
950.090	0.0147163
950.168	0.0145527
950.246	0.0145367
950.325	0.0146243
950.403	0.0146848
950.481	0.0146494
950.559	0.0146132
950.637	0.0146176
950.715	0.0145306
950.793	0.0146202
950.871	0.0146039
950.950	0.0146458
951.028	0.0146130
951.106	0.0145483
951.184	0.0147060
951.262	0.0147486
951.340	0.0145554
951.418	0.0146124
951.496	0.0145566
951.575	0.0146743
951.653	0.0147447
951.731	0.0145864
951.809	0.0144292
951.887	0.0145058
951.965	0.0145841
952.043	0.0145705
952.121	0.0144280
952.200	0.0145769
952.278	0.0146195
952.356	0.0145797
952.434	0.0145506
952.512	0.0146333
952.590	0.0145950
952.668	0.0145226
952.746	0.0145456
952.825	0.0146228
952.903	0.0145512
952.981	0.0145171
953.059	0.0145171
953.137	0.0146499
953.215	0.0144962
953.293	0.0145702
953.371	0.0145652
953.450	0.0145218
953.528	0.0145319
953.606	0.0145528
953.684	0.0146584
953.762	0.0145159
953.840	0.0144590
953.918	0.0144965
953.996	0.0146960
954.075	0.0145834
954.153	0.0145069
954.231	0.0145962
954.309	0.0145711
954.387	0.0145367
954.465	0.0145997
954.543	0.0145498
954.621	0.0145471
954.700	0.0145682
954.778	0.0146416
954.856	0.0145042
954.934	0.0145424
955.012	0.0146114
955.090	0.0146372
955.168	0.0144505
955.246	0.0143933
955.325	0.0145855
955.403	0.0145844
955.481	0.0144682
955.559	0.0146224
955.637	0.0143318
955.715	0.0144667
955.793	0.0145959
955.871	0.0144946
955.950	0.0145502
956.028	0.0144804
956.106	0.0146547
956.184	0.0143612
956.262	0.0143688
956.340	0.0145602
956.418	0.0145663
956.496	0.0145192
956.575	0.0144669
956.653	0.0146232
956.731	0.0145279
956.809	0.0145981
956.887	0.0146423
956.965	0.0145828
957.043	0.0144899
957.121	0.0146239
957.200	0.0147457
957.278	0.0146490
957.356	0.0146545
957.434	0.0145959
957.512	0.0146747
957.590	0.0147614
957.668	0.0145741
957.746	0.0146742
957.825	0.0144926
957.903	0.0145834
957.981	0.0146397
958.059	0.0145250
958.137	0.0145441
958.215	0.0146531
958.293	0.0145911
958.371	0.0145322
958.450	0.0147063
958.528	0.0145265
958.606	0.0146684
958.684	0.0145965
958.762	0.0145540
958.840	0.0144971
958.918	0.0144903
958.996	0.0144598
959.075	0.0145039
959.153	0.0147066
959.231	0.0145498
959.309	0.0145216
959.387	0.0145499
959.465	0.0145111
959.543	0.0145464
959.621	0.0145713
959.700	0.0145973
959.778	0.0147546
959.856	0.0147490
959.934	0.0146598
960.012	0.0144806
960.090	0.0145596
960.168	0.0146825
960.246	0.0146832
960.325	0.0147573
960.403	0.0146158
960.481	0.0146145
960.559	0.0145520
960.637	0.0146130
960.715	0.0147261
960.793	0.0147161
960.871	0.0145633
960.950	0.0145676
961.028	0.0147144
961.106	0.0145859
961.184	0.0145914
961.262	0.0145988
961.340	0.0145796
961.418	0.0145562
961.496	0.0144697
961.575	0.0144792
961.653	0.0143534
961.731	0.0145359
961.809	0.0147247
961.887	0.0146518
961.965	0.0146216
962.043	0.0146565
962.121	0.0146223
962.200	0.0145280
962.278	0.0146135
962.356	0.0147367
962.434	0.0146476
962.512	0.0145810
962.590	0.0146192
962.668	0.0147605
962.746	0.0147364
962.825	0.0147348
962.903	0.0147932
962.981	0.0148296
963.059	0.0145283
963.137	0.0146146
963.215	0.0147936
963.293	0.0146439
963.371	0.0145403
963.450	0.0145607
963.528	0.0146270
963.606	0.0146553
963.684	0.0146627
963.762	0.0146795
963.840	0.0145142
963.918	0.0146256
963.996	0.0145632
964.075	0.0146471
964.153	0.0144769
964.231	0.0146461
964.309	0.0146754
964.387	0.0145888
964.465	0.0144984
964.543	0.0145498
964.621	0.0145197
964.700	0.0145594
964.778	0.0146436
964.856	0.0146586
964.934	0.0145320
965.012	0.0145631
965.090	0.0146033
965.168	0.0145896
965.246	0.0146290
965.325	0.0146941
965.403	0.0147419
965.481	0.0146466
965.559	0.0148103
965.637	0.0147288
965.715	0.0146662
965.793	0.0146272
965.871	0.0145830
965.950	0.0146138
966.028	0.0145816
966.106	0.0146376
966.184	0.0144785
966.262	0.0146135
966.340	0.0145821
966.418	0.0145751
966.496	0.0145957
966.575	0.0144968
966.653	0.0145953
966.731	0.0146308
966.809	0.0145780
966.887	0.0145289
966.965	0.0145876
967.043	0.0147266
967.121	0.0145569
967.200	0.0145087
967.278	0.0146214
967.356	0.0144937
967.434	0.0144984
967.512	0.0145454
967.590	0.0145026
967.668	0.0145867
967.746	0.0147311
967.825	0.0145765
967.903	0.0145003
967.981	0.0146344
968.059	0.0146273
968.137	0.0147282
968.215	0.0145225
968.293	0.0144804
968.371	0.0147113
968.450	0.0145063
968.528	0.0146407
968.606	0.0147401
968.684	0.0145387
968.762	0.0144308
968.840	0.0146243
968.918	0.0145683
968.996	0.0145901
969.075	0.0146605
969.153	0.0145792
969.231	0.0145432
969.309	0.0146401
969.387	0.0145811
969.465	0.0145238
969.543	0.0146272
969.621	0.0145236
969.700	0.0145209
969.778	0.0145089
969.856	0.0145835
969.934	0.0145267
970.012	0.0146452
970.090	0.0146980
970.168	0.0145131
970.246	0.0145090
970.325	0.0146955
970.403	0.0144862
970.481	0.0144843
970.559	0.0145160
970.637	0.0144914
970.715	0.0144570
970.793	0.0145198
970.871	0.0143513
970.950	0.0145374
971.028	0.0145395
971.106	0.0145152
971.184	0.0144968
971.262	0.0145624
971.340	0.0146422
971.418	0.0146902
971.496	0.0145801
971.575	0.0146137
971.653	0.0145844
971.731	0.0146072
971.809	0.0146681
971.887	0.0145654
971.965	0.0145802
972.043	0.0147314
972.121	0.0145959
972.200	0.0144289
972.278	0.0144341
972.356	0.0145894
972.434	0.0145249
972.512	0.0143251
972.590	0.0146221
972.668	0.0146139
972.746	0.0145511
972.825	0.0145377
972.903	0.0144200
972.981	0.0144577
973.059	0.0145744
973.137	0.0145503
973.215	0.0145355
973.293	0.0144686
973.371	0.0145830
973.450	0.0146609
973.528	0.0145646
973.606	0.0144497
973.684	0.0144843
973.762	0.0144689
973.840	0.0145051
973.918	0.0146893
973.996	0.0144959
974.075	0.0145287
974.153	0.0144776
974.231	0.0144572
974.309	0.0145695
974.387	0.0146063
974.465	0.0145106
974.543	0.0145615
974.621	0.0145367
974.700	0.0145555
974.778	0.0146508
974.856	0.0145863
974.934	0.0145344
975.012	0.0145727
975.090	0.0145803
975.168	0.0146487
975.246	0.0145271
975.325	0.0144624
975.403	0.0144633
975.481	0.0147225
975.559	0.0145425
975.637	0.0145219
975.715	0.0145507
975.793	0.0145365
975.871	0.0145641
975.950	0.0145896
976.028	0.0146189
976.106	0.0146104
976.184	0.0146299
976.262	0.0144978
976.340	0.0145853
976.418	0.0146326
976.496	0.0147330
976.575	0.0147471
976.653	0.0146005
976.731	0.0145959
976.809	0.0146287
976.887	0.0147215
976.965	0.0145787
977.043	0.0144799
977.121	0.0145742
977.200	0.0146460
977.278	0.0146031
977.356	0.0146223
977.434	0.0145574
977.512	0.0145576
977.590	0.0145968
977.668	0.0145969
977.746	0.0145000
977.825	0.0144720
977.903	0.0144907
977.981	0.0145638
978.059	0.0143816
978.137	0.0145288
978.215	0.0145870
978.293	0.0144850
978.371	0.0144485
978.450	0.0145572
978.528	0.0144540
978.606	0.0145060
978.684	0.0145073
978.762	0.0146098
978.840	0.0145506
978.918	0.0146377
978.996	0.0144320
979.075	0.0144447
979.153	0.0145994
979.231	0.0146727
979.309	0.0146477
979.387	0.0146259
979.465	0.0145818
979.543	0.0145096
979.621	0.0147535
979.700	0.0147303
979.778	0.0146519
979.856	0.0146985
979.934	0.0144841
980.012	0.0145579
980.090	0.0145683
980.168	0.0146049
980.246	0.0145571
980.325	0.0144981
980.403	0.0146011
980.481	0.0145792
980.559	0.0144181
980.637	0.0144795
980.715	0.0145982
980.793	0.0145699
980.871	0.0146158
980.950	0.0145789
981.028	0.0145934
981.106	0.0145644
981.184	0.0147226
981.262	0.0146943
981.340	0.0145688
981.418	0.0147557
981.496	0.0145827
981.575	0.0145081
981.653	0.0145545
981.731	0.0145383
981.809	0.0147267
981.887	0.0146827
981.965	0.0146236
982.043	0.0146177
982.121	0.0147258
982.200	0.0144940
982.278	0.0145221
982.356	0.0147120
982.434	0.0145560
982.512	0.0146606
982.590	0.0146432
982.668	0.0146648
982.746	0.0146011
982.825	0.0146238
982.903	0.0146352
982.981	0.0147099
983.059	0.0146329
983.137	0.0147671
983.215	0.0146491
983.293	0.0147154
983.371	0.0147013
983.450	0.0144556
983.528	0.0145194
983.606	0.0145123
983.684	0.0146117
983.762	0.0144846
983.840	0.0145928
983.918	0.0144772
983.996	0.0145419
984.075	0.0146109
984.153	0.0145171
984.231	0.0145221
984.309	0.0145306
984.387	0.0146207
984.465	0.0144683
984.543	0.0146091
984.621	0.0144394
984.700	0.0145198
984.778	0.0147202
984.856	0.0146971
984.934	0.0145435
985.012	0.0144904
985.090	0.0145715
985.168	0.0146143
985.246	0.0146502
985.325	0.0146371
985.403	0.0147044
985.481	0.0146686
985.559	0.0146769
985.637	0.0146718
985.715	0.0146981
985.793	0.0147170
985.871	0.0147777
985.950	0.0146455
986.028	0.0147222
986.106	0.0148145
986.184	0.0147359
986.262	0.0147739
986.340	0.0146425
986.418	0.0144730
986.496	0.0146582
986.575	0.0147298
986.653	0.0145676
986.731	0.0145421
986.809	0.0144751
986.887	0.0144173
986.965	0.0145496
987.043	0.0144435
987.121	0.0144908
987.200	0.0145837
987.278	0.0145755
987.356	0.0146984
987.434	0.0145824
987.512	0.0145720
987.590	0.0145110
987.668	0.0145005
987.746	0.0145754
987.825	0.0145344
987.903	0.0145491
987.981	0.0145920
988.059	0.0145246
988.137	0.0146543
988.215	0.0145743
988.293	0.0145536
988.371	0.0143105
988.450	0.0145986
988.528	0.0146206
988.606	0.0145315
988.684	0.0145321
988.762	0.0145787
988.840	0.0145225
988.918	0.0145436
988.996	0.0146430
989.075	0.0145508
989.153	0.0146183
989.231	0.0146058
989.309	0.0145982
989.387	0.0146028
989.465	0.0144966
989.543	0.0146419
989.621	0.0147212
989.700	0.0144447
989.778	0.0144849
989.856	0.0144086
989.934	0.0144279
990.012	0.0144681
990.090	0.0145393
990.168	0.0145787
990.246	0.0145525
990.325	0.0145257
990.403	0.0144817
990.481	0.0145182
990.559	0.0145789
990.637	0.0144533
990.715	0.0145990
990.793	0.0145842
990.871	0.0146040
990.950	0.0145149
991.028	0.0144807
991.106	0.0144972
991.184	0.0143906
991.262	0.0146262
991.340	0.0145648
991.418	0.0145846
991.496	0.0146078
991.575	0.0145658
991.653	0.0146606
991.731	0.0146523
991.809	0.0145357
991.887	0.0145181
991.965	0.0144682
992.043	0.0146207
992.121	0.0146204
992.200	0.0146111
992.278	0.0146836
992.356	0.0145262
992.434	0.0144017
992.512	0.0144464
992.590	0.0145633
992.668	0.0144916
992.746	0.0145007
992.825	0.0145759
992.903	0.0145245
992.981	0.0144609
993.059	0.0146507
993.137	0.0147056
993.215	0.0145083
993.293	0.0146625
993.371	0.0146894
993.450	0.0145184
993.528	0.0145734
993.606	0.0146761
993.684	0.0146447
993.762	0.0146600
993.840	0.0145625
993.918	0.0147823
993.996	0.0148247
994.075	0.0147098
994.153	0.0146177
994.231	0.0146836
994.309	0.0145780
994.387	0.0146701
994.465	0.0147045
994.543	0.0146359
994.621	0.0146292
994.700	0.0146362
994.778	0.0145889
994.856	0.0146053
994.934	0.0146339
995.012	0.0145353
995.090	0.0145041
995.168	0.0145063
995.246	0.0145212
995.325	0.0143954
995.403	0.0145735
995.481	0.0144086
995.559	0.0144923
995.637	0.0146964
995.715	0.0145554
995.793	0.0144943
995.871	0.0145814
995.950	0.0146146
996.028	0.0145328
996.106	0.0145718
996.184	0.0145950
996.262	0.0145236
996.340	0.0145911
996.418	0.0147275
996.496	0.0146431
996.575	0.0147229
996.653	0.0148974
996.731	0.0148100
996.809	0.0147202
996.887	0.0146012
996.965	0.0148482
997.043	0.0148923
997.121	0.0145467
997.200	0.0146207
997.278	0.0148148
997.356	0.0149173
997.434	0.0146039
997.512	0.0145506
997.590	0.0145403
997.668	0.0148196
997.746	0.0147739
997.825	0.0144845
997.903	0.0146499
997.981	0.0145978
998.059	0.0145341
998.137	0.0145026
998.215	0.0145444
998.293	0.0145488
998.371	0.0145640
998.450	0.0146124
998.528	0.0145726
998.606	0.0147009
998.684	0.0145258
998.762	0.0146548
998.840	0.0145808
998.918	0.0146014
