05/04/2022	20:48:16	Ver.	4.1	UNKNOWN
Optical Delay	679.003072	Delta X		0.078125	Sweeps	1	Scan Rate	0/0
Coordinates	Axis 1	NaN	Axis 2	NaN	Axis 3	NaN	Axis 4	NaN	Axis 5	NaN	Axis 6	0.000000
TX Power	0.000000	RX Power	0.000000

679.003	0.0141834
679.081	0.0140671
679.159	0.0140458
679.237	0.0141184
679.316	0.0142469
679.394	0.0142525
679.472	0.0141029
679.550	0.0141936
679.628	0.0141520
679.706	0.0140630
679.784	0.0141306
679.862	0.0141147
679.941	0.0141361
680.019	0.0140576
680.097	0.0141325
680.175	0.0141831
680.253	0.0140714
680.331	0.0141625
680.409	0.0142075
680.487	0.0141912
680.566	0.0141318
680.644	0.0141274
680.722	0.0141660
680.800	0.0143654
680.878	0.0141261
680.956	0.0141508
681.034	0.0141501
681.112	0.0141426
681.191	0.0141310
681.269	0.0141081
681.347	0.0142353
681.425	0.0140699
681.503	0.0140967
681.581	0.0141762
681.659	0.0142220
681.737	0.0141640
681.816	0.0140951
681.894	0.0142130
681.972	0.0141741
682.050	0.0142216
682.128	0.0141679
682.206	0.0140816
682.284	0.0141390
682.362	0.0141199
682.441	0.0141564
682.519	0.0141249
682.597	0.0141792
682.675	0.0141802
682.753	0.0139463
682.831	0.0140388
682.909	0.0142373
682.987	0.0141707
683.066	0.0142300
683.144	0.0141339
683.222	0.0141370
683.300	0.0140816
683.378	0.0142402
683.456	0.0140310
683.534	0.0141998
683.612	0.0141433
683.691	0.0141935
683.769	0.0141774
683.847	0.0142011
683.925	0.0142263
684.003	0.0141560
684.081	0.0141073
684.159	0.0140186
684.237	0.0140658
684.316	0.0141322
684.394	0.0142599
684.472	0.0140656
684.550	0.0139994
684.628	0.0141704
684.706	0.0142352
684.784	0.0141611
684.862	0.0141331
684.941	0.0141143
685.019	0.0140991
685.097	0.0141849
685.175	0.0142619
685.253	0.0141434
685.331	0.0141570
685.409	0.0141590
685.487	0.0141164
685.566	0.0141821
685.644	0.0141913
685.722	0.0141421
685.800	0.0141316
685.878	0.0142340
685.956	0.0141393
686.034	0.0141888
686.112	0.0140822
686.191	0.0141967
686.269	0.0142434
686.347	0.0142112
686.425	0.0142063
686.503	0.0141286
686.581	0.0141692
686.659	0.0141466
686.737	0.0140585
686.816	0.0141049
686.894	0.0142703
686.972	0.0141802
687.050	0.0142097
687.128	0.0143863
687.206	0.0141468
687.284	0.0140902
687.362	0.0142612
687.441	0.0141460
687.519	0.0141606
687.597	0.0141660
687.675	0.0141399
687.753	0.0141279
687.831	0.0142545
687.909	0.0140997
687.987	0.0141574
688.066	0.0142133
688.144	0.0141345
688.222	0.0141645
688.300	0.0141871
688.378	0.0142438
688.456	0.0141393
688.534	0.0141285
688.612	0.0142065
688.691	0.0141981
688.769	0.0141075
688.847	0.0143461
688.925	0.0141678
689.003	0.0140995
689.081	0.0141030
689.159	0.0140931
689.237	0.0141812
689.316	0.0141727
689.394	0.0142602
689.472	0.0142686
689.550	0.0141965
689.628	0.0142424
689.706	0.0141677
689.784	0.0142250
689.862	0.0142180
689.941	0.0143168
690.019	0.0142484
690.097	0.0142356
690.175	0.0142101
690.253	0.0141684
690.331	0.0140877
690.409	0.0141477
690.487	0.0141880
690.566	0.0141966
690.644	0.0141502
690.722	0.0141797
690.800	0.0141697
690.878	0.0141257
690.956	0.0141498
691.034	0.0141836
691.112	0.0142730
691.191	0.0142685
691.269	0.0142892
691.347	0.0141852
691.425	0.0142594
691.503	0.0141526
691.581	0.0142445
691.659	0.0143105
691.737	0.0141006
691.816	0.0139557
691.894	0.0142786
691.972	0.0141905
692.050	0.0141180
692.128	0.0141808
692.206	0.0140340
692.284	0.0142729
692.362	0.0140776
692.441	0.0141068
692.519	0.0142183
692.597	0.0142269
692.675	0.0141398
692.753	0.0141814
692.831	0.0142069
692.909	0.0142567
692.987	0.0141332
693.066	0.0141790
693.144	0.0143057
693.222	0.0143266
693.300	0.0142450
693.378	0.0141312
693.456	0.0142495
693.534	0.0141754
693.612	0.0141177
693.691	0.0142385
693.769	0.0143004
693.847	0.0141780
693.925	0.0141552
694.003	0.0141646
694.081	0.0142859
694.159	0.0142918
694.237	0.0143213
694.316	0.0140944
694.394	0.0141743
694.472	0.0141764
694.550	0.0142882
694.628	0.0142067
694.706	0.0142044
694.784	0.0141643
694.862	0.0142493
694.941	0.0141557
695.019	0.0141684
695.097	0.0142532
695.175	0.0142516
695.253	0.0141631
695.331	0.0141193
695.409	0.0141017
695.487	0.0142377
695.566	0.0142472
695.644	0.0141002
695.722	0.0141196
695.800	0.0141946
695.878	0.0142132
695.956	0.0141179
696.034	0.0141393
696.112	0.0141489
696.191	0.0142691
696.269	0.0141658
696.347	0.0142227
696.425	0.0142413
696.503	0.0140845
696.581	0.0141536
696.659	0.0140833
696.737	0.0141964
696.816	0.0142484
696.894	0.0140945
696.972	0.0142632
697.050	0.0141723
697.128	0.0141127
697.206	0.0141719
697.284	0.0142796
697.362	0.0141676
697.441	0.0143475
697.519	0.0141444
697.597	0.0140677
697.675	0.0142336
697.753	0.0142506
697.831	0.0141873
697.909	0.0142527
697.987	0.0141924
698.066	0.0141241
698.144	0.0141628
698.222	0.0142175
698.300	0.0141772
698.378	0.0141914
698.456	0.0141117
698.534	0.0141978
698.612	0.0142268
698.691	0.0141234
698.769	0.0142605
698.847	0.0142450
698.925	0.0140386
699.003	0.0142435
699.081	0.0143153
699.159	0.0141479
699.237	0.0142261
699.316	0.0140983
699.394	0.0141185
699.472	0.0141586
699.550	0.0140768
699.628	0.0141602
699.706	0.0143228
699.784	0.0141343
699.862	0.0141611
699.941	0.0141521
700.019	0.0141451
700.097	0.0141682
700.175	0.0142112
700.253	0.0140740
700.331	0.0142152
700.409	0.0140875
700.487	0.0141217
700.566	0.0141545
700.644	0.0142663
700.722	0.0141648
700.800	0.0139568
700.878	0.0142645
700.956	0.0141792
701.034	0.0141613
701.112	0.0141698
701.191	0.0142309
701.269	0.0141663
701.347	0.0141988
701.425	0.0141879
701.503	0.0142383
701.581	0.0141079
701.659	0.0141222
701.737	0.0141693
701.816	0.0141705
701.894	0.0141737
701.972	0.0142989
702.050	0.0141949
702.128	0.0140913
702.206	0.0141920
702.284	0.0140557
702.362	0.0141973
702.441	0.0140975
702.519	0.0140662
702.597	0.0142777
702.675	0.0142151
702.753	0.0142153
702.831	0.0142461
702.909	0.0141911
702.987	0.0142995
703.066	0.0141940
703.144	0.0142683
703.222	0.0142167
703.300	0.0140989
703.378	0.0142062
703.456	0.0142097
703.534	0.0141662
703.612	0.0141665
703.691	0.0142039
703.769	0.0142565
703.847	0.0141960
703.925	0.0142476
704.003	0.0142373
704.081	0.0141531
704.159	0.0140614
704.237	0.0142535
704.316	0.0142052
704.394	0.0141460
704.472	0.0142603
704.550	0.0143007
704.628	0.0142554
704.706	0.0141737
704.784	0.0141180
704.862	0.0143006
704.941	0.0142442
705.019	0.0141850
705.097	0.0141963
705.175	0.0141565
705.253	0.0141612
705.331	0.0141294
705.409	0.0140817
705.487	0.0141199
705.566	0.0141650
705.644	0.0142672
705.722	0.0141357
705.800	0.0142571
705.878	0.0140842
705.956	0.0142329
706.034	0.0140518
706.112	0.0141271
706.191	0.0142531
706.269	0.0142647
706.347	0.0142326
706.425	0.0141727
706.503	0.0141990
706.581	0.0141111
706.659	0.0141936
706.737	0.0140901
706.816	0.0142959
706.894	0.0141676
706.972	0.0140877
707.050	0.0141286
707.128	0.0141422
707.206	0.0141360
707.284	0.0142188
707.362	0.0142251
707.441	0.0143014
707.519	0.0141119
707.597	0.0141436
707.675	0.0141928
707.753	0.0141179
707.831	0.0142047
707.909	0.0142953
707.987	0.0142417
708.066	0.0140517
708.144	0.0141208
708.222	0.0142108
708.300	0.0142854
708.378	0.0141802
708.456	0.0140164
708.534	0.0142236
708.612	0.0141992
708.691	0.0140798
708.769	0.0141004
708.847	0.0141116
708.925	0.0141315
709.003	0.0141328
709.081	0.0141750
709.159	0.0140272
709.237	0.0140228
709.316	0.0141865
709.394	0.0142223
709.472	0.0143039
709.550	0.0141846
709.628	0.0141520
709.706	0.0140143
709.784	0.0142390
709.862	0.0141991
709.941	0.0141643
710.019	0.0141076
710.097	0.0140569
710.175	0.0142597
710.253	0.0141487
710.331	0.0142178
710.409	0.0140161
710.487	0.0142530
710.566	0.0141949
710.644	0.0142653
710.722	0.0141388
710.800	0.0142549
710.878	0.0142776
710.956	0.0141451
711.034	0.0141470
711.112	0.0141928
711.191	0.0142199
711.269	0.0142981
711.347	0.0141547
711.425	0.0142960
711.503	0.0142352
711.581	0.0140759
711.659	0.0140508
711.737	0.0142151
711.816	0.0142353
711.894	0.0142029
711.972	0.0140627
712.050	0.0142740
712.128	0.0140731
712.206	0.0140739
712.284	0.0142193
712.362	0.0141431
712.441	0.0142000
712.519	0.0142848
712.597	0.0140869
712.675	0.0140952
712.753	0.0142568
712.831	0.0141300
712.909	0.0142752
712.987	0.0141753
713.066	0.0141424
713.144	0.0141588
713.222	0.0142564
713.300	0.0141892
713.378	0.0142827
713.456	0.0143649
713.534	0.0141489
713.612	0.0141463
713.691	0.0142597
713.769	0.0143272
713.847	0.0143050
713.925	0.0142117
714.003	0.0142278
714.081	0.0142398
714.159	0.0141785
714.237	0.0142676
714.316	0.0140029
714.394	0.0140942
714.472	0.0141406
714.550	0.0142437
714.628	0.0143330
714.706	0.0142947
714.784	0.0142540
714.862	0.0143780
714.941	0.0143310
715.019	0.0142973
715.097	0.0143112
715.175	0.0143076
715.253	0.0141582
715.331	0.0142461
715.409	0.0141378
715.487	0.0142141
715.566	0.0142065
715.644	0.0141879
715.722	0.0139837
715.800	0.0141310
715.878	0.0141924
715.956	0.0140878
716.034	0.0140427
716.112	0.0140490
716.191	0.0140562
716.269	0.0141441
716.347	0.0141739
716.425	0.0140739
716.503	0.0140491
716.581	0.0141200
716.659	0.0141397
716.737	0.0141125
716.816	0.0140347
716.894	0.0141797
716.972	0.0142345
717.050	0.0140738
717.128	0.0140018
717.206	0.0139855
717.284	0.0140251
717.362	0.0139948
717.441	0.0139921
717.519	0.0140713
717.597	0.0140816
717.675	0.0141301
717.753	0.0141479
717.831	0.0142985
717.909	0.0141959
717.987	0.0140531
718.066	0.0141866
718.144	0.0141339
718.222	0.0141590
718.300	0.0139658
718.378	0.0139495
718.456	0.0140753
718.534	0.0140382
718.612	0.0140430
718.691	0.0139259
718.769	0.0140819
718.847	0.0139649
718.925	0.0141183
719.003	0.0141157
719.081	0.0141560
719.159	0.0141203
719.237	0.0142271
719.316	0.0141722
719.394	0.0141503
719.472	0.0142208
719.550	0.0142133
719.628	0.0143553
719.706	0.0142651
719.784	0.0143632
719.862	0.0142923
719.941	0.0143518
720.019	0.0145593
720.097	0.0141676
720.175	0.0143465
720.253	0.0143185
720.331	0.0142955
720.409	0.0142176
720.487	0.0142325
720.566	0.0143515
720.644	0.0141911
720.722	0.0141611
720.800	0.0143708
720.878	0.0143073
720.956	0.0143261
721.034	0.0142071
721.112	0.0142136
721.191	0.0142999
721.269	0.0141603
721.347	0.0140263
721.425	0.0141213
721.503	0.0140601
721.581	0.0139492
721.659	0.0138267
721.737	0.0139726
721.816	0.0138981
721.894	0.0137889
721.972	0.0137744
722.050	0.0138821
722.128	0.0140224
722.206	0.0138982
722.284	0.0140634
722.362	0.0140588
722.441	0.0140533
722.519	0.0142561
722.597	0.0141509
722.675	0.0141779
722.753	0.0142260
722.831	0.0140887
722.909	0.0141335
722.987	0.0140923
723.066	0.0139843
723.144	0.0140767
723.222	0.0141866
723.300	0.0142500
723.378	0.0141732
723.456	0.0142096
723.534	0.0140904
723.612	0.0142818
723.691	0.0143689
723.769	0.0142327
723.847	0.0141541
723.925	0.0142403
724.003	0.0141557
724.081	0.0141668
724.159	0.0142358
724.237	0.0142494
724.316	0.0141947
724.394	0.0141864
724.472	0.0142204
724.550	0.0142892
724.628	0.0142641
724.706	0.0142545
724.784	0.0141801
724.862	0.0140959
724.941	0.0142432
725.019	0.0140977
725.097	0.0141296
725.175	0.0141772
725.253	0.0142437
725.331	0.0142541
725.409	0.0142906
725.487	0.0143089
725.566	0.0142233
725.644	0.0142908
725.722	0.0143861
725.800	0.0142744
725.878	0.0142036
725.956	0.0144154
726.034	0.0143374
726.112	0.0142890
726.191	0.0142385
726.269	0.0142337
726.347	0.0141705
726.425	0.0142126
726.503	0.0142340
726.581	0.0142814
726.659	0.0141580
726.737	0.0140714
726.816	0.0142574
726.894	0.0142014
726.972	0.0142065
727.050	0.0141035
727.128	0.0140074
727.206	0.0139488
727.284	0.0139674
727.362	0.0140445
727.441	0.0139495
727.519	0.0138786
727.597	0.0139444
727.675	0.0140849
727.753	0.0140580
727.831	0.0139857
727.909	0.0139401
727.987	0.0140498
728.066	0.0140857
728.144	0.0142367
728.222	0.0141461
728.300	0.0141262
728.378	0.0141625
728.456	0.0141999
728.534	0.0144073
728.612	0.0142335
728.691	0.0142351
728.769	0.0142574
728.847	0.0142696
728.925	0.0141550
729.003	0.0142004
729.081	0.0143024
729.159	0.0142615
729.237	0.0142300
729.316	0.0142363
729.394	0.0143353
729.472	0.0141389
729.550	0.0140319
729.628	0.0140047
729.706	0.0142787
729.784	0.0140363
729.862	0.0140979
729.941	0.0142245
730.019	0.0140578
730.097	0.0141105
730.175	0.0141447
730.253	0.0142690
730.331	0.0142626
730.409	0.0142268
730.487	0.0142811
730.566	0.0142483
730.644	0.0143682
730.722	0.0143430
730.800	0.0143317
730.878	0.0142941
730.956	0.0142770
731.034	0.0141737
731.112	0.0141755
731.191	0.0143068
731.269	0.0142216
731.347	0.0141965
731.425	0.0141194
731.503	0.0140007
731.581	0.0139388
731.659	0.0141365
731.737	0.0141404
731.816	0.0140062
731.894	0.0140045
731.972	0.0139978
732.050	0.0140276
732.128	0.0140434
732.206	0.0139201
732.284	0.0141776
732.362	0.0140012
732.441	0.0140654
732.519	0.0139540
732.597	0.0141029
732.675	0.0140428
732.753	0.0141493
732.831	0.0140464
732.909	0.0138643
732.987	0.0140308
733.066	0.0138328
733.144	0.0139253
733.222	0.0139601
733.300	0.0137671
733.378	0.0138354
733.456	0.0138240
733.534	0.0137899
733.612	0.0139129
733.691	0.0139449
733.769	0.0138533
733.847	0.0138616
733.925	0.0139233
734.003	0.0139668
734.081	0.0142116
734.159	0.0140987
734.237	0.0143112
734.316	0.0142204
734.394	0.0141930
734.472	0.0144083
734.550	0.0142421
734.628	0.0143341
734.706	0.0143494
734.784	0.0144193
734.862	0.0143266
734.941	0.0142177
735.019	0.0142767
735.097	0.0143873
735.175	0.0143832
735.253	0.0143687
735.331	0.0142445
735.409	0.0142154
735.487	0.0142738
735.566	0.0140855
735.644	0.0140461
735.722	0.0143812
735.800	0.0142465
735.878	0.0142746
735.956	0.0141496
736.034	0.0143301
736.112	0.0142466
736.191	0.0141879
736.269	0.0142779
736.347	0.0143472
736.425	0.0143414
736.503	0.0143816
736.581	0.0144502
736.659	0.0144098
736.737	0.0144491
736.816	0.0144250
736.894	0.0143884
736.972	0.0143102
737.050	0.0143459
737.128	0.0142188
737.206	0.0142255
737.284	0.0143657
737.362	0.0143513
737.441	0.0142012
737.519	0.0140795
737.597	0.0140780
737.675	0.0140170
737.753	0.0141614
737.831	0.0141776
737.909	0.0140731
737.987	0.0140175
738.066	0.0141822
738.144	0.0140875
738.222	0.0141516
738.300	0.0142300
738.378	0.0141229
738.456	0.0140951
738.534	0.0142928
738.612	0.0140970
738.691	0.0141137
738.769	0.0141276
738.847	0.0140228
738.925	0.0141537
739.003	0.0141579
739.081	0.0142266
739.159	0.0141174
739.237	0.0141465
739.316	0.0141133
739.394	0.0140633
739.472	0.0142681
739.550	0.0141401
739.628	0.0141966
739.706	0.0141508
739.784	0.0141171
739.862	0.0141521
739.941	0.0139811
740.019	0.0141504
740.097	0.0142469
740.175	0.0142003
740.253	0.0142595
740.331	0.0141425
740.409	0.0142399
740.487	0.0142630
740.566	0.0142279
740.644	0.0142753
740.722	0.0142027
740.800	0.0142953
740.878	0.0142032
740.956	0.0143391
741.034	0.0143655
741.112	0.0143013
741.191	0.0142557
741.269	0.0143335
741.347	0.0143109
741.425	0.0142320
741.503	0.0141402
741.581	0.0143073
741.659	0.0141096
741.737	0.0141190
741.816	0.0141156
741.894	0.0141915
741.972	0.0140476
742.050	0.0139304
742.128	0.0140681
742.206	0.0139042
742.284	0.0140662
742.362	0.0140345
742.441	0.0139777
742.519	0.0139702
742.597	0.0141212
742.675	0.0140250
742.753	0.0141393
742.831	0.0140767
742.909	0.0141454
742.987	0.0140752
743.066	0.0141123
743.144	0.0141750
743.222	0.0142294
743.300	0.0140790
743.378	0.0141502
743.456	0.0141122
743.534	0.0141996
743.612	0.0142138
743.691	0.0141959
743.769	0.0140974
743.847	0.0142896
743.925	0.0141356
744.003	0.0141821
744.081	0.0142245
744.159	0.0141026
744.237	0.0141898
744.316	0.0142088
744.394	0.0143265
744.472	0.0141713
744.550	0.0139913
744.628	0.0140811
744.706	0.0142535
744.784	0.0141763
744.862	0.0142244
744.941	0.0142184
745.019	0.0141363
745.097	0.0142344
745.175	0.0142940
745.253	0.0141465
745.331	0.0142493
745.409	0.0142006
745.487	0.0142587
745.566	0.0141045
745.644	0.0141499
745.722	0.0140917
745.800	0.0141129
745.878	0.0141194
745.956	0.0141985
746.034	0.0141540
746.112	0.0140372
746.191	0.0141044
746.269	0.0141760
746.347	0.0142055
746.425	0.0141485
746.503	0.0141513
746.581	0.0142429
746.659	0.0141949
746.737	0.0143327
746.816	0.0141990
746.894	0.0141122
746.972	0.0142712
747.050	0.0143349
747.128	0.0142659
747.206	0.0143357
747.284	0.0143125
747.362	0.0141522
747.441	0.0142369
747.519	0.0143645
747.597	0.0142822
747.675	0.0142101
747.753	0.0143409
747.831	0.0143449
747.909	0.0141425
747.987	0.0142451
748.066	0.0141385
748.144	0.0141495
748.222	0.0140663
748.300	0.0141513
748.378	0.0140944
748.456	0.0141168
748.534	0.0141141
748.612	0.0140235
748.691	0.0142288
748.769	0.0142473
748.847	0.0141582
748.925	0.0142020
749.003	0.0143163
749.081	0.0144580
749.159	0.0142953
749.237	0.0143185
749.316	0.0142950
749.394	0.0144215
749.472	0.0143169
749.550	0.0142230
749.628	0.0142861
749.706	0.0143510
749.784	0.0142907
749.862	0.0143333
749.941	0.0143543
750.019	0.0141205
750.097	0.0141224
750.175	0.0141309
750.253	0.0143159
750.331	0.0141615
750.409	0.0140352
750.487	0.0140729
750.566	0.0140385
750.644	0.0140815
750.722	0.0141296
750.800	0.0140891
750.878	0.0140790
750.956	0.0141993
751.034	0.0141989
751.112	0.0143201
751.191	0.0143896
751.269	0.0142226
751.347	0.0141786
751.425	0.0141750
751.503	0.0141924
751.581	0.0142876
751.659	0.0141718
751.737	0.0143206
751.816	0.0141817
751.894	0.0141460
751.972	0.0141663
752.050	0.0140408
752.128	0.0141430
752.206	0.0141634
752.284	0.0140952
752.362	0.0142325
752.441	0.0140510
752.519	0.0140337
752.597	0.0141236
752.675	0.0142094
752.753	0.0140648
752.831	0.0141412
752.909	0.0141528
752.987	0.0140574
753.066	0.0141817
753.144	0.0141792
753.222	0.0143151
753.300	0.0143829
753.378	0.0143056
753.456	0.0143640
753.534	0.0141832
753.612	0.0143186
753.691	0.0142471
753.769	0.0143616
753.847	0.0143484
753.925	0.0143203
754.003	0.0141978
754.081	0.0142383
754.159	0.0141157
754.237	0.0142492
754.316	0.0142255
754.394	0.0142125
754.472	0.0141651
754.550	0.0141801
754.628	0.0142011
754.706	0.0142131
754.784	0.0141444
754.862	0.0142175
754.941	0.0142973
755.019	0.0141362
755.097	0.0140536
755.175	0.0142713
755.253	0.0142896
755.331	0.0141618
755.409	0.0140273
755.487	0.0139830
755.566	0.0141483
755.644	0.0141984
755.722	0.0141459
755.800	0.0141613
755.878	0.0141371
755.956	0.0141922
756.034	0.0142152
756.112	0.0140941
756.191	0.0141914
756.269	0.0140079
756.347	0.0139890
756.425	0.0142110
756.503	0.0142341
756.581	0.0141246
756.659	0.0140840
756.737	0.0142422
756.816	0.0142058
756.894	0.0142284
756.972	0.0142475
757.050	0.0142350
757.128	0.0142224
757.206	0.0142867
757.284	0.0143931
757.362	0.0141654
757.441	0.0142962
757.519	0.0142003
757.597	0.0142923
757.675	0.0141481
757.753	0.0141817
757.831	0.0142284
757.909	0.0142792
757.987	0.0142950
758.066	0.0143221
758.144	0.0141382
758.222	0.0142072
758.300	0.0141683
758.378	0.0142059
758.456	0.0141694
758.534	0.0142240
758.612	0.0141301
758.691	0.0142572
758.769	0.0142385
758.847	0.0142239
758.925	0.0142491
759.003	0.0143798
759.081	0.0142319
759.159	0.0143218
759.237	0.0142484
759.316	0.0142346
759.394	0.0142839
759.472	0.0143407
759.550	0.0140637
759.628	0.0141461
759.706	0.0142321
759.784	0.0140537
759.862	0.0141543
759.941	0.0142154
760.019	0.0140604
760.097	0.0140522
760.175	0.0140036
760.253	0.0140594
760.331	0.0141374
760.409	0.0141115
760.487	0.0139928
760.566	0.0140007
760.644	0.0141656
760.722	0.0141532
760.800	0.0143681
760.878	0.0141488
760.956	0.0141819
761.034	0.0142724
761.112	0.0142794
761.191	0.0142055
761.269	0.0143525
761.347	0.0142919
761.425	0.0143365
761.503	0.0142316
761.581	0.0140921
761.659	0.0141483
761.737	0.0141462
761.816	0.0141177
761.894	0.0141578
761.972	0.0141591
762.050	0.0141748
762.128	0.0142656
762.206	0.0142799
762.284	0.0142590
762.362	0.0141071
762.441	0.0140482
762.519	0.0142031
762.597	0.0141947
762.675	0.0144189
762.753	0.0141009
762.831	0.0142422
762.909	0.0142262
762.987	0.0142821
763.066	0.0142121
763.144	0.0141558
763.222	0.0141824
763.300	0.0142004
763.378	0.0142613
763.456	0.0142607
763.534	0.0142135
763.612	0.0142601
763.691	0.0143417
763.769	0.0142924
763.847	0.0141961
763.925	0.0143011
764.003	0.0142023
764.081	0.0141448
764.159	0.0142747
764.237	0.0142994
764.316	0.0142603
764.394	0.0141963
764.472	0.0142628
764.550	0.0142264
764.628	0.0142440
764.706	0.0142732
764.784	0.0143565
764.862	0.0142200
764.941	0.0142958
765.019	0.0141103
765.097	0.0140487
765.175	0.0141457
765.253	0.0143901
765.331	0.0143677
765.409	0.0141773
765.487	0.0142461
765.566	0.0141968
765.644	0.0142926
765.722	0.0141932
765.800	0.0141384
765.878	0.0142770
765.956	0.0142244
766.034	0.0142457
766.112	0.0141642
766.191	0.0141702
766.269	0.0142652
766.347	0.0141103
766.425	0.0142847
766.503	0.0141860
766.581	0.0141338
766.659	0.0142971
766.737	0.0143072
766.816	0.0142282
766.894	0.0140685
766.972	0.0143047
767.050	0.0141434
767.128	0.0142332
767.206	0.0141921
767.284	0.0143095
767.362	0.0141730
767.441	0.0141510
767.519	0.0142336
767.597	0.0142712
767.675	0.0141161
767.753	0.0140968
767.831	0.0141815
767.909	0.0141564
767.987	0.0142018
768.066	0.0142590
768.144	0.0142173
768.222	0.0143211
768.300	0.0142205
768.378	0.0140855
768.456	0.0140549
768.534	0.0142078
768.612	0.0141235
768.691	0.0142323
768.769	0.0142285
768.847	0.0143050
768.925	0.0141753
769.003	0.0142094
769.081	0.0141064
769.159	0.0142658
769.237	0.0141132
769.316	0.0142057
769.394	0.0141511
769.472	0.0141609
769.550	0.0142985
769.628	0.0140884
769.706	0.0140927
769.784	0.0142575
769.862	0.0141273
769.941	0.0141316
770.019	0.0140524
770.097	0.0141413
770.175	0.0141277
770.253	0.0141312
770.331	0.0142200
770.409	0.0141895
770.487	0.0140971
770.566	0.0141651
770.644	0.0141698
770.722	0.0142657
770.800	0.0142499
770.878	0.0141576
770.956	0.0141883
771.034	0.0142602
771.112	0.0142497
771.191	0.0142525
771.269	0.0141362
771.347	0.0142741
771.425	0.0143032
771.503	0.0142878
771.581	0.0141608
771.659	0.0141941
771.737	0.0141427
771.816	0.0142915
771.894	0.0140207
771.972	0.0142079
772.050	0.0142007
772.128	0.0141972
772.206	0.0142168
772.284	0.0142003
772.362	0.0141485
772.441	0.0142336
772.519	0.0141132
772.597	0.0143428
772.675	0.0143140
772.753	0.0142296
772.831	0.0141870
772.909	0.0142555
772.987	0.0142261
773.066	0.0143108
773.144	0.0141747
773.222	0.0141260
773.300	0.0142828
773.378	0.0142178
773.456	0.0141518
773.534	0.0140971
773.612	0.0142882
773.691	0.0142894
773.769	0.0142085
773.847	0.0140486
773.925	0.0140922
774.003	0.0142440
774.081	0.0139673
774.159	0.0141718
774.237	0.0140772
774.316	0.0141257
774.394	0.0141374
774.472	0.0141666
774.550	0.0142789
774.628	0.0141394
774.706	0.0141238
774.784	0.0142187
774.862	0.0141471
774.941	0.0140911
775.019	0.0141688
775.097	0.0141612
775.175	0.0141888
775.253	0.0142952
775.331	0.0141835
775.409	0.0141940
775.487	0.0141991
775.566	0.0142116
775.644	0.0141407
775.722	0.0142823
775.800	0.0142007
775.878	0.0140588
775.956	0.0141547
776.034	0.0141860
776.112	0.0141054
776.191	0.0142834
776.269	0.0143068
776.347	0.0142183
776.425	0.0141956
776.503	0.0142402
776.581	0.0142291
776.659	0.0143149
776.737	0.0142847
776.816	0.0142114
776.894	0.0141974
776.972	0.0140559
777.050	0.0141090
777.128	0.0142473
777.206	0.0141303
777.284	0.0141703
777.362	0.0142967
777.441	0.0142998
777.519	0.0141270
777.597	0.0140347
777.675	0.0140941
777.753	0.0141728
777.831	0.0142438
777.909	0.0140674
777.987	0.0141478
778.066	0.0142207
778.144	0.0143153
778.222	0.0143781
778.300	0.0141840
778.378	0.0141556
778.456	0.0142654
778.534	0.0142420
778.612	0.0141904
778.691	0.0144522
778.769	0.0142226
778.847	0.0141972
778.925	0.0142815
779.003	0.0142238
779.081	0.0140247
779.159	0.0139361
779.237	0.0142236
779.316	0.0142193
779.394	0.0142510
779.472	0.0141613
779.550	0.0141087
779.628	0.0141789
779.706	0.0140781
779.784	0.0141293
779.862	0.0141837
779.941	0.0142187
780.019	0.0140692
780.097	0.0141438
780.175	0.0141071
780.253	0.0140563
780.331	0.0141750
780.409	0.0141573
780.487	0.0142036
780.566	0.0141349
780.644	0.0142883
780.722	0.0141980
780.800	0.0142310
780.878	0.0142458
780.956	0.0141856
781.034	0.0143319
781.112	0.0141739
781.191	0.0140962
781.269	0.0144386
781.347	0.0143136
781.425	0.0142891
781.503	0.0141399
781.581	0.0141320
781.659	0.0142493
781.737	0.0142102
781.816	0.0140865
781.894	0.0141228
781.972	0.0141937
782.050	0.0142426
782.128	0.0141763
782.206	0.0142841
782.284	0.0142084
782.362	0.0141967
782.441	0.0141833
782.519	0.0141269
782.597	0.0142007
782.675	0.0142054
782.753	0.0141604
782.831	0.0142136
782.909	0.0142413
782.987	0.0141672
783.066	0.0143186
783.144	0.0143258
783.222	0.0141223
783.300	0.0142412
783.378	0.0140993
783.456	0.0142173
783.534	0.0141357
783.612	0.0142162
783.691	0.0141740
783.769	0.0141737
783.847	0.0142517
783.925	0.0142162
784.003	0.0141257
784.081	0.0142495
784.159	0.0141782
784.237	0.0140762
784.316	0.0143082
784.394	0.0142744
784.472	0.0142482
784.550	0.0143175
784.628	0.0140598
784.706	0.0140155
784.784	0.0141347
784.862	0.0141139
784.941	0.0141564
785.019	0.0141242
785.097	0.0141767
785.175	0.0140724
785.253	0.0140923
785.331	0.0141861
785.409	0.0141540
785.487	0.0141502
785.566	0.0141824
785.644	0.0141253
785.722	0.0141006
785.800	0.0139917
785.878	0.0142100
785.956	0.0141853
786.034	0.0141521
786.112	0.0142279
786.191	0.0140721
786.269	0.0141801
786.347	0.0141600
786.425	0.0141774
786.503	0.0143190
786.581	0.0142759
786.659	0.0141151
786.737	0.0144096
786.816	0.0142106
786.894	0.0141421
786.972	0.0143239
787.050	0.0141080
787.128	0.0142490
787.206	0.0142780
787.284	0.0142263
787.362	0.0142509
787.441	0.0141994
787.519	0.0142353
787.597	0.0141762
787.675	0.0143234
787.753	0.0142062
787.831	0.0141705
787.909	0.0142227
787.987	0.0142946
788.066	0.0142118
788.144	0.0142059
788.222	0.0142614
788.300	0.0142284
788.378	0.0142596
788.456	0.0141967
788.534	0.0141901
788.612	0.0142931
788.691	0.0143785
788.769	0.0144370
788.847	0.0142636
788.925	0.0142202
789.003	0.0142889
789.081	0.0141841
789.159	0.0142586
789.237	0.0143023
789.316	0.0142478
789.394	0.0141508
789.472	0.0142610
789.550	0.0141638
789.628	0.0143857
789.706	0.0141001
789.784	0.0143269
789.862	0.0142953
789.941	0.0142467
790.019	0.0142626
790.097	0.0142543
790.175	0.0141431
790.253	0.0142181
790.331	0.0142644
790.409	0.0142120
790.487	0.0141347
790.566	0.0141350
790.644	0.0141780
790.722	0.0141684
790.800	0.0141193
790.878	0.0141045
790.956	0.0141455
791.034	0.0141736
791.112	0.0140691
791.191	0.0141184
791.269	0.0142062
791.347	0.0142364
791.425	0.0141930
791.503	0.0140937
791.581	0.0141743
791.659	0.0141309
791.737	0.0141655
791.816	0.0141661
791.894	0.0141282
791.972	0.0143313
792.050	0.0142061
792.128	0.0141592
792.206	0.0143068
792.284	0.0142529
792.362	0.0142284
792.441	0.0141718
792.519	0.0143008
792.597	0.0141711
792.675	0.0141676
792.753	0.0141927
792.831	0.0141826
792.909	0.0141782
792.987	0.0142140
793.066	0.0141014
793.144	0.0142956
793.222	0.0142617
793.300	0.0141044
793.378	0.0142166
793.456	0.0142207
793.534	0.0142459
793.612	0.0142194
793.691	0.0141228
793.769	0.0140783
793.847	0.0141359
793.925	0.0142640
794.003	0.0141213
794.081	0.0142616
794.159	0.0142545
794.237	0.0141113
794.316	0.0143425
794.394	0.0143716
794.472	0.0141605
794.550	0.0142012
794.628	0.0142821
794.706	0.0141431
794.784	0.0141177
794.862	0.0141596
794.941	0.0141963
795.019	0.0142240
795.097	0.0142766
795.175	0.0142860
795.253	0.0142123
795.331	0.0141201
795.409	0.0143254
795.487	0.0142883
795.566	0.0142013
795.644	0.0141225
795.722	0.0142052
795.800	0.0141547
795.878	0.0142889
795.956	0.0143537
796.034	0.0143430
796.112	0.0142669
796.191	0.0143181
796.269	0.0141421
796.347	0.0140812
796.425	0.0141631
796.503	0.0143019
796.581	0.0142800
796.659	0.0142173
796.737	0.0143118
796.816	0.0141095
796.894	0.0142455
796.972	0.0142067
797.050	0.0142339
797.128	0.0143002
797.206	0.0142242
797.284	0.0143921
797.362	0.0142285
797.441	0.0141438
797.519	0.0142839
797.597	0.0141901
797.675	0.0141910
797.753	0.0141400
797.831	0.0142970
797.909	0.0143854
797.987	0.0141775
798.066	0.0142545
798.144	0.0141649
798.222	0.0142308
798.300	0.0141251
798.378	0.0143269
798.456	0.0142696
798.534	0.0142507
798.612	0.0140205
798.691	0.0141812
798.769	0.0142188
798.847	0.0142764
798.925	0.0141249
799.003	0.0140874
799.081	0.0143592
799.159	0.0143607
799.237	0.0142671
799.316	0.0140572
799.394	0.0141525
799.472	0.0142271
799.550	0.0142582
799.628	0.0141320
799.706	0.0140038
799.784	0.0141416
799.862	0.0141947
799.941	0.0143247
800.019	0.0141676
800.097	0.0141035
800.175	0.0140581
800.253	0.0140558
800.331	0.0143177
800.409	0.0142966
800.487	0.0141676
800.566	0.0143140
800.644	0.0142070
800.722	0.0141754
800.800	0.0141071
800.878	0.0141797
800.956	0.0141037
801.034	0.0142117
801.112	0.0140676
801.191	0.0141404
801.269	0.0142712
801.347	0.0142710
801.425	0.0141871
801.503	0.0141743
801.581	0.0141527
801.659	0.0141430
801.737	0.0140840
801.816	0.0141557
801.894	0.0141234
801.972	0.0141874
802.050	0.0139750
802.128	0.0141553
802.206	0.0142976
802.284	0.0142057
802.362	0.0142467
802.441	0.0141090
802.519	0.0140802
802.597	0.0141568
802.675	0.0141158
802.753	0.0141588
802.831	0.0140222
802.909	0.0141859
802.987	0.0142076
803.066	0.0143341
803.144	0.0142190
803.222	0.0140646
803.300	0.0140624
803.378	0.0141510
803.456	0.0141317
803.534	0.0141293
803.612	0.0141855
803.691	0.0142002
803.769	0.0142768
803.847	0.0141421
803.925	0.0140329
804.003	0.0140720
804.081	0.0141593
804.159	0.0142014
804.237	0.0141302
804.316	0.0141044
804.394	0.0141832
804.472	0.0141828
804.550	0.0140899
804.628	0.0141492
804.706	0.0140681
804.784	0.0141767
804.862	0.0142123
804.941	0.0141228
805.019	0.0142072
805.097	0.0142972
805.175	0.0142339
805.253	0.0141946
805.331	0.0141380
805.409	0.0141560
805.487	0.0141441
805.566	0.0141677
805.644	0.0141222
805.722	0.0142959
805.800	0.0142416
805.878	0.0141479
805.956	0.0143624
806.034	0.0142341
806.112	0.0142163
806.191	0.0142662
806.269	0.0141219
806.347	0.0143464
806.425	0.0140968
806.503	0.0141304
806.581	0.0142753
806.659	0.0143151
806.737	0.0140947
806.816	0.0141521
806.894	0.0141488
806.972	0.0142232
807.050	0.0142940
807.128	0.0142895
807.206	0.0141770
807.284	0.0141257
807.362	0.0141041
807.441	0.0140574
807.519	0.0141725
807.597	0.0142864
807.675	0.0141531
807.753	0.0141151
807.831	0.0141446
807.909	0.0141963
807.987	0.0142776
808.066	0.0143562
808.144	0.0142506
808.222	0.0142049
808.300	0.0142199
808.378	0.0141339
808.456	0.0141778
808.534	0.0142495
808.612	0.0141694
808.691	0.0142567
808.769	0.0142553
808.847	0.0142098
808.925	0.0142305
809.003	0.0142696
809.081	0.0142867
809.159	0.0142780
809.237	0.0142185
809.316	0.0142104
809.394	0.0142760
809.472	0.0142500
809.550	0.0143697
809.628	0.0142398
809.706	0.0142498
809.784	0.0141577
809.862	0.0142651
809.941	0.0142066
810.019	0.0142094
810.097	0.0141606
810.175	0.0142955
810.253	0.0142535
810.331	0.0141199
810.409	0.0141907
810.487	0.0141751
810.566	0.0142554
810.644	0.0143543
810.722	0.0141925
810.800	0.0142365
810.878	0.0142991
810.956	0.0142586
811.034	0.0143269
811.112	0.0142050
811.191	0.0141219
811.269	0.0142221
811.347	0.0143385
811.425	0.0142786
811.503	0.0141625
811.581	0.0141576
811.659	0.0140430
811.737	0.0142579
811.816	0.0142078
811.894	0.0142767
811.972	0.0141203
812.050	0.0141502
812.128	0.0142088
812.206	0.0140933
812.284	0.0141711
812.362	0.0141077
812.441	0.0142122
812.519	0.0141682
812.597	0.0142666
812.675	0.0142403
812.753	0.0142242
812.831	0.0141113
812.909	0.0141671
812.987	0.0142073
813.066	0.0142768
813.144	0.0140495
813.222	0.0142893
813.300	0.0141310
813.378	0.0141485
813.456	0.0142511
813.534	0.0142123
813.612	0.0141811
813.691	0.0143764
813.769	0.0141320
813.847	0.0142205
813.925	0.0141235
814.003	0.0142252
814.081	0.0141673
814.159	0.0141087
814.237	0.0141492
814.316	0.0142622
814.394	0.0142275
814.472	0.0142348
814.550	0.0142347
814.628	0.0142693
814.706	0.0142202
814.784	0.0142137
814.862	0.0142287
814.941	0.0142312
815.019	0.0141735
815.097	0.0141518
815.175	0.0141107
815.253	0.0142796
815.331	0.0142475
815.409	0.0141257
815.487	0.0142365
815.566	0.0142097
815.644	0.0141603
815.722	0.0142802
815.800	0.0141551
815.878	0.0139035
815.956	0.0142327
816.034	0.0140640
816.112	0.0141221
816.191	0.0141161
816.269	0.0140627
816.347	0.0139878
816.425	0.0141383
816.503	0.0140711
816.581	0.0141204
816.659	0.0140829
816.737	0.0141876
816.816	0.0141415
816.894	0.0141762
816.972	0.0140960
817.050	0.0142001
817.128	0.0142072
817.206	0.0141505
817.284	0.0142186
817.362	0.0142543
817.441	0.0141449
817.519	0.0141290
817.597	0.0141805
817.675	0.0141116
817.753	0.0140938
817.831	0.0142139
817.909	0.0143665
817.987	0.0143364
818.066	0.0141597
818.144	0.0142231
818.222	0.0140907
818.300	0.0141610
818.378	0.0142460
818.456	0.0142306
818.534	0.0140729
818.612	0.0141189
818.691	0.0141448
818.769	0.0142384
818.847	0.0141719
818.925	0.0141398
819.003	0.0142715
819.081	0.0141429
819.159	0.0141311
819.237	0.0141306
819.316	0.0141809
819.394	0.0141450
819.472	0.0142667
819.550	0.0142968
819.628	0.0141766
819.706	0.0141730
819.784	0.0142499
819.862	0.0142826
819.941	0.0142222
820.019	0.0142749
820.097	0.0143438
820.175	0.0142145
820.253	0.0141576
820.331	0.0142739
820.409	0.0142196
820.487	0.0141105
820.566	0.0141879
820.644	0.0142284
820.722	0.0141679
820.800	0.0142369
820.878	0.0142424
820.956	0.0141165
821.034	0.0142140
821.112	0.0142386
821.191	0.0141673
821.269	0.0143636
821.347	0.0142397
821.425	0.0141173
821.503	0.0140518
821.581	0.0141914
821.659	0.0143211
821.737	0.0142953
821.816	0.0141371
821.894	0.0142239
821.972	0.0141938
822.050	0.0139825
822.128	0.0140755
822.206	0.0142438
822.284	0.0143465
822.362	0.0141365
822.441	0.0141705
822.519	0.0141225
822.597	0.0140820
822.675	0.0141694
822.753	0.0141187
822.831	0.0141695
822.909	0.0140762
822.987	0.0142753
823.066	0.0143166
823.144	0.0141975
823.222	0.0141231
823.300	0.0140434
823.378	0.0141669
823.456	0.0141448
823.534	0.0141586
823.612	0.0143370
823.691	0.0141999
823.769	0.0139716
823.847	0.0140666
823.925	0.0141576
824.003	0.0141166
824.081	0.0141932
824.159	0.0142015
824.237	0.0141243
824.316	0.0141520
824.394	0.0141517
824.472	0.0141853
824.550	0.0142568
824.628	0.0141107
824.706	0.0140596
824.784	0.0141776
824.862	0.0140658
824.941	0.0142184
825.019	0.0141994
825.097	0.0141731
825.175	0.0140983
825.253	0.0141022
825.331	0.0141457
825.409	0.0142441
825.487	0.0142135
825.566	0.0141946
825.644	0.0142513
825.722	0.0142152
825.800	0.0140767
825.878	0.0141224
825.956	0.0141919
826.034	0.0142899
826.112	0.0142346
826.191	0.0141645
826.269	0.0141792
826.347	0.0141085
826.425	0.0142440
826.503	0.0142170
826.581	0.0142040
826.659	0.0142163
826.737	0.0140608
826.816	0.0141309
826.894	0.0143300
826.972	0.0142330
827.050	0.0141584
827.128	0.0141133
827.206	0.0141498
827.284	0.0143288
827.362	0.0142048
827.441	0.0141389
827.519	0.0142422
827.597	0.0142416
827.675	0.0143916
827.753	0.0143443
827.831	0.0142739
827.909	0.0141911
827.987	0.0142603
828.066	0.0141100
828.144	0.0142036
828.222	0.0142476
828.300	0.0142134
828.378	0.0141065
828.456	0.0141888
828.534	0.0141306
828.612	0.0140967
828.691	0.0142174
828.769	0.0141474
828.847	0.0141911
828.925	0.0142638
829.003	0.0142134
829.081	0.0140962
829.159	0.0142998
829.237	0.0142463
829.316	0.0142347
829.394	0.0143837
829.472	0.0140613
829.550	0.0141914
829.628	0.0142105
829.706	0.0141946
829.784	0.0141427
829.862	0.0141406
829.941	0.0142648
830.019	0.0141101
830.097	0.0141113
830.175	0.0142136
830.253	0.0142580
830.331	0.0141282
830.409	0.0141491
830.487	0.0143594
830.566	0.0142350
830.644	0.0142647
830.722	0.0141351
830.800	0.0142664
830.878	0.0142223
830.956	0.0141366
831.034	0.0142130
831.112	0.0141599
831.191	0.0142654
831.269	0.0141930
831.347	0.0142831
831.425	0.0142889
831.503	0.0140481
831.581	0.0142384
831.659	0.0143120
831.737	0.0142551
831.816	0.0142891
831.894	0.0142707
831.972	0.0142209
832.050	0.0141870
832.128	0.0141175
832.206	0.0141851
832.284	0.0141532
832.362	0.0141913
832.441	0.0141015
832.519	0.0141023
832.597	0.0141698
832.675	0.0141968
832.753	0.0141889
832.831	0.0140430
832.909	0.0141568
832.987	0.0141846
833.066	0.0140704
833.144	0.0142031
833.222	0.0141254
833.300	0.0140132
833.378	0.0141405
833.456	0.0142091
833.534	0.0141088
833.612	0.0141427
833.691	0.0141625
833.769	0.0141129
833.847	0.0142099
833.925	0.0140829
834.003	0.0141640
834.081	0.0142112
834.159	0.0141263
834.237	0.0140843
834.316	0.0141756
834.394	0.0140999
834.472	0.0142548
834.550	0.0142291
834.628	0.0140126
834.706	0.0141063
834.784	0.0140782
834.862	0.0140790
834.941	0.0140651
835.019	0.0141035
835.097	0.0141164
835.175	0.0141581
835.253	0.0141050
835.331	0.0141077
835.409	0.0141059
835.487	0.0142386
835.566	0.0142908
835.644	0.0141518
835.722	0.0141637
835.800	0.0141605
835.878	0.0140787
835.956	0.0142888
836.034	0.0142049
836.112	0.0141960
836.191	0.0141953
836.269	0.0142523
836.347	0.0142155
836.425	0.0141959
836.503	0.0141580
836.581	0.0140573
836.659	0.0142357
836.737	0.0142914
836.816	0.0141808
836.894	0.0141868
836.972	0.0141884
837.050	0.0142159
837.128	0.0142680
837.206	0.0141829
837.284	0.0142994
837.362	0.0142374
837.441	0.0141897
837.519	0.0142876
837.597	0.0143415
837.675	0.0141959
837.753	0.0141381
837.831	0.0142274
837.909	0.0143596
837.987	0.0142574
838.066	0.0143666
838.144	0.0142778
838.222	0.0141182
838.300	0.0141914
838.378	0.0143223
838.456	0.0142869
838.534	0.0143970
838.612	0.0142419
838.691	0.0141442
838.769	0.0142377
838.847	0.0142692
838.925	0.0144106
839.003	0.0142393
839.081	0.0142545
839.159	0.0142311
839.237	0.0141901
839.316	0.0141492
839.394	0.0142171
839.472	0.0141351
839.550	0.0141828
839.628	0.0142178
839.706	0.0142264
839.784	0.0141787
839.862	0.0141055
839.941	0.0142997
840.019	0.0141754
840.097	0.0141884
840.175	0.0141693
840.253	0.0141516
840.331	0.0142177
840.409	0.0141163
840.487	0.0140793
840.566	0.0142019
840.644	0.0142941
840.722	0.0141183
840.800	0.0142561
840.878	0.0143101
840.956	0.0141994
841.034	0.0141235
841.112	0.0140853
841.191	0.0140812
841.269	0.0140890
841.347	0.0143310
841.425	0.0141775
841.503	0.0141207
841.581	0.0142938
841.659	0.0142126
841.737	0.0142422
841.816	0.0142903
841.894	0.0141484
841.972	0.0140252
842.050	0.0141197
842.128	0.0141866
842.206	0.0141868
842.284	0.0142152
842.362	0.0142112
842.441	0.0142191
842.519	0.0142551
842.597	0.0141140
842.675	0.0141637
842.753	0.0141315
842.831	0.0141284
842.909	0.0140517
842.987	0.0141191
843.066	0.0143948
843.144	0.0142641
843.222	0.0142078
843.300	0.0141276
843.378	0.0142046
843.456	0.0141811
843.534	0.0141318
843.612	0.0141676
843.691	0.0141812
843.769	0.0141680
843.847	0.0141412
843.925	0.0140412
844.003	0.0141592
844.081	0.0141580
844.159	0.0142595
844.237	0.0140916
844.316	0.0141275
844.394	0.0141838
844.472	0.0142310
844.550	0.0142035
844.628	0.0142198
844.706	0.0141043
844.784	0.0141228
844.862	0.0140266
844.941	0.0141084
845.019	0.0142143
845.097	0.0141120
845.175	0.0142725
845.253	0.0141557
845.331	0.0141552
845.409	0.0143334
845.487	0.0142458
845.566	0.0141708
845.644	0.0142759
845.722	0.0141550
845.800	0.0142670
845.878	0.0141932
845.956	0.0143641
846.034	0.0141630
846.112	0.0141223
846.191	0.0144060
846.269	0.0143066
846.347	0.0142413
846.425	0.0141624
846.503	0.0141988
846.581	0.0142554
846.659	0.0141650
846.737	0.0142828
846.816	0.0142052
846.894	0.0141273
846.972	0.0141731
847.050	0.0140516
847.128	0.0141026
847.206	0.0141911
847.284	0.0142072
847.362	0.0141373
847.441	0.0140873
847.519	0.0141814
847.597	0.0142844
847.675	0.0143457
847.753	0.0142220
847.831	0.0141938
847.909	0.0140885
847.987	0.0142200
848.066	0.0142081
848.144	0.0142795
848.222	0.0143111
848.300	0.0143149
848.378	0.0142977
848.456	0.0142771
848.534	0.0143243
848.612	0.0142976
848.691	0.0142709
848.769	0.0143172
848.847	0.0142719
848.925	0.0142794
849.003	0.0141772
849.081	0.0142944
849.159	0.0142329
849.237	0.0142127
849.316	0.0141414
849.394	0.0142675
849.472	0.0142417
849.550	0.0142390
849.628	0.0142335
849.706	0.0141480
849.784	0.0142442
849.862	0.0142885
849.941	0.0143022
850.019	0.0141678
850.097	0.0142977
850.175	0.0142225
850.253	0.0141139
850.331	0.0141430
850.409	0.0143035
850.487	0.0142712
850.566	0.0142001
850.644	0.0142072
850.722	0.0141248
850.800	0.0142269
850.878	0.0141680
850.956	0.0140414
851.034	0.0141736
851.112	0.0141962
851.191	0.0142596
851.269	0.0141180
851.347	0.0141829
851.425	0.0140467
851.503	0.0142148
851.581	0.0142170
851.659	0.0141892
851.737	0.0141695
851.816	0.0142507
851.894	0.0140091
851.972	0.0141698
852.050	0.0141003
852.128	0.0142098
852.206	0.0141191
852.284	0.0142700
852.362	0.0142240
852.441	0.0142350
852.519	0.0141158
852.597	0.0142477
852.675	0.0142207
852.753	0.0142833
852.831	0.0140635
852.909	0.0139912
852.987	0.0140721
853.066	0.0141624
853.144	0.0141974
853.222	0.0143464
853.300	0.0142233
853.378	0.0142390
853.456	0.0141489
853.534	0.0141949
853.612	0.0141550
853.691	0.0140531
853.769	0.0142701
853.847	0.0143046
853.925	0.0141902
854.003	0.0141978
854.081	0.0142008
854.159	0.0142093
854.237	0.0141285
854.316	0.0142207
854.394	0.0141238
854.472	0.0141307
854.550	0.0140735
854.628	0.0140154
854.706	0.0142856
854.784	0.0141467
854.862	0.0141125
854.941	0.0141945
855.019	0.0142312
855.097	0.0141481
855.175	0.0142074
855.253	0.0140990
855.331	0.0141348
855.409	0.0141135
855.487	0.0141568
855.566	0.0141096
855.644	0.0141962
855.722	0.0141889
855.800	0.0142017
855.878	0.0142130
855.956	0.0141808
856.034	0.0141150
856.112	0.0142866
856.191	0.0141457
856.269	0.0142418
856.347	0.0141601
856.425	0.0142367
856.503	0.0142191
856.581	0.0143176
856.659	0.0142863
856.737	0.0141833
856.816	0.0142575
856.894	0.0143760
856.972	0.0141687
857.050	0.0142032
857.128	0.0141902
857.206	0.0141713
857.284	0.0141692
857.362	0.0142162
857.441	0.0142986
857.519	0.0141573
857.597	0.0142953
857.675	0.0142339
857.753	0.0143016
857.831	0.0141273
857.909	0.0141986
857.987	0.0142584
858.066	0.0141728
858.144	0.0141582
858.222	0.0141645
858.300	0.0141920
858.378	0.0140996
858.456	0.0140554
858.534	0.0141972
858.612	0.0141822
858.691	0.0139899
858.769	0.0141840
858.847	0.0142909
858.925	0.0142114
859.003	0.0140414
859.081	0.0140710
859.159	0.0142145
859.237	0.0141481
859.316	0.0141775
859.394	0.0141936
859.472	0.0142979
859.550	0.0142487
859.628	0.0141583
859.706	0.0142159
859.784	0.0141162
859.862	0.0141433
859.941	0.0141924
860.019	0.0140850
860.097	0.0141768
860.175	0.0141579
860.253	0.0141972
860.331	0.0142419
860.409	0.0142232
860.487	0.0142551
860.566	0.0141747
860.644	0.0141629
860.722	0.0142678
860.800	0.0141174
860.878	0.0141433
860.956	0.0143494
861.034	0.0143396
861.112	0.0141272
861.191	0.0142672
861.269	0.0141800
861.347	0.0142655
861.425	0.0140690
861.503	0.0142985
861.581	0.0141746
861.659	0.0142480
861.737	0.0142019
861.816	0.0142400
861.894	0.0141411
861.972	0.0142149
862.050	0.0142371
862.128	0.0142392
862.206	0.0141456
862.284	0.0141278
862.362	0.0143162
862.441	0.0141808
862.519	0.0140601
862.597	0.0142584
862.675	0.0142440
862.753	0.0142198
862.831	0.0142882
862.909	0.0141887
862.987	0.0142160
863.066	0.0141952
863.144	0.0142027
863.222	0.0142771
863.300	0.0142506
863.378	0.0141167
863.456	0.0142540
863.534	0.0141617
863.612	0.0142429
863.691	0.0142487
863.769	0.0142287
863.847	0.0141291
863.925	0.0140919
864.003	0.0141537
864.081	0.0142328
864.159	0.0141521
864.237	0.0141331
864.316	0.0142097
864.394	0.0142037
864.472	0.0141467
864.550	0.0140632
864.628	0.0141583
864.706	0.0141608
864.784	0.0141747
864.862	0.0142722
864.941	0.0141698
865.019	0.0141148
865.097	0.0141687
865.175	0.0141568
865.253	0.0141988
865.331	0.0141206
865.409	0.0141495
865.487	0.0142348
865.566	0.0142209
865.644	0.0141981
865.722	0.0141767
865.800	0.0141633
865.878	0.0141868
865.956	0.0140778
866.034	0.0140714
866.112	0.0140796
866.191	0.0140874
866.269	0.0140977
866.347	0.0141617
866.425	0.0142172
866.503	0.0140797
866.581	0.0143077
866.659	0.0143339
866.737	0.0141219
866.816	0.0143105
866.894	0.0143180
866.972	0.0142075
867.050	0.0142178
867.128	0.0141370
867.206	0.0142696
867.284	0.0142337
867.362	0.0142452
867.441	0.0141914
867.519	0.0140719
867.597	0.0141189
867.675	0.0142826
867.753	0.0142326
867.831	0.0141202
867.909	0.0141485
867.987	0.0142436
868.066	0.0143002
868.144	0.0142439
868.222	0.0141029
868.300	0.0142596
868.378	0.0142846
868.456	0.0143228
868.534	0.0140628
868.612	0.0140691
868.691	0.0141537
868.769	0.0142596
868.847	0.0140594
868.925	0.0141569
869.003	0.0142281
869.081	0.0140295
869.159	0.0140427
869.237	0.0140593
869.316	0.0140608
869.394	0.0142509
869.472	0.0140114
869.550	0.0141628
869.628	0.0143383
869.706	0.0142242
869.784	0.0141048
869.862	0.0141251
869.941	0.0141055
870.019	0.0141885
870.097	0.0141827
870.175	0.0142138
870.253	0.0142843
870.331	0.0140506
870.409	0.0141897
870.487	0.0141174
870.566	0.0141417
870.644	0.0141667
870.722	0.0141473
870.800	0.0143044
870.878	0.0141312
870.956	0.0141219
871.034	0.0140414
871.112	0.0142899
871.191	0.0143002
871.269	0.0141309
871.347	0.0140445
871.425	0.0141879
871.503	0.0141940
871.581	0.0141868
871.659	0.0142126
871.737	0.0141440
871.816	0.0140305
871.894	0.0142034
871.972	0.0141979
872.050	0.0142763
872.128	0.0142477
872.206	0.0142010
872.284	0.0142437
872.362	0.0141935
872.441	0.0141710
872.519	0.0141715
872.597	0.0141158
872.675	0.0140482
872.753	0.0142314
872.831	0.0140954
872.909	0.0142021
872.987	0.0140204
873.066	0.0142252
873.144	0.0143890
873.222	0.0141037
873.300	0.0140654
873.378	0.0141200
873.456	0.0142471
873.534	0.0142121
873.612	0.0141000
873.691	0.0142654
873.769	0.0141794
873.847	0.0140675
873.925	0.0141247
874.003	0.0141956
874.081	0.0141994
874.159	0.0141478
874.237	0.0141342
874.316	0.0141671
874.394	0.0141013
874.472	0.0141603
874.550	0.0140995
874.628	0.0142514
874.706	0.0141544
874.784	0.0140239
874.862	0.0142606
874.941	0.0141894
875.019	0.0140279
875.097	0.0141631
875.175	0.0141703
875.253	0.0141154
875.331	0.0141756
875.409	0.0139697
875.487	0.0141190
875.566	0.0141499
875.644	0.0140755
875.722	0.0140363
875.800	0.0140638
875.878	0.0140759
875.956	0.0142064
876.034	0.0141811
876.112	0.0141541
876.191	0.0140961
876.269	0.0140022
876.347	0.0142317
876.425	0.0140582
876.503	0.0141824
876.581	0.0142342
876.659	0.0141768
876.737	0.0141461
876.816	0.0141656
876.894	0.0140542
876.972	0.0143592
877.050	0.0141822
877.128	0.0141808
877.206	0.0142387
877.284	0.0141811
877.362	0.0141366
877.441	0.0141650
877.519	0.0142146
877.597	0.0142162
877.675	0.0141473
877.753	0.0142561
877.831	0.0142612
877.909	0.0141505
877.987	0.0140924
878.066	0.0142596
878.144	0.0142236
878.222	0.0142715
878.300	0.0141637
878.378	0.0142272
878.456	0.0142554
878.534	0.0140407
878.612	0.0141723
878.691	0.0142294
878.769	0.0140842
878.847	0.0143159
878.925	0.0141615
879.003	0.0142365
879.081	0.0141738
879.159	0.0141482
879.237	0.0140993
879.316	0.0143833
879.394	0.0142272
879.472	0.0140581
879.550	0.0142293
879.628	0.0143221
879.706	0.0142527
879.784	0.0141357
879.862	0.0140532
879.941	0.0142332
880.019	0.0141762
880.097	0.0141479
880.175	0.0142773
880.253	0.0142322
880.331	0.0143419
880.409	0.0142685
880.487	0.0142554
880.566	0.0142823
880.644	0.0141263
880.722	0.0141360
880.800	0.0141628
880.878	0.0142587
880.956	0.0140588
881.034	0.0143232
881.112	0.0141502
881.191	0.0141759
881.269	0.0142387
881.347	0.0142641
881.425	0.0141965
881.503	0.0142959
881.581	0.0141730
881.659	0.0143185
881.737	0.0143328
881.816	0.0142461
881.894	0.0142380
881.972	0.0142586
882.050	0.0141519
882.128	0.0141263
882.206	0.0142398
882.284	0.0140887
882.362	0.0141605
882.441	0.0140723
882.519	0.0140429
882.597	0.0141296
882.675	0.0141515
882.753	0.0142880
882.831	0.0143057
882.909	0.0142367
882.987	0.0142332
883.066	0.0142171
883.144	0.0142877
883.222	0.0141635
883.300	0.0142506
883.378	0.0140682
883.456	0.0141964
883.534	0.0142677
883.612	0.0142014
883.691	0.0142441
883.769	0.0141290
883.847	0.0142187
883.925	0.0141306
884.003	0.0142387
884.081	0.0141784
884.159	0.0142577
884.237	0.0142189
884.316	0.0141357
884.394	0.0141765
884.472	0.0142578
884.550	0.0142809
884.628	0.0141269
884.706	0.0142362
884.784	0.0142557
884.862	0.0141901
884.941	0.0141481
885.019	0.0140762
885.097	0.0143939
885.175	0.0141525
885.253	0.0140600
885.331	0.0140604
885.409	0.0141540
885.487	0.0143103
885.566	0.0141844
885.644	0.0140401
885.722	0.0143372
885.800	0.0141283
885.878	0.0140135
885.956	0.0141434
886.034	0.0143517
886.112	0.0141290
886.191	0.0139977
886.269	0.0141756
886.347	0.0141602
886.425	0.0142752
886.503	0.0141732
886.581	0.0141409
886.659	0.0142973
886.737	0.0142244
886.816	0.0141053
886.894	0.0142518
886.972	0.0142667
887.050	0.0143482
887.128	0.0141595
887.206	0.0142577
887.284	0.0142851
887.362	0.0142869
887.441	0.0141654
887.519	0.0142611
887.597	0.0142647
887.675	0.0143530
887.753	0.0143477
887.831	0.0142729
887.909	0.0141589
887.987	0.0141978
888.066	0.0142796
888.144	0.0142773
888.222	0.0142389
888.300	0.0142805
888.378	0.0143910
888.456	0.0142558
888.534	0.0142579
888.612	0.0143761
888.691	0.0142715
888.769	0.0142670
888.847	0.0141689
888.925	0.0142561
889.003	0.0142769
889.081	0.0142918
889.159	0.0141370
889.237	0.0142776
889.316	0.0142107
889.394	0.0142020
889.472	0.0141692
889.550	0.0142793
889.628	0.0141767
889.706	0.0140910
889.784	0.0143012
889.862	0.0143048
889.941	0.0143693
890.019	0.0141321
890.097	0.0142710
890.175	0.0142652
890.253	0.0142327
890.331	0.0144196
890.409	0.0143826
890.487	0.0142989
890.566	0.0142129
890.644	0.0142510
890.722	0.0142648
890.800	0.0140903
890.878	0.0141129
890.956	0.0142642
891.034	0.0142913
891.112	0.0143241
891.191	0.0141132
891.269	0.0141892
891.347	0.0141772
891.425	0.0141605
891.503	0.0141759
891.581	0.0143064
891.659	0.0141570
891.737	0.0141096
891.816	0.0142699
891.894	0.0141681
891.972	0.0141849
892.050	0.0142624
892.128	0.0142721
892.206	0.0142116
892.284	0.0142150
892.362	0.0142001
892.441	0.0142754
892.519	0.0141455
892.597	0.0140360
892.675	0.0142074
892.753	0.0142178
892.831	0.0141494
892.909	0.0141998
892.987	0.0143083
893.066	0.0142548
893.144	0.0142554
893.222	0.0141483
893.300	0.0141592
893.378	0.0142452
893.456	0.0141883
893.534	0.0141827
893.612	0.0140888
893.691	0.0141424
893.769	0.0142832
893.847	0.0140288
893.925	0.0141628
894.003	0.0141191
894.081	0.0142086
894.159	0.0141165
894.237	0.0141290
894.316	0.0141207
894.394	0.0141216
894.472	0.0142990
894.550	0.0141842
894.628	0.0141805
894.706	0.0142878
894.784	0.0141699
894.862	0.0141780
894.941	0.0142641
895.019	0.0142280
895.097	0.0141370
895.175	0.0142362
895.253	0.0141442
895.331	0.0142422
895.409	0.0142463
895.487	0.0141713
895.566	0.0141488
895.644	0.0142271
895.722	0.0141377
895.800	0.0141405
895.878	0.0142830
895.956	0.0141784
896.034	0.0140836
896.112	0.0140372
896.191	0.0141973
896.269	0.0141196
896.347	0.0142306
896.425	0.0141987
896.503	0.0142433
896.581	0.0143536
896.659	0.0142032
896.737	0.0142146
896.816	0.0141553
896.894	0.0143156
896.972	0.0141447
897.050	0.0141401
897.128	0.0142529
897.206	0.0141668
897.284	0.0143376
897.362	0.0141967
897.441	0.0143013
897.519	0.0142013
897.597	0.0142863
897.675	0.0141369
897.753	0.0141863
897.831	0.0141601
897.909	0.0142771
897.987	0.0141412
898.066	0.0142188
898.144	0.0142934
898.222	0.0140883
898.300	0.0142113
898.378	0.0142128
898.456	0.0142494
898.534	0.0142115
898.612	0.0141646
898.691	0.0141836
898.769	0.0141430
898.847	0.0140476
898.925	0.0141310
899.003	0.0141889
899.081	0.0140740
899.159	0.0141260
899.237	0.0141908
899.316	0.0141671
899.394	0.0142279
899.472	0.0142460
899.550	0.0141262
899.628	0.0142036
899.706	0.0143118
899.784	0.0142532
899.862	0.0142511
899.941	0.0141713
900.019	0.0141287
900.097	0.0142239
900.175	0.0141866
900.253	0.0141721
900.331	0.0143046
900.409	0.0142161
900.487	0.0142204
900.566	0.0142123
900.644	0.0142330
900.722	0.0143722
900.800	0.0142318
900.878	0.0143090
900.956	0.0142767
901.034	0.0142977
901.112	0.0142467
901.191	0.0142467
901.269	0.0141666
901.347	0.0142584
901.425	0.0143471
901.503	0.0142753
901.581	0.0140839
901.659	0.0141747
901.737	0.0142376
901.816	0.0141957
901.894	0.0140399
901.972	0.0142293
902.050	0.0142663
902.128	0.0143053
902.206	0.0142388
902.284	0.0142562
902.362	0.0142683
902.441	0.0141758
902.519	0.0141367
902.597	0.0141479
902.675	0.0141331
902.753	0.0142553
902.831	0.0142182
902.909	0.0141818
902.987	0.0141188
903.066	0.0140554
903.144	0.0141725
903.222	0.0142789
903.300	0.0141831
903.378	0.0141314
903.456	0.0141333
903.534	0.0142020
903.612	0.0142213
903.691	0.0141905
903.769	0.0142286
903.847	0.0141679
903.925	0.0142489
904.003	0.0142570
904.081	0.0142200
904.159	0.0141682
904.237	0.0140887
904.316	0.0141350
904.394	0.0142068
904.472	0.0140999
904.550	0.0141541
904.628	0.0141815
904.706	0.0142464
904.784	0.0141840
904.862	0.0141365
904.941	0.0141084
905.019	0.0141748
905.097	0.0142455
905.175	0.0142607
905.253	0.0142421
905.331	0.0141893
905.409	0.0142114
905.487	0.0141864
905.566	0.0141666
905.644	0.0142372
905.722	0.0141766
905.800	0.0141283
905.878	0.0140792
905.956	0.0141332
906.034	0.0141001
906.112	0.0141219
906.191	0.0141312
906.269	0.0141637
906.347	0.0141225
906.425	0.0142328
906.503	0.0141712
906.581	0.0141430
906.659	0.0141706
906.737	0.0142784
906.816	0.0140715
906.894	0.0142453
906.972	0.0141121
907.050	0.0143189
907.128	0.0141181
907.206	0.0141377
907.284	0.0142625
907.362	0.0141838
907.441	0.0141510
907.519	0.0142628
907.597	0.0141180
907.675	0.0140936
907.753	0.0141852
907.831	0.0142183
907.909	0.0142133
907.987	0.0142204
908.066	0.0142145
908.144	0.0141556
908.222	0.0141151
908.300	0.0140716
908.378	0.0141467
908.456	0.0142832
908.534	0.0141837
908.612	0.0141545
908.691	0.0141981
908.769	0.0142873
908.847	0.0141997
908.925	0.0141761
909.003	0.0142127
909.081	0.0141864
909.159	0.0142690
909.237	0.0143034
909.316	0.0142648
909.394	0.0142138
909.472	0.0144424
909.550	0.0141671
909.628	0.0143828
909.706	0.0143651
909.784	0.0143225
909.862	0.0143465
909.941	0.0143369
910.019	0.0141727
910.097	0.0143752
910.175	0.0143585
910.253	0.0143223
910.331	0.0143247
910.409	0.0142331
910.487	0.0141570
910.566	0.0143690
910.644	0.0142310
910.722	0.0142654
910.800	0.0141161
910.878	0.0142313
910.956	0.0141911
911.034	0.0142376
911.112	0.0142345
911.191	0.0142232
911.269	0.0141695
911.347	0.0143354
911.425	0.0142149
911.503	0.0141634
911.581	0.0141223
911.659	0.0140636
911.737	0.0141672
911.816	0.0142867
911.894	0.0143600
911.972	0.0143676
912.050	0.0141573
912.128	0.0143285
912.206	0.0142260
912.284	0.0142291
912.362	0.0143084
912.441	0.0142249
912.519	0.0142218
912.597	0.0141677
912.675	0.0142062
912.753	0.0140942
912.831	0.0139445
912.909	0.0140276
912.987	0.0141125
913.066	0.0140968
913.144	0.0140945
913.222	0.0139914
913.300	0.0141538
913.378	0.0142780
913.456	0.0141300
913.534	0.0140963
913.612	0.0139716
913.691	0.0142489
913.769	0.0141602
913.847	0.0140427
913.925	0.0142407
914.003	0.0142342
914.081	0.0141470
914.159	0.0141855
914.237	0.0142191
914.316	0.0142764
914.394	0.0141766
914.472	0.0141869
914.550	0.0140632
914.628	0.0139835
914.706	0.0141812
914.784	0.0142725
914.862	0.0142963
914.941	0.0142450
915.019	0.0142827
915.097	0.0140561
915.175	0.0142390
915.253	0.0141301
915.331	0.0141681
915.409	0.0142010
915.487	0.0142056
915.566	0.0141748
915.644	0.0140515
915.722	0.0141502
915.800	0.0141508
915.878	0.0141515
915.956	0.0141700
916.034	0.0140243
916.112	0.0140800
916.191	0.0141989
916.269	0.0140843
916.347	0.0141714
916.425	0.0140813
916.503	0.0142016
916.581	0.0142178
916.659	0.0141212
916.737	0.0141582
916.816	0.0142249
916.894	0.0142323
916.972	0.0142245
917.050	0.0142634
917.128	0.0140552
917.206	0.0140303
917.284	0.0141882
917.362	0.0141641
917.441	0.0140670
917.519	0.0142053
917.597	0.0139126
917.675	0.0142165
917.753	0.0142120
917.831	0.0141783
917.909	0.0141929
917.987	0.0143056
918.066	0.0142116
918.144	0.0141550
918.222	0.0140488
918.300	0.0141631
918.378	0.0141929
918.456	0.0142764
918.534	0.0141705
918.612	0.0142716
918.691	0.0141572
918.769	0.0141751
918.847	0.0140517
918.925	0.0143163
919.003	0.0142503
919.081	0.0141157
919.159	0.0140832
919.237	0.0141094
919.316	0.0142242
919.394	0.0142564
919.472	0.0142558
919.550	0.0142520
919.628	0.0141902
919.706	0.0141949
919.784	0.0142638
919.862	0.0142172
919.941	0.0141980
920.019	0.0142638
920.097	0.0141503
920.175	0.0142308
920.253	0.0142361
920.331	0.0142911
920.409	0.0143088
920.487	0.0142905
920.566	0.0142732
920.644	0.0142391
920.722	0.0141814
920.800	0.0141136
920.878	0.0142396
920.956	0.0142277
921.034	0.0142632
921.112	0.0141668
921.191	0.0142165
921.269	0.0142693
921.347	0.0142874
921.425	0.0142441
921.503	0.0141003
921.581	0.0140845
921.659	0.0141758
921.737	0.0142755
921.816	0.0142438
921.894	0.0141424
921.972	0.0143128
922.050	0.0141923
922.128	0.0141019
922.206	0.0142468
922.284	0.0141861
922.362	0.0141959
922.441	0.0143475
922.519	0.0141969
922.597	0.0142139
922.675	0.0142140
922.753	0.0141584
922.831	0.0141643
922.909	0.0141166
922.987	0.0141776
923.066	0.0141589
923.144	0.0142299
923.222	0.0141904
923.300	0.0140449
923.378	0.0141866
923.456	0.0141441
923.534	0.0140935
923.612	0.0142725
923.691	0.0142359
923.769	0.0140386
923.847	0.0140750
923.925	0.0141951
924.003	0.0143017
924.081	0.0141834
924.159	0.0142720
924.237	0.0142087
924.316	0.0142220
924.394	0.0143262
924.472	0.0142332
924.550	0.0142060
924.628	0.0142593
924.706	0.0140419
924.784	0.0140401
924.862	0.0140080
924.941	0.0142471
925.019	0.0143213
925.097	0.0142162
925.175	0.0141124
925.253	0.0141468
925.331	0.0143034
925.409	0.0142778
925.487	0.0141283
925.566	0.0141427
925.644	0.0142490
925.722	0.0142346
925.800	0.0142726
925.878	0.0140495
925.956	0.0141003
926.034	0.0142176
926.112	0.0140021
926.191	0.0141219
926.269	0.0140669
926.347	0.0142142
926.425	0.0141424
926.503	0.0140154
926.581	0.0141528
926.659	0.0141489
926.737	0.0141982
926.816	0.0141327
926.894	0.0140797
926.972	0.0140838
927.050	0.0141138
927.128	0.0141915
927.206	0.0142334
927.284	0.0140861
927.362	0.0141782
927.441	0.0140804
927.519	0.0141285
927.597	0.0142002
927.675	0.0141532
927.753	0.0141755
927.831	0.0141574
927.909	0.0141419
927.987	0.0141614
928.066	0.0142106
928.144	0.0143002
928.222	0.0140890
928.300	0.0140652
928.378	0.0142849
928.456	0.0142770
928.534	0.0142295
928.612	0.0141861
928.691	0.0141768
928.769	0.0140891
928.847	0.0142308
928.925	0.0140937
929.003	0.0142148
929.081	0.0142992
929.159	0.0142896
929.237	0.0141670
929.316	0.0140786
929.394	0.0141767
929.472	0.0142313
929.550	0.0142902
929.628	0.0144212
929.706	0.0141942
929.784	0.0140503
929.862	0.0142107
929.941	0.0142348
930.019	0.0141972
930.097	0.0141071
930.175	0.0142701
930.253	0.0143694
930.331	0.0140782
930.409	0.0143507
930.487	0.0142638
930.566	0.0142327
930.644	0.0142770
930.722	0.0143134
930.800	0.0142325
930.878	0.0141515
930.956	0.0142327
931.034	0.0143550
931.112	0.0141873
931.191	0.0141804
931.269	0.0142348
931.347	0.0142646
931.425	0.0142227
931.503	0.0141806
931.581	0.0141890
931.659	0.0141335
931.737	0.0141525
931.816	0.0142111
931.894	0.0141803
931.972	0.0143152
932.050	0.0142107
932.128	0.0141284
932.206	0.0142151
932.284	0.0141673
932.362	0.0141016
932.441	0.0141708
932.519	0.0142310
932.597	0.0142532
932.675	0.0140421
932.753	0.0141817
932.831	0.0141647
932.909	0.0141724
932.987	0.0141332
933.066	0.0142245
933.144	0.0141496
933.222	0.0142027
933.300	0.0141496
933.378	0.0142544
933.456	0.0142950
933.534	0.0141801
933.612	0.0141496
933.691	0.0141131
933.769	0.0141103
933.847	0.0142076
933.925	0.0142889
934.003	0.0141895
934.081	0.0141883
934.159	0.0141425
934.237	0.0142046
934.316	0.0140958
934.394	0.0141824
934.472	0.0141388
934.550	0.0141270
934.628	0.0140220
934.706	0.0140340
934.784	0.0140615
934.862	0.0141996
934.941	0.0141011
935.019	0.0141061
935.097	0.0141182
935.175	0.0141305
935.253	0.0143281
935.331	0.0141555
935.409	0.0141000
935.487	0.0141832
935.566	0.0141379
935.644	0.0141639
935.722	0.0140797
935.800	0.0141669
935.878	0.0140795
935.956	0.0142215
936.034	0.0142132
936.112	0.0141733
936.191	0.0142555
936.269	0.0141901
936.347	0.0141087
936.425	0.0141042
936.503	0.0141975
936.581	0.0142963
936.659	0.0141792
936.737	0.0142182
936.816	0.0141145
936.894	0.0142561
936.972	0.0142056
937.050	0.0141453
937.128	0.0142295
937.206	0.0140348
937.284	0.0141095
937.362	0.0141270
937.441	0.0141859
937.519	0.0142056
937.597	0.0141291
937.675	0.0140649
937.753	0.0142079
937.831	0.0142172
937.909	0.0140353
937.987	0.0141632
938.066	0.0140459
938.144	0.0141652
938.222	0.0141447
938.300	0.0142504
938.378	0.0143036
938.456	0.0142185
938.534	0.0140997
938.612	0.0141492
938.691	0.0141543
938.769	0.0143466
938.847	0.0142297
938.925	0.0141290
939.003	0.0142027
939.081	0.0141801
939.159	0.0142105
939.237	0.0141148
939.316	0.0142498
939.394	0.0141646
939.472	0.0141902
939.550	0.0141474
939.628	0.0141669
939.706	0.0140652
939.784	0.0141531
939.862	0.0141967
939.941	0.0143018
940.019	0.0142110
940.097	0.0141338
940.175	0.0141664
940.253	0.0141100
940.331	0.0141772
940.409	0.0141873
940.487	0.0143003
940.566	0.0141842
940.644	0.0142774
940.722	0.0140565
940.800	0.0141427
940.878	0.0142640
940.956	0.0141644
941.034	0.0141445
941.112	0.0142668
941.191	0.0141571
941.269	0.0141189
941.347	0.0142687
941.425	0.0142165
941.503	0.0143234
941.581	0.0142699
941.659	0.0140746
941.737	0.0141399
941.816	0.0142144
941.894	0.0141401
941.972	0.0142866
942.050	0.0142348
942.128	0.0142274
942.206	0.0142168
942.284	0.0143227
942.362	0.0142994
942.441	0.0142444
942.519	0.0142357
942.597	0.0141888
942.675	0.0142225
942.753	0.0143969
942.831	0.0142213
942.909	0.0141723
942.987	0.0139967
943.066	0.0143214
943.144	0.0141467
943.222	0.0141181
943.300	0.0142536
943.378	0.0142963
943.456	0.0142374
943.534	0.0141856
943.612	0.0141905
943.691	0.0142456
943.769	0.0141386
943.847	0.0143777
943.925	0.0143156
944.003	0.0141558
944.081	0.0142487
944.159	0.0142805
944.237	0.0142718
944.316	0.0142664
944.394	0.0142738
944.472	0.0141044
944.550	0.0141472
944.628	0.0142397
944.706	0.0142728
944.784	0.0142442
944.862	0.0141745
944.941	0.0141321
945.019	0.0142210
945.097	0.0141495
945.175	0.0141323
945.253	0.0142513
945.331	0.0141987
945.409	0.0141554
945.487	0.0141695
945.566	0.0140867
945.644	0.0140693
945.722	0.0141207
945.800	0.0142873
945.878	0.0142708
945.956	0.0142148
946.034	0.0142490
946.112	0.0141085
946.191	0.0141174
946.269	0.0141059
946.347	0.0141848
946.425	0.0141973
946.503	0.0141770
946.581	0.0141301
946.659	0.0142840
946.737	0.0142168
946.816	0.0141486
946.894	0.0141631
946.972	0.0141898
947.050	0.0140968
947.128	0.0140695
947.206	0.0143001
947.284	0.0142365
947.362	0.0140873
947.441	0.0141831
947.519	0.0141879
947.597	0.0141810
947.675	0.0141051
947.753	0.0142031
947.831	0.0141087
947.909	0.0141997
947.987	0.0142313
948.066	0.0141305
948.144	0.0141164
948.222	0.0140981
948.300	0.0141013
948.378	0.0141928
948.456	0.0141547
948.534	0.0139832
948.612	0.0141275
948.691	0.0140546
948.769	0.0141385
948.847	0.0142068
948.925	0.0139755
949.003	0.0141280
949.081	0.0141109
949.159	0.0142099
949.237	0.0140735
949.316	0.0140978
949.394	0.0139980
949.472	0.0141446
949.550	0.0141949
949.628	0.0141118
949.706	0.0140678
949.784	0.0142335
949.862	0.0141219
949.941	0.0141032
950.019	0.0140914
950.097	0.0139977
950.175	0.0141428
950.253	0.0141292
950.331	0.0142520
950.409	0.0141988
950.487	0.0140714
950.566	0.0143200
950.644	0.0141852
950.722	0.0142273
950.800	0.0140849
950.878	0.0140800
950.956	0.0142883
951.034	0.0141061
951.112	0.0140884
951.191	0.0140984
951.269	0.0141111
951.347	0.0142265
951.425	0.0140590
951.503	0.0140765
951.581	0.0141888
951.659	0.0142122
951.737	0.0142686
951.816	0.0143761
951.894	0.0141519
951.972	0.0141381
952.050	0.0143204
952.128	0.0142120
952.206	0.0142041
952.284	0.0141768
952.362	0.0141541
952.441	0.0142922
952.519	0.0142799
952.597	0.0142596
952.675	0.0141717
952.753	0.0141579
952.831	0.0142268
952.909	0.0143758
952.987	0.0143365
953.066	0.0142991
953.144	0.0141279
953.222	0.0142758
953.300	0.0143446
953.378	0.0142600
953.456	0.0142372
953.534	0.0142418
953.612	0.0142909
953.691	0.0141479
953.769	0.0141415
953.847	0.0142376
953.925	0.0142073
954.003	0.0142120
954.081	0.0142269
954.159	0.0142286
954.237	0.0143571
954.316	0.0142145
954.394	0.0142473
954.472	0.0141746
954.550	0.0142550
954.628	0.0143588
954.706	0.0142133
954.784	0.0141730
954.862	0.0141265
954.941	0.0142024
955.019	0.0141457
955.097	0.0141737
955.175	0.0142404
955.253	0.0142259
955.331	0.0142374
955.409	0.0142841
955.487	0.0142634
955.566	0.0140365
955.644	0.0141973
955.722	0.0143177
955.800	0.0141827
955.878	0.0140141
955.956	0.0141270
956.034	0.0142218
956.112	0.0142023
956.191	0.0141388
956.269	0.0142907
956.347	0.0142261
956.425	0.0142087
956.503	0.0141621
956.581	0.0141243
956.659	0.0140861
956.737	0.0142004
956.816	0.0140859
956.894	0.0142945
956.972	0.0142439
957.050	0.0141177
957.128	0.0141206
957.206	0.0141620
957.284	0.0143498
957.362	0.0142292
957.441	0.0141908
957.519	0.0142224
957.597	0.0142763
957.675	0.0141879
957.753	0.0142042
957.831	0.0141405
957.909	0.0143082
957.987	0.0142371
958.066	0.0140862
958.144	0.0141768
958.222	0.0142489
958.300	0.0141531
958.378	0.0142151
958.456	0.0141330
958.534	0.0142166
958.612	0.0142786
958.691	0.0142629
958.769	0.0142491
958.847	0.0141743
958.925	0.0142948
959.003	0.0142144
959.081	0.0141808
959.159	0.0141143
959.237	0.0142501
959.316	0.0142178
959.394	0.0142130
959.472	0.0142145
959.550	0.0142129
959.628	0.0141316
959.706	0.0141198
959.784	0.0141593
959.862	0.0142159
959.941	0.0141577
960.019	0.0140938
960.097	0.0141629
960.175	0.0141671
960.253	0.0142406
960.331	0.0141246
960.409	0.0140854
960.487	0.0142338
960.566	0.0140870
960.644	0.0142158
960.722	0.0140956
960.800	0.0142229
960.878	0.0140798
960.956	0.0139944
961.034	0.0141136
961.112	0.0142317
961.191	0.0142599
961.269	0.0142100
961.347	0.0141360
961.425	0.0140855
961.503	0.0141376
961.581	0.0140562
961.659	0.0140191
961.737	0.0142963
961.816	0.0143172
961.894	0.0141476
961.972	0.0141775
962.050	0.0141347
962.128	0.0142555
962.206	0.0141960
962.284	0.0142612
962.362	0.0141453
962.441	0.0142650
962.519	0.0140555
962.597	0.0142156
962.675	0.0141820
962.753	0.0142532
962.831	0.0141647
962.909	0.0141326
962.987	0.0141648
963.066	0.0142509
963.144	0.0140876
963.222	0.0141105
963.300	0.0141389
963.378	0.0141565
963.456	0.0140474
963.534	0.0142132
963.612	0.0141807
963.691	0.0140873
963.769	0.0142204
963.847	0.0141489
963.925	0.0142638
964.003	0.0143386
964.081	0.0142706
964.159	0.0143090
964.237	0.0142550
964.316	0.0142129
964.394	0.0142724
964.472	0.0142411
964.550	0.0141517
964.628	0.0142908
964.706	0.0142149
964.784	0.0141192
964.862	0.0142918
964.941	0.0142680
965.019	0.0141656
965.097	0.0144342
965.175	0.0143006
965.253	0.0142298
965.331	0.0143520
965.409	0.0143157
965.487	0.0142252
965.566	0.0141679
965.644	0.0143021
965.722	0.0142645
965.800	0.0142059
965.878	0.0141443
965.956	0.0142367
966.034	0.0142870
966.112	0.0141922
966.191	0.0143148
966.269	0.0142773
966.347	0.0142268
966.425	0.0140269
966.503	0.0143190
966.581	0.0142081
966.659	0.0141041
966.737	0.0142816
966.816	0.0141486
966.894	0.0142019
966.972	0.0142443
967.050	0.0141105
967.128	0.0141354
967.206	0.0142965
967.284	0.0142290
967.362	0.0142976
967.441	0.0142200
967.519	0.0141801
967.597	0.0143235
967.675	0.0141068
967.753	0.0141071
967.831	0.0140990
967.909	0.0141519
967.987	0.0140206
968.066	0.0142285
968.144	0.0140839
968.222	0.0141570
968.300	0.0141109
968.378	0.0140046
968.456	0.0141230
968.534	0.0140195
968.612	0.0140797
968.691	0.0140842
968.769	0.0140487
968.847	0.0141192
968.925	0.0141992
969.003	0.0141128
969.081	0.0141987
969.159	0.0140957
969.237	0.0141585
969.316	0.0142304
969.394	0.0142118
969.472	0.0142011
969.550	0.0141202
969.628	0.0142087
969.706	0.0140652
969.784	0.0142054
969.862	0.0142369
969.941	0.0141831
970.019	0.0141682
970.097	0.0142281
970.175	0.0142420
970.253	0.0141286
970.331	0.0142896
970.409	0.0142274
970.487	0.0142883
970.566	0.0142026
970.644	0.0142298
970.722	0.0143166
970.800	0.0141764
970.878	0.0143463
970.956	0.0143121
971.034	0.0141647
971.112	0.0143485
971.191	0.0142182
971.269	0.0140717
971.347	0.0140353
971.425	0.0141798
971.503	0.0141682
971.581	0.0142522
971.659	0.0142165
971.737	0.0141818
971.816	0.0143380
971.894	0.0142341
971.972	0.0141165
972.050	0.0143661
972.128	0.0142482
972.206	0.0141421
972.284	0.0141663
972.362	0.0141234
972.441	0.0142277
972.519	0.0141265
972.597	0.0142469
972.675	0.0140002
972.753	0.0142218
972.831	0.0142878
972.909	0.0142625
972.987	0.0142256
973.066	0.0140899
973.144	0.0139844
973.222	0.0142050
973.300	0.0141763
973.378	0.0141247
973.456	0.0141764
973.534	0.0141852
973.612	0.0143003
973.691	0.0141226
973.769	0.0141721
973.847	0.0141747
973.925	0.0142319
974.003	0.0141534
974.081	0.0142184
974.159	0.0140757
974.237	0.0141357
974.316	0.0141950
974.394	0.0141496
974.472	0.0142476
974.550	0.0141479
974.628	0.0141169
974.706	0.0142057
974.784	0.0142113
974.862	0.0141771
974.941	0.0142678
975.019	0.0141834
975.097	0.0142449
975.175	0.0142101
975.253	0.0141975
975.331	0.0142178
975.409	0.0141636
975.487	0.0141954
975.566	0.0140718
975.644	0.0141226
975.722	0.0141343
975.800	0.0140312
975.878	0.0141229
975.956	0.0142338
976.034	0.0142439
976.112	0.0142212
976.191	0.0141103
976.269	0.0140718
976.347	0.0141805
976.425	0.0141590
976.503	0.0142390
976.581	0.0142226
976.659	0.0143654
976.737	0.0142734
976.816	0.0142643
976.894	0.0141650
976.972	0.0141953
977.050	0.0141627
977.128	0.0141962
977.206	0.0142924
977.284	0.0143325
977.362	0.0142473
977.441	0.0142988
977.519	0.0144147
977.597	0.0142693
977.675	0.0142498
977.753	0.0141711
977.831	0.0142002
977.909	0.0143722
977.987	0.0143186
978.066	0.0142357
978.144	0.0141746
978.222	0.0141554
978.300	0.0141907
978.378	0.0143139
978.456	0.0142742
978.534	0.0142791
978.612	0.0141498
978.691	0.0142329
978.769	0.0141986
978.847	0.0142773
978.925	0.0142319
979.003	0.0142477
979.081	0.0143352
979.159	0.0142817
979.237	0.0141752
979.316	0.0142469
979.394	0.0144133
979.472	0.0143014
979.550	0.0143308
979.628	0.0141239
979.706	0.0140960
979.784	0.0141917
979.862	0.0143018
979.941	0.0143048
980.019	0.0143211
980.097	0.0140807
980.175	0.0142843
980.253	0.0143079
980.331	0.0142255
980.409	0.0139838
980.487	0.0141400
980.566	0.0142523
980.644	0.0142548
980.722	0.0141633
980.800	0.0142348
980.878	0.0142255
980.956	0.0141742
981.034	0.0141913
981.112	0.0140995
981.191	0.0143169
981.269	0.0142233
981.347	0.0142358
981.425	0.0141717
981.503	0.0141093
981.581	0.0141732
981.659	0.0141607
981.737	0.0141380
981.816	0.0141702
981.894	0.0141846
981.972	0.0142037
982.050	0.0141650
982.128	0.0142120
982.206	0.0141817
982.284	0.0141003
982.362	0.0140632
982.441	0.0140935
982.519	0.0142659
982.597	0.0141428
982.675	0.0141493
982.753	0.0140612
982.831	0.0141576
982.909	0.0141010
982.987	0.0140508
983.066	0.0141655
983.144	0.0140939
983.222	0.0141066
983.300	0.0142104
983.378	0.0142403
983.456	0.0141105
983.534	0.0144067
983.612	0.0142400
983.691	0.0142477
983.769	0.0143339
983.847	0.0142738
983.925	0.0142627
984.003	0.0141480
984.081	0.0141471
984.159	0.0141785
984.237	0.0141573
984.316	0.0142270
984.394	0.0141966
984.472	0.0141794
984.550	0.0143400
984.628	0.0141878
984.706	0.0141094
984.784	0.0142200
984.862	0.0142725
984.941	0.0140945
985.019	0.0142088
985.097	0.0142625
985.175	0.0141117
985.253	0.0141138
985.331	0.0141523
985.409	0.0141869
985.487	0.0142458
985.566	0.0142512
985.644	0.0141512
985.722	0.0141013
985.800	0.0141281
985.878	0.0140828
985.956	0.0142306
986.034	0.0141286
986.112	0.0141838
986.191	0.0140970
986.269	0.0141306
986.347	0.0141518
986.425	0.0140337
986.503	0.0141322
986.581	0.0141102
986.659	0.0141752
986.737	0.0141478
986.816	0.0141454
986.894	0.0141505
986.972	0.0141924
987.050	0.0140897
987.128	0.0141228
987.206	0.0140681
987.284	0.0141264
987.362	0.0143012
987.441	0.0142214
987.519	0.0143735
987.597	0.0141800
987.675	0.0142979
987.753	0.0140801
987.831	0.0141930
987.909	0.0142528
987.987	0.0141180
988.066	0.0141914
988.144	0.0141027
988.222	0.0142593
988.300	0.0142350
988.378	0.0142792
988.456	0.0143485
988.534	0.0143528
988.612	0.0142541
988.691	0.0142148
988.769	0.0143835
988.847	0.0142444
988.925	0.0141831
989.003	0.0141371
989.081	0.0140335
989.159	0.0143094
989.237	0.0141833
989.316	0.0142222
989.394	0.0144093
989.472	0.0143422
989.550	0.0142440
989.628	0.0141829
989.706	0.0142921
989.784	0.0141888
989.862	0.0141000
989.941	0.0141012
990.019	0.0141653
990.097	0.0142972
990.175	0.0142497
990.253	0.0142315
990.331	0.0142142
990.409	0.0141663
990.487	0.0141494
990.566	0.0142006
990.644	0.0142039
990.722	0.0142953
990.800	0.0142733
990.878	0.0140940
990.956	0.0141330
991.034	0.0141376
991.112	0.0141748
991.191	0.0141955
991.269	0.0139910
991.347	0.0141249
991.425	0.0140881
991.503	0.0139674
991.581	0.0142861
991.659	0.0142390
991.737	0.0141027
991.816	0.0141347
991.894	0.0141870
991.972	0.0141597
992.050	0.0142057
992.128	0.0142256
992.206	0.0142113
992.284	0.0140674
992.362	0.0142394
992.441	0.0142093
992.519	0.0142738
992.597	0.0141963
992.675	0.0140581
992.753	0.0141561
992.831	0.0140208
992.909	0.0141412
992.987	0.0141610
993.066	0.0141552
993.144	0.0141982
993.222	0.0142006
993.300	0.0142204
993.378	0.0142098
993.456	0.0142304
993.534	0.0142786
993.612	0.0140546
993.691	0.0141897
993.769	0.0141701
993.847	0.0140874
993.925	0.0141649
994.003	0.0142235
994.081	0.0141905
994.159	0.0141965
994.237	0.0141332
994.316	0.0143523
994.394	0.0142204
994.472	0.0141936
994.550	0.0141183
994.628	0.0142096
994.706	0.0141421
994.784	0.0140974
994.862	0.0141035
994.941	0.0141598
995.019	0.0142797
995.097	0.0141235
995.175	0.0140652
995.253	0.0141688
995.331	0.0141874
995.409	0.0140211
995.487	0.0140641
995.566	0.0140632
995.644	0.0142187
995.722	0.0141286
995.800	0.0141017
995.878	0.0141639
995.956	0.0141946
996.034	0.0140524
996.112	0.0141194
996.191	0.0141703
996.269	0.0142048
996.347	0.0140869
996.425	0.0142049
996.503	0.0142033
996.581	0.0142179
996.659	0.0140900
996.737	0.0140949
996.816	0.0142907
996.894	0.0141531
996.972	0.0142873
997.050	0.0142189
997.128	0.0139838
997.206	0.0141682
997.284	0.0142531
997.362	0.0141773
997.441	0.0141865
997.519	0.0141103
997.597	0.0139899
997.675	0.0141843
997.753	0.0142489
997.831	0.0142040
997.909	0.0139738
997.987	0.0141338
998.066	0.0140568
998.144	0.0140073
998.222	0.0141425
998.300	0.0141056
998.378	0.0141001
998.456	0.0140807
998.534	0.0142020
998.612	0.0141790
998.691	0.0141019
998.769	0.0141373
998.847	0.0141414
998.925	0.0141582
