05/04/2022	21:08:57	Ver.	4.1	UNKNOWN
Optical Delay	678.996401	Delta X		0.078125	Sweeps	1	Scan Rate	0/0
Coordinates	Axis 1	NaN	Axis 2	NaN	Axis 3	NaN	Axis 4	NaN	Axis 5	NaN	Axis 6	0.000000
TX Power	0.000000	RX Power	0.000000

678.996	0.0145653
679.075	0.0145999
679.153	0.0145808
679.231	0.0145946
679.309	0.0144672
679.387	0.0145115
679.465	0.0146082
679.543	0.0146093
679.621	0.0145925
679.700	0.0145244
679.778	0.0144725
679.856	0.0146558
679.934	0.0145863
680.012	0.0145201
680.090	0.0145667
680.168	0.0146800
680.246	0.0144664
680.325	0.0145634
680.403	0.0145582
680.481	0.0146231
680.559	0.0144658
680.637	0.0145371
680.715	0.0145201
680.793	0.0144383
680.871	0.0145333
680.950	0.0145398
681.028	0.0146308
681.106	0.0144625
681.184	0.0145837
681.262	0.0145268
681.340	0.0145911
681.418	0.0145120
681.496	0.0146075
681.575	0.0146731
681.653	0.0146406
681.731	0.0145540
681.809	0.0146034
681.887	0.0144756
681.965	0.0145749
682.043	0.0145927
682.121	0.0145319
682.200	0.0144884
682.278	0.0144909
682.356	0.0146254
682.434	0.0145428
682.512	0.0145657
682.590	0.0146449
682.668	0.0146258
682.746	0.0145267
682.825	0.0145964
682.903	0.0146783
682.981	0.0144685
683.059	0.0145295
683.137	0.0145319
683.215	0.0145048
683.293	0.0145665
683.371	0.0145271
683.450	0.0145531
683.528	0.0145835
683.606	0.0145114
683.684	0.0145644
683.762	0.0145592
683.840	0.0145129
683.918	0.0145715
683.996	0.0146054
684.075	0.0145223
684.153	0.0143536
684.231	0.0145270
684.309	0.0145228
684.387	0.0144213
684.465	0.0146172
684.543	0.0146500
684.621	0.0146699
684.700	0.0145589
684.778	0.0145937
684.856	0.0146498
684.934	0.0147071
685.012	0.0146017
685.090	0.0145192
685.168	0.0145494
685.246	0.0145364
685.325	0.0145884
685.403	0.0146701
685.481	0.0147529
685.559	0.0146471
685.637	0.0143705
685.715	0.0144311
685.793	0.0146137
685.871	0.0145829
685.950	0.0145752
686.028	0.0145615
686.106	0.0145410
686.184	0.0145162
686.262	0.0144679
686.340	0.0145872
686.418	0.0145435
686.496	0.0145827
686.575	0.0144957
686.653	0.0145867
686.731	0.0146410
686.809	0.0145979
686.887	0.0145531
686.965	0.0145490
687.043	0.0144644
687.121	0.0144312
687.200	0.0145399
687.278	0.0144536
687.356	0.0145767
687.434	0.0145528
687.512	0.0146704
687.590	0.0146851
687.668	0.0146212
687.746	0.0144981
687.825	0.0145162
687.903	0.0146314
687.981	0.0146625
688.059	0.0146915
688.137	0.0145005
688.215	0.0145013
688.293	0.0145919
688.371	0.0146742
688.450	0.0146239
688.528	0.0145597
688.606	0.0145390
688.684	0.0144510
688.762	0.0144037
688.840	0.0145769
688.918	0.0144779
688.996	0.0146080
689.075	0.0145296
689.153	0.0145638
689.231	0.0144080
689.309	0.0145123
689.387	0.0144691
689.465	0.0144403
689.543	0.0144350
689.621	0.0144673
689.700	0.0144663
689.778	0.0143839
689.856	0.0144360
689.934	0.0144060
690.012	0.0144240
690.090	0.0144028
690.168	0.0143371
690.246	0.0145425
690.325	0.0144430
690.403	0.0145143
690.481	0.0144107
690.559	0.0145553
690.637	0.0145140
690.715	0.0144627
690.793	0.0143291
690.871	0.0146620
690.950	0.0146222
691.028	0.0144806
691.106	0.0145023
691.184	0.0145193
691.262	0.0144118
691.340	0.0143378
691.418	0.0144025
691.496	0.0144315
691.575	0.0144221
691.653	0.0144757
691.731	0.0145952
691.809	0.0144509
691.887	0.0145665
691.965	0.0144818
692.043	0.0144189
692.121	0.0145695
692.200	0.0146324
692.278	0.0144656
692.356	0.0145580
692.434	0.0148203
692.512	0.0146879
692.590	0.0146568
692.668	0.0146664
692.746	0.0146268
692.825	0.0146142
692.903	0.0148548
692.981	0.0146837
693.059	0.0148170
693.137	0.0146938
693.215	0.0145911
693.293	0.0146133
693.371	0.0145789
693.450	0.0146002
693.528	0.0145563
693.606	0.0143296
693.684	0.0145079
693.762	0.0144468
693.840	0.0142093
693.918	0.0143317
693.996	0.0144781
694.075	0.0144689
694.153	0.0143137
694.231	0.0144574
694.309	0.0143554
694.387	0.0144821
694.465	0.0145200
694.543	0.0145458
694.621	0.0145724
694.700	0.0144684
694.778	0.0145322
694.856	0.0145501
694.934	0.0145958
695.012	0.0147266
695.090	0.0146104
695.168	0.0146573
695.246	0.0145200
695.325	0.0145284
695.403	0.0146001
695.481	0.0145354
695.559	0.0144120
695.637	0.0145438
695.715	0.0145721
695.793	0.0145116
695.871	0.0145328
695.950	0.0145347
696.028	0.0145005
696.106	0.0146071
696.184	0.0145461
696.262	0.0142626
696.340	0.0143879
696.418	0.0145248
696.496	0.0142962
696.575	0.0144097
696.653	0.0144580
696.731	0.0145216
696.809	0.0145515
696.887	0.0144741
696.965	0.0146164
697.043	0.0146073
697.121	0.0145808
697.200	0.0146146
697.278	0.0144936
697.356	0.0145840
697.434	0.0146885
697.512	0.0145210
697.590	0.0145525
697.668	0.0145341
697.746	0.0145036
697.825	0.0146864
697.903	0.0145509
697.981	0.0146009
698.059	0.0146326
698.137	0.0146637
698.215	0.0146313
698.293	0.0147626
698.371	0.0146751
698.450	0.0147398
698.528	0.0147684
698.606	0.0147952
698.684	0.0147067
698.762	0.0147097
698.840	0.0146739
698.918	0.0146234
698.996	0.0146320
699.075	0.0146017
699.153	0.0144165
699.231	0.0143845
699.309	0.0144309
699.387	0.0144035
699.465	0.0144602
699.543	0.0143991
699.621	0.0144411
699.700	0.0144586
699.778	0.0145275
699.856	0.0145837
699.934	0.0145747
700.012	0.0147458
700.090	0.0147730
700.168	0.0146596
700.246	0.0144903
700.325	0.0146496
700.403	0.0145974
700.481	0.0146022
700.559	0.0145554
700.637	0.0145029
700.715	0.0144814
700.793	0.0145055
700.871	0.0145522
700.950	0.0146320
701.028	0.0145226
701.106	0.0143861
701.184	0.0145384
701.262	0.0143924
701.340	0.0143717
701.418	0.0142740
701.496	0.0144089
701.575	0.0144439
701.653	0.0143717
701.731	0.0144561
701.809	0.0145210
701.887	0.0145996
701.965	0.0145364
702.043	0.0146879
702.121	0.0144932
702.200	0.0146522
702.278	0.0144550
702.356	0.0146072
702.434	0.0145129
702.512	0.0146417
702.590	0.0146893
702.668	0.0147574
702.746	0.0148716
702.825	0.0148192
702.903	0.0147849
702.981	0.0147682
703.059	0.0147193
703.137	0.0145245
703.215	0.0144900
703.293	0.0144316
703.371	0.0144556
703.450	0.0144317
703.528	0.0144204
703.606	0.0145020
703.684	0.0146202
703.762	0.0145553
703.840	0.0146382
703.918	0.0148334
703.996	0.0147863
704.075	0.0146892
704.153	0.0146073
704.231	0.0146321
704.309	0.0146062
704.387	0.0145355
704.465	0.0144479
704.543	0.0145415
704.621	0.0146236
704.700	0.0145503
704.778	0.0144621
704.856	0.0144864
704.934	0.0144088
705.012	0.0144070
705.090	0.0143382
705.168	0.0141411
705.246	0.0141046
705.325	0.0142284
705.403	0.0141463
705.481	0.0143082
705.559	0.0144747
705.637	0.0145647
705.715	0.0147668
705.793	0.0147150
705.871	0.0150273
705.950	0.0151427
706.028	0.0150505
706.106	0.0150340
706.184	0.0148689
706.262	0.0147878
706.340	0.0146785
706.418	0.0146241
706.496	0.0146054
706.575	0.0145951
706.653	0.0147164
706.731	0.0148616
706.809	0.0148161
706.887	0.0148181
706.965	0.0150498
707.043	0.0149912
707.121	0.0148234
707.200	0.0148219
707.278	0.0146623
707.356	0.0145011
707.434	0.0143893
707.512	0.0141630
707.590	0.0140476
707.668	0.0138399
707.746	0.0136961
707.825	0.0138898
707.903	0.0138995
707.981	0.0139215
708.059	0.0137543
708.137	0.0138869
708.215	0.0139756
708.293	0.0140334
708.371	0.0141618
708.450	0.0143092
708.528	0.0146310
708.606	0.0149509
708.684	0.0153291
708.762	0.0153271
708.840	0.0157285
708.918	0.0159892
708.996	0.0160119
709.075	0.0157767
709.153	0.0156591
709.231	0.0153239
709.309	0.0150062
709.387	0.0147645
709.465	0.0145364
709.543	0.0143205
709.621	0.0142547
709.700	0.0141712
709.778	0.0144382
709.856	0.0145393
709.934	0.0146054
710.012	0.0147053
710.090	0.0147793
710.168	0.0148278
710.246	0.0148135
710.325	0.0146690
710.403	0.0144249
710.481	0.0143232
710.559	0.0142305
710.637	0.0138770
710.715	0.0137948
710.793	0.0136086
710.871	0.0135844
710.950	0.0135845
711.028	0.0135096
711.106	0.0134254
711.184	0.0136509
711.262	0.0139570
711.340	0.0139762
711.418	0.0144286
711.496	0.0148844
711.575	0.0151692
711.653	0.0154429
711.731	0.0156826
711.809	0.0158369
711.887	0.0159682
711.965	0.0159056
712.043	0.0160872
712.121	0.0158858
712.200	0.0155360
712.278	0.0151923
712.356	0.0149226
712.434	0.0147433
712.512	0.0144222
712.590	0.0141774
712.668	0.0141582
712.746	0.0140752
712.825	0.0143604
712.903	0.0143625
712.981	0.0142070
713.059	0.0143415
713.137	0.0143391
713.215	0.0142249
713.293	0.0143079
713.371	0.0143572
713.450	0.0143938
713.528	0.0142864
713.606	0.0140860
713.684	0.0140717
713.762	0.0138892
713.840	0.0137704
713.918	0.0137665
713.996	0.0136939
714.075	0.0136196
714.153	0.0138150
714.231	0.0138605
714.309	0.0140466
714.387	0.0143135
714.465	0.0145696
714.543	0.0147593
714.621	0.0151240
714.700	0.0153059
714.778	0.0156316
714.856	0.0157239
714.934	0.0157511
715.012	0.0157088
715.090	0.0154996
715.168	0.0153716
715.246	0.0149339
715.325	0.0145481
715.403	0.0143887
715.481	0.0142236
715.559	0.0141750
715.637	0.0141100
715.715	0.0142645
715.793	0.0143188
715.871	0.0143568
715.950	0.0147234
716.028	0.0149045
716.106	0.0149387
716.184	0.0149364
716.262	0.0147039
716.340	0.0148293
716.418	0.0145805
716.496	0.0144589
716.575	0.0143393
716.653	0.0140716
716.731	0.0139600
716.809	0.0138774
716.887	0.0138071
716.965	0.0137077
717.043	0.0135705
717.121	0.0136349
717.200	0.0136180
717.278	0.0137295
717.356	0.0139633
717.434	0.0142089
717.512	0.0144015
717.590	0.0145793
717.668	0.0149784
717.746	0.0151591
717.825	0.0153220
717.903	0.0152451
717.981	0.0151884
718.059	0.0151285
718.137	0.0148933
718.215	0.0148711
718.293	0.0147401
718.371	0.0144798
718.450	0.0144043
718.528	0.0143692
718.606	0.0143660
718.684	0.0143700
718.762	0.0145181
718.840	0.0146906
718.918	0.0148055
718.996	0.0149559
719.075	0.0149358
719.153	0.0149220
719.231	0.0151405
719.309	0.0150774
719.387	0.0149754
719.465	0.0149552
719.543	0.0146536
719.621	0.0144572
719.700	0.0144244
719.778	0.0141021
719.856	0.0139508
719.934	0.0137349
720.012	0.0137962
720.090	0.0138249
720.168	0.0139253
720.246	0.0137674
720.325	0.0138226
720.403	0.0142030
720.481	0.0143420
720.559	0.0145357
720.637	0.0146553
720.715	0.0146884
720.793	0.0149547
720.871	0.0149578
720.950	0.0150432
721.028	0.0149706
721.106	0.0149091
721.184	0.0146603
721.262	0.0146949
721.340	0.0145257
721.418	0.0143755
721.496	0.0141693
721.575	0.0140747
721.653	0.0140917
721.731	0.0140529
721.809	0.0139447
721.887	0.0141138
721.965	0.0142655
722.043	0.0142920
722.121	0.0143996
722.200	0.0146283
722.278	0.0146783
722.356	0.0149460
722.434	0.0149645
722.512	0.0150244
722.590	0.0151352
722.668	0.0150872
722.746	0.0149877
722.825	0.0149821
722.903	0.0149920
722.981	0.0147625
723.059	0.0146906
723.137	0.0145160
723.215	0.0145052
723.293	0.0145526
723.371	0.0144900
723.450	0.0145596
723.528	0.0145371
723.606	0.0145274
723.684	0.0146690
723.762	0.0148429
723.840	0.0149020
723.918	0.0148386
723.996	0.0149894
724.075	0.0147832
724.153	0.0147833
724.231	0.0146682
724.309	0.0145429
724.387	0.0142852
724.465	0.0142212
724.543	0.0140002
724.621	0.0138077
724.700	0.0137245
724.778	0.0135722
724.856	0.0136327
724.934	0.0133869
725.012	0.0136430
725.090	0.0136857
725.168	0.0135779
725.246	0.0140529
725.325	0.0141805
725.403	0.0144997
725.481	0.0146999
725.559	0.0147781
725.637	0.0150743
725.715	0.0152566
725.793	0.0154225
725.871	0.0154811
725.950	0.0153905
726.028	0.0152789
726.106	0.0152302
726.184	0.0151706
726.262	0.0150171
726.340	0.0148270
726.418	0.0147230
726.496	0.0146663
726.575	0.0146116
726.653	0.0147960
726.731	0.0147404
726.809	0.0147055
726.887	0.0146738
726.965	0.0147543
727.043	0.0146554
727.121	0.0146892
727.200	0.0148038
727.278	0.0145393
727.356	0.0145118
727.434	0.0146303
727.512	0.0145016
727.590	0.0143589
727.668	0.0141962
727.746	0.0142227
727.825	0.0141138
727.903	0.0140221
727.981	0.0139720
728.059	0.0139037
728.137	0.0141298
728.215	0.0140759
728.293	0.0140060
728.371	0.0142014
728.450	0.0141575
728.528	0.0142127
728.606	0.0144411
728.684	0.0143916
728.762	0.0144046
728.840	0.0145956
728.918	0.0145877
728.996	0.0145761
729.075	0.0148052
729.153	0.0148269
729.231	0.0149051
729.309	0.0147633
729.387	0.0149673
729.465	0.0150885
729.543	0.0149886
729.621	0.0148794
729.700	0.0149966
729.778	0.0149631
729.856	0.0148224
729.934	0.0147672
730.012	0.0145473
730.090	0.0146885
730.168	0.0148710
730.246	0.0148378
730.325	0.0145879
730.403	0.0147411
730.481	0.0148777
730.559	0.0146544
730.637	0.0146864
730.715	0.0149019
730.793	0.0146521
730.871	0.0147314
730.950	0.0146690
731.028	0.0145496
731.106	0.0144347
731.184	0.0144867
731.262	0.0142419
731.340	0.0142467
731.418	0.0140926
731.496	0.0140441
731.575	0.0141260
731.653	0.0141084
731.731	0.0140631
731.809	0.0139505
731.887	0.0141149
731.965	0.0143510
732.043	0.0143845
732.121	0.0144347
732.200	0.0145699
732.278	0.0145019
732.356	0.0146004
732.434	0.0148682
732.512	0.0149068
732.590	0.0149597
732.668	0.0149943
732.746	0.0149787
732.825	0.0147282
732.903	0.0147234
732.981	0.0147896
733.059	0.0147258
733.137	0.0146574
733.215	0.0144878
733.293	0.0144860
733.371	0.0144957
733.450	0.0143917
733.528	0.0145301
733.606	0.0146108
733.684	0.0147007
733.762	0.0145750
733.840	0.0146191
733.918	0.0146074
733.996	0.0145232
734.075	0.0146059
734.153	0.0146546
734.231	0.0146611
734.309	0.0144485
734.387	0.0145222
734.465	0.0144103
734.543	0.0143800
734.621	0.0145522
734.700	0.0144291
734.778	0.0144800
734.856	0.0142664
734.934	0.0142886
735.012	0.0144290
735.090	0.0144991
735.168	0.0143784
735.246	0.0146080
735.325	0.0146061
735.403	0.0146999
735.481	0.0147381
735.559	0.0147697
735.637	0.0148133
735.715	0.0147797
735.793	0.0149415
735.871	0.0148876
735.950	0.0147234
736.028	0.0145863
736.106	0.0146572
736.184	0.0145895
736.262	0.0144691
736.340	0.0145452
736.418	0.0144646
736.496	0.0144476
736.575	0.0143460
736.653	0.0143503
736.731	0.0141819
736.809	0.0143503
736.887	0.0143556
736.965	0.0143908
737.043	0.0143298
737.121	0.0143659
737.200	0.0144275
737.278	0.0144213
737.356	0.0143140
737.434	0.0144470
737.512	0.0145482
737.590	0.0144601
737.668	0.0145186
737.746	0.0144672
737.825	0.0145254
737.903	0.0145383
737.981	0.0145650
738.059	0.0146650
738.137	0.0146189
738.215	0.0146960
738.293	0.0147034
738.371	0.0147858
738.450	0.0146500
738.528	0.0148390
738.606	0.0146744
738.684	0.0146471
738.762	0.0147037
738.840	0.0146793
738.918	0.0146929
738.996	0.0146616
739.075	0.0147755
739.153	0.0146220
739.231	0.0144856
739.309	0.0144171
739.387	0.0144765
739.465	0.0144064
739.543	0.0144710
739.621	0.0144844
739.700	0.0144238
739.778	0.0143277
739.856	0.0144671
739.934	0.0144575
740.012	0.0144881
740.090	0.0143851
740.168	0.0142662
740.246	0.0145092
740.325	0.0142882
740.403	0.0142651
740.481	0.0144025
740.559	0.0143361
740.637	0.0144057
740.715	0.0143107
740.793	0.0142656
740.871	0.0143295
740.950	0.0144245
741.028	0.0144190
741.106	0.0145175
741.184	0.0145608
741.262	0.0145763
741.340	0.0147320
741.418	0.0145206
741.496	0.0144568
741.575	0.0145987
741.653	0.0146603
741.731	0.0147395
741.809	0.0146912
741.887	0.0146742
741.965	0.0147322
742.043	0.0147018
742.121	0.0147877
742.200	0.0148119
742.278	0.0148520
742.356	0.0148068
742.434	0.0147202
742.512	0.0147562
742.590	0.0146217
742.668	0.0146841
742.746	0.0146973
742.825	0.0145264
742.903	0.0146337
742.981	0.0145319
743.059	0.0147144
743.137	0.0146116
743.215	0.0147213
743.293	0.0144176
743.371	0.0144650
743.450	0.0145286
743.528	0.0145836
743.606	0.0144336
743.684	0.0143465
743.762	0.0142484
743.840	0.0142958
743.918	0.0143051
743.996	0.0141826
744.075	0.0142308
744.153	0.0143296
744.231	0.0143108
744.309	0.0143830
744.387	0.0143720
744.465	0.0144817
744.543	0.0145393
744.621	0.0146155
744.700	0.0144791
744.778	0.0144957
744.856	0.0145530
744.934	0.0145590
745.012	0.0145767
745.090	0.0145779
745.168	0.0147128
745.246	0.0146398
745.325	0.0145541
745.403	0.0146406
745.481	0.0147034
745.559	0.0146471
745.637	0.0146994
745.715	0.0147190
745.793	0.0146305
745.871	0.0148078
745.950	0.0147508
746.028	0.0147778
746.106	0.0147209
746.184	0.0147018
746.262	0.0146142
746.340	0.0144570
746.418	0.0145891
746.496	0.0144513
746.575	0.0144499
746.653	0.0143538
746.731	0.0143847
746.809	0.0143924
746.887	0.0143675
746.965	0.0144202
747.043	0.0144906
747.121	0.0142987
747.200	0.0145148
747.278	0.0145144
747.356	0.0145285
747.434	0.0145706
747.512	0.0144888
747.590	0.0145290
747.668	0.0146152
747.746	0.0146428
747.825	0.0145816
747.903	0.0146925
747.981	0.0148627
748.059	0.0146082
748.137	0.0145666
748.215	0.0145565
748.293	0.0147258
748.371	0.0145132
748.450	0.0145417
748.528	0.0148542
748.606	0.0147739
748.684	0.0146613
748.762	0.0144651
748.840	0.0148348
748.918	0.0146214
748.996	0.0146687
749.075	0.0146215
749.153	0.0146004
749.231	0.0145583
749.309	0.0145506
749.387	0.0144529
749.465	0.0143801
749.543	0.0144957
749.621	0.0145334
749.700	0.0145620
749.778	0.0145534
749.856	0.0145701
749.934	0.0145281
750.012	0.0144048
750.090	0.0144470
750.168	0.0145705
750.246	0.0144172
750.325	0.0144014
750.403	0.0144160
750.481	0.0143849
750.559	0.0143221
750.637	0.0143077
750.715	0.0144277
750.793	0.0144253
750.871	0.0143668
750.950	0.0143221
751.028	0.0145309
751.106	0.0144959
751.184	0.0145099
751.262	0.0146407
751.340	0.0145943
751.418	0.0146632
751.496	0.0146933
751.575	0.0146964
751.653	0.0147358
751.731	0.0147572
751.809	0.0146691
751.887	0.0147207
751.965	0.0146505
752.043	0.0147706
752.121	0.0147933
752.200	0.0148003
752.278	0.0146935
752.356	0.0147518
752.434	0.0146160
752.512	0.0145914
752.590	0.0146182
752.668	0.0146486
752.746	0.0145219
752.825	0.0146519
752.903	0.0144142
752.981	0.0144495
753.059	0.0144400
753.137	0.0142716
753.215	0.0144306
753.293	0.0144237
753.371	0.0142992
753.450	0.0143736
753.528	0.0144028
753.606	0.0143370
753.684	0.0143985
753.762	0.0143227
753.840	0.0142509
753.918	0.0143628
753.996	0.0143468
754.075	0.0143095
754.153	0.0143335
754.231	0.0144120
754.309	0.0145196
754.387	0.0143990
754.465	0.0145314
754.543	0.0144904
754.621	0.0144766
754.700	0.0144636
754.778	0.0145127
754.856	0.0146000
754.934	0.0147509
755.012	0.0146442
755.090	0.0146838
755.168	0.0146998
755.246	0.0147584
755.325	0.0146341
755.403	0.0146499
755.481	0.0147957
755.559	0.0149347
755.637	0.0146925
755.715	0.0147241
755.793	0.0148644
755.871	0.0146399
755.950	0.0146079
756.028	0.0144523
756.106	0.0145943
756.184	0.0146217
756.262	0.0143768
756.340	0.0145454
756.418	0.0143597
756.496	0.0144541
756.575	0.0145860
756.653	0.0144625
756.731	0.0144871
756.809	0.0143812
756.887	0.0143736
756.965	0.0145901
757.043	0.0143801
757.121	0.0143861
757.200	0.0144179
757.278	0.0144789
757.356	0.0143433
757.434	0.0143855
757.512	0.0144128
757.590	0.0144774
757.668	0.0145856
757.746	0.0144993
757.825	0.0144476
757.903	0.0144999
757.981	0.0145431
758.059	0.0145794
758.137	0.0146181
758.215	0.0146110
758.293	0.0145209
758.371	0.0146124
758.450	0.0144633
758.528	0.0145155
758.606	0.0146924
758.684	0.0147763
758.762	0.0145945
758.840	0.0147022
758.918	0.0146427
758.996	0.0146551
759.075	0.0147815
759.153	0.0148091
759.231	0.0147483
759.309	0.0146748
759.387	0.0146342
759.465	0.0146122
759.543	0.0147758
759.621	0.0145366
759.700	0.0146858
759.778	0.0146084
759.856	0.0145055
759.934	0.0147408
760.012	0.0146708
760.090	0.0145638
760.168	0.0144030
760.246	0.0144569
760.325	0.0143826
760.403	0.0144247
760.481	0.0144495
760.559	0.0143227
760.637	0.0142987
760.715	0.0143884
760.793	0.0143232
760.871	0.0144189
760.950	0.0144350
761.028	0.0143800
761.106	0.0143826
761.184	0.0144169
761.262	0.0143871
761.340	0.0145207
761.418	0.0144883
761.496	0.0144880
761.575	0.0143555
761.653	0.0146081
761.731	0.0146983
761.809	0.0146473
761.887	0.0144757
761.965	0.0145768
762.043	0.0147680
762.121	0.0146203
762.200	0.0146696
762.278	0.0147312
762.356	0.0146687
762.434	0.0146019
762.512	0.0145928
762.590	0.0147553
762.668	0.0145870
762.746	0.0146828
762.825	0.0146268
762.903	0.0147226
762.981	0.0146306
763.059	0.0146113
763.137	0.0146374
763.215	0.0146238
763.293	0.0145646
763.371	0.0145892
763.450	0.0145169
763.528	0.0144087
763.606	0.0143890
763.684	0.0144735
763.762	0.0144430
763.840	0.0143369
763.918	0.0145367
763.996	0.0143909
764.075	0.0144418
764.153	0.0143319
764.231	0.0145766
764.309	0.0143198
764.387	0.0143804
764.465	0.0142963
764.543	0.0144379
764.621	0.0145355
764.700	0.0145457
764.778	0.0145674
764.856	0.0144119
764.934	0.0146512
765.012	0.0145338
765.090	0.0145246
765.168	0.0144459
765.246	0.0145364
765.325	0.0145424
765.403	0.0146297
765.481	0.0145485
765.559	0.0144243
765.637	0.0144665
765.715	0.0144709
765.793	0.0144548
765.871	0.0143518
765.950	0.0146409
766.028	0.0145390
766.106	0.0144947
766.184	0.0145364
766.262	0.0146160
766.340	0.0146355
766.418	0.0145417
766.496	0.0145535
766.575	0.0145368
766.653	0.0144556
766.731	0.0144666
766.809	0.0145444
766.887	0.0145991
766.965	0.0147403
767.043	0.0146589
767.121	0.0145556
767.200	0.0146732
767.278	0.0145802
767.356	0.0145456
767.434	0.0147662
767.512	0.0145831
767.590	0.0145312
767.668	0.0145651
767.746	0.0144022
767.825	0.0144619
767.903	0.0145518
767.981	0.0145119
768.059	0.0144302
768.137	0.0144334
768.215	0.0143471
768.293	0.0144796
768.371	0.0143925
768.450	0.0144469
768.528	0.0144437
768.606	0.0144181
768.684	0.0143037
768.762	0.0145190
768.840	0.0142970
768.918	0.0143093
768.996	0.0144718
769.075	0.0144758
769.153	0.0144851
769.231	0.0144041
769.309	0.0144380
769.387	0.0144381
769.465	0.0145663
769.543	0.0145584
769.621	0.0145898
769.700	0.0145630
769.778	0.0145174
769.856	0.0145908
769.934	0.0146869
770.012	0.0145435
770.090	0.0145989
770.168	0.0145309
770.246	0.0146813
770.325	0.0146266
770.403	0.0145643
770.481	0.0146130
770.559	0.0145159
770.637	0.0145991
770.715	0.0147102
770.793	0.0146479
770.871	0.0146263
770.950	0.0146558
771.028	0.0145111
771.106	0.0145815
771.184	0.0146009
771.262	0.0145174
771.340	0.0146124
771.418	0.0146432
771.496	0.0146871
771.575	0.0146956
771.653	0.0145847
771.731	0.0145640
771.809	0.0145756
771.887	0.0145914
771.965	0.0146252
772.043	0.0145063
772.121	0.0146638
772.200	0.0146002
772.278	0.0146365
772.356	0.0145536
772.434	0.0144380
772.512	0.0144518
772.590	0.0144215
772.668	0.0145476
772.746	0.0144765
772.825	0.0144746
772.903	0.0146161
772.981	0.0144093
773.059	0.0145559
773.137	0.0144160
773.215	0.0143630
773.293	0.0145528
773.371	0.0145314
773.450	0.0145388
773.528	0.0145480
773.606	0.0144778
773.684	0.0145830
773.762	0.0145313
773.840	0.0143322
773.918	0.0144559
773.996	0.0145286
774.075	0.0144802
774.153	0.0144960
774.231	0.0144174
774.309	0.0145317
774.387	0.0145745
774.465	0.0146259
774.543	0.0146225
774.621	0.0146612
774.700	0.0146008
774.778	0.0146686
774.856	0.0145965
774.934	0.0145870
775.012	0.0145502
775.090	0.0147308
775.168	0.0146741
775.246	0.0146508
775.325	0.0147101
775.403	0.0145577
775.481	0.0145647
775.559	0.0146578
775.637	0.0146085
775.715	0.0145928
775.793	0.0144986
775.871	0.0145674
775.950	0.0144640
776.028	0.0144872
776.106	0.0144940
776.184	0.0145075
776.262	0.0147477
776.340	0.0145110
776.418	0.0145816
776.496	0.0146345
776.575	0.0146027
776.653	0.0145316
776.731	0.0145388
776.809	0.0147167
776.887	0.0146505
776.965	0.0145497
777.043	0.0145961
777.121	0.0146658
777.200	0.0145664
777.278	0.0145541
777.356	0.0145791
777.434	0.0144777
777.512	0.0146551
777.590	0.0146015
777.668	0.0144769
777.746	0.0143252
777.825	0.0144199
777.903	0.0144284
777.981	0.0144923
778.059	0.0145610
778.137	0.0145425
778.215	0.0145703
778.293	0.0144991
778.371	0.0144915
778.450	0.0145260
778.528	0.0145273
778.606	0.0145997
778.684	0.0144878
778.762	0.0146371
778.840	0.0146527
778.918	0.0145854
778.996	0.0144868
779.075	0.0145393
779.153	0.0145682
779.231	0.0146671
779.309	0.0146357
779.387	0.0146181
779.465	0.0146188
779.543	0.0145278
779.621	0.0145543
779.700	0.0146938
779.778	0.0146881
779.856	0.0145454
779.934	0.0146102
780.012	0.0146279
780.090	0.0146246
780.168	0.0147107
780.246	0.0146735
780.325	0.0145770
780.403	0.0145800
780.481	0.0146412
780.559	0.0146067
780.637	0.0144747
780.715	0.0145433
780.793	0.0145620
780.871	0.0145336
780.950	0.0145297
781.028	0.0145418
781.106	0.0145861
781.184	0.0145194
781.262	0.0143773
781.340	0.0144250
781.418	0.0146154
781.496	0.0144926
781.575	0.0145267
781.653	0.0143880
781.731	0.0145438
781.809	0.0144283
781.887	0.0144859
781.965	0.0144382
782.043	0.0143951
782.121	0.0144051
782.200	0.0146697
782.278	0.0144799
782.356	0.0145911
782.434	0.0145654
782.512	0.0145673
782.590	0.0143842
782.668	0.0144905
782.746	0.0145950
782.825	0.0146969
782.903	0.0145310
782.981	0.0144447
783.059	0.0146432
783.137	0.0146523
783.215	0.0145845
783.293	0.0146511
783.371	0.0144104
783.450	0.0145192
783.528	0.0146829
783.606	0.0145600
783.684	0.0144186
783.762	0.0146132
783.840	0.0146291
783.918	0.0145246
783.996	0.0144753
784.075	0.0145235
784.153	0.0144704
784.231	0.0145776
784.309	0.0143727
784.387	0.0146197
784.465	0.0145202
784.543	0.0145348
784.621	0.0145484
784.700	0.0143519
784.778	0.0144140
784.856	0.0145541
784.934	0.0146604
785.012	0.0144704
785.090	0.0145223
785.168	0.0144542
785.246	0.0145053
785.325	0.0145222
785.403	0.0145686
785.481	0.0145113
785.559	0.0144726
785.637	0.0144586
785.715	0.0145368
785.793	0.0147298
785.871	0.0146218
785.950	0.0145644
786.028	0.0145136
786.106	0.0144626
786.184	0.0145776
786.262	0.0145612
786.340	0.0145486
786.418	0.0145903
786.496	0.0145800
786.575	0.0146014
786.653	0.0145048
786.731	0.0145605
786.809	0.0146080
786.887	0.0145200
786.965	0.0144163
787.043	0.0145300
787.121	0.0146450
787.200	0.0146906
787.278	0.0144878
787.356	0.0146832
787.434	0.0146528
787.512	0.0145676
787.590	0.0147593
787.668	0.0146915
787.746	0.0145937
787.825	0.0146838
787.903	0.0146424
787.981	0.0145197
788.059	0.0147366
788.137	0.0146775
788.215	0.0145242
788.293	0.0146555
788.371	0.0145903
788.450	0.0144461
788.528	0.0143793
788.606	0.0145454
788.684	0.0145560
788.762	0.0144186
788.840	0.0145240
788.918	0.0145284
788.996	0.0144267
789.075	0.0145044
789.153	0.0144625
789.231	0.0143708
789.309	0.0144767
789.387	0.0144338
789.465	0.0144543
789.543	0.0144104
789.621	0.0145987
789.700	0.0145219
789.778	0.0145976
789.856	0.0145516
789.934	0.0144847
790.012	0.0145001
790.090	0.0144781
790.168	0.0143780
790.246	0.0145238
790.325	0.0145741
790.403	0.0146413
790.481	0.0145399
790.559	0.0144619
790.637	0.0146168
790.715	0.0144266
790.793	0.0145623
790.871	0.0146362
790.950	0.0146875
791.028	0.0146353
791.106	0.0145705
791.184	0.0144852
791.262	0.0145775
791.340	0.0146578
791.418	0.0145713
791.496	0.0146062
791.575	0.0145432
791.653	0.0145007
791.731	0.0145931
791.809	0.0145429
791.887	0.0145089
791.965	0.0145963
792.043	0.0144631
792.121	0.0144447
792.200	0.0145294
792.278	0.0144367
792.356	0.0144197
792.434	0.0146497
792.512	0.0144946
792.590	0.0144907
792.668	0.0145994
792.746	0.0146211
792.825	0.0145747
792.903	0.0145774
792.981	0.0145521
793.059	0.0144727
793.137	0.0144231
793.215	0.0144690
793.293	0.0144154
793.371	0.0144449
793.450	0.0145752
793.528	0.0146247
793.606	0.0144225
793.684	0.0145377
793.762	0.0145746
793.840	0.0144297
793.918	0.0146220
793.996	0.0146411
794.075	0.0145100
794.153	0.0143601
794.231	0.0146320
794.309	0.0146471
794.387	0.0146167
794.465	0.0146143
794.543	0.0146405
794.621	0.0145333
794.700	0.0146291
794.778	0.0146138
794.856	0.0146516
794.934	0.0146468
795.012	0.0145782
795.090	0.0146511
795.168	0.0146011
795.246	0.0146832
795.325	0.0146682
795.403	0.0146140
795.481	0.0146308
795.559	0.0147241
795.637	0.0145141
795.715	0.0146876
795.793	0.0144623
795.871	0.0145834
795.950	0.0146754
796.028	0.0145001
796.106	0.0145940
796.184	0.0144903
796.262	0.0143935
796.340	0.0143690
796.418	0.0145985
796.496	0.0146951
796.575	0.0145690
796.653	0.0145638
796.731	0.0145105
796.809	0.0144666
796.887	0.0145753
796.965	0.0145869
797.043	0.0145162
797.121	0.0146091
797.200	0.0145193
797.278	0.0145188
797.356	0.0145712
797.434	0.0144872
797.512	0.0144074
797.590	0.0146000
797.668	0.0146393
797.746	0.0145556
797.825	0.0145540
797.903	0.0145620
797.981	0.0145301
798.059	0.0145843
798.137	0.0146634
798.215	0.0145526
798.293	0.0146123
798.371	0.0146494
798.450	0.0146484
798.528	0.0146511
798.606	0.0146774
798.684	0.0146068
798.762	0.0146451
798.840	0.0145527
798.918	0.0146564
798.996	0.0146292
799.075	0.0146686
799.153	0.0146981
799.231	0.0146828
799.309	0.0147448
799.387	0.0145644
799.465	0.0145977
799.543	0.0145871
799.621	0.0146582
799.700	0.0146550
799.778	0.0145888
799.856	0.0145988
799.934	0.0146053
800.012	0.0145866
800.090	0.0147027
800.168	0.0147505
800.246	0.0145733
800.325	0.0145480
800.403	0.0146792
800.481	0.0146972
800.559	0.0144353
800.637	0.0145665
800.715	0.0147391
800.793	0.0145482
800.871	0.0145548
800.950	0.0144713
801.028	0.0146062
801.106	0.0145730
801.184	0.0145386
801.262	0.0146801
801.340	0.0145667
801.418	0.0145506
801.496	0.0145367
801.575	0.0146567
801.653	0.0145644
801.731	0.0146473
801.809	0.0144274
801.887	0.0145239
801.965	0.0145467
802.043	0.0146507
802.121	0.0145708
802.200	0.0144884
802.278	0.0145064
802.356	0.0145464
802.434	0.0145799
802.512	0.0146628
802.590	0.0146455
802.668	0.0145485
802.746	0.0146249
802.825	0.0146266
802.903	0.0145952
802.981	0.0145625
803.059	0.0147527
803.137	0.0145902
803.215	0.0147449
803.293	0.0145861
803.371	0.0146279
803.450	0.0145973
803.528	0.0146574
803.606	0.0145606
803.684	0.0144524
803.762	0.0145940
803.840	0.0143704
803.918	0.0142966
803.996	0.0144855
804.075	0.0146743
804.153	0.0146241
804.231	0.0147226
804.309	0.0145720
804.387	0.0146554
804.465	0.0146962
804.543	0.0147623
804.621	0.0145953
804.700	0.0146310
804.778	0.0146301
804.856	0.0145330
804.934	0.0145233
805.012	0.0146830
805.090	0.0145362
805.168	0.0145859
805.246	0.0145951
805.325	0.0146021
805.403	0.0144405
805.481	0.0144525
805.559	0.0144460
805.637	0.0146250
805.715	0.0147414
805.793	0.0145692
805.871	0.0144358
805.950	0.0144490
806.028	0.0145899
806.106	0.0144788
806.184	0.0145759
806.262	0.0145513
806.340	0.0144661
806.418	0.0144240
806.496	0.0144797
806.575	0.0146370
806.653	0.0145282
806.731	0.0144043
806.809	0.0144982
806.887	0.0144746
806.965	0.0144752
807.043	0.0144505
807.121	0.0143777
807.200	0.0144128
807.278	0.0144368
807.356	0.0143982
807.434	0.0144973
807.512	0.0145525
807.590	0.0146151
807.668	0.0147297
807.746	0.0145273
807.825	0.0145786
807.903	0.0146415
807.981	0.0146303
808.059	0.0145484
808.137	0.0146515
808.215	0.0146164
808.293	0.0146650
808.371	0.0146234
808.450	0.0147616
808.528	0.0146592
808.606	0.0146613
808.684	0.0145452
808.762	0.0145002
808.840	0.0144855
808.918	0.0146030
808.996	0.0146023
809.075	0.0145086
809.153	0.0145198
809.231	0.0145094
809.309	0.0145345
809.387	0.0144937
809.465	0.0144353
809.543	0.0145267
809.621	0.0143804
809.700	0.0143895
809.778	0.0143982
809.856	0.0143789
809.934	0.0143807
810.012	0.0144301
810.090	0.0143176
810.168	0.0144585
810.246	0.0143857
810.325	0.0144910
810.403	0.0145335
810.481	0.0146201
810.559	0.0145570
810.637	0.0144727
810.715	0.0146259
810.793	0.0146603
810.871	0.0145940
810.950	0.0145860
811.028	0.0146801
811.106	0.0146458
811.184	0.0145217
811.262	0.0146809
811.340	0.0146549
811.418	0.0146260
811.496	0.0145885
811.575	0.0145663
811.653	0.0145184
811.731	0.0145940
811.809	0.0145457
811.887	0.0144474
811.965	0.0144246
812.043	0.0145316
812.121	0.0144582
812.200	0.0144765
812.278	0.0145264
812.356	0.0145339
812.434	0.0145303
812.512	0.0145158
812.590	0.0144384
812.668	0.0145111
812.746	0.0144220
812.825	0.0145281
812.903	0.0144559
812.981	0.0143356
813.059	0.0143732
813.137	0.0144961
813.215	0.0144707
813.293	0.0144183
813.371	0.0144242
813.450	0.0144159
813.528	0.0143961
813.606	0.0144876
813.684	0.0144937
813.762	0.0145902
813.840	0.0144817
813.918	0.0145194
813.996	0.0145923
814.075	0.0146712
814.153	0.0145779
814.231	0.0145913
814.309	0.0145387
814.387	0.0146650
814.465	0.0145731
814.543	0.0146036
814.621	0.0145504
814.700	0.0145720
814.778	0.0145200
814.856	0.0146066
814.934	0.0145935
815.012	0.0146274
815.090	0.0145954
815.168	0.0146552
815.246	0.0146587
815.325	0.0146790
815.403	0.0145640
815.481	0.0144818
815.559	0.0146146
815.637	0.0145380
815.715	0.0145995
815.793	0.0145815
815.871	0.0144899
815.950	0.0146184
816.028	0.0146768
816.106	0.0145113
816.184	0.0144772
816.262	0.0144977
816.340	0.0145315
816.418	0.0145338
816.496	0.0144389
816.575	0.0144948
816.653	0.0145261
816.731	0.0145998
816.809	0.0145989
816.887	0.0145657
816.965	0.0145264
817.043	0.0145611
817.121	0.0145388
817.200	0.0147163
817.278	0.0146117
817.356	0.0146844
817.434	0.0145843
817.512	0.0145099
817.590	0.0145387
817.668	0.0147169
817.746	0.0145949
817.825	0.0147044
817.903	0.0146851
817.981	0.0146201
818.059	0.0145389
818.137	0.0148058
818.215	0.0145094
818.293	0.0144509
818.371	0.0145646
818.450	0.0146160
818.528	0.0146746
818.606	0.0145878
818.684	0.0146308
818.762	0.0147058
818.840	0.0145654
818.918	0.0145770
818.996	0.0146297
819.075	0.0146116
819.153	0.0146209
819.231	0.0146220
819.309	0.0146170
819.387	0.0145417
819.465	0.0146496
819.543	0.0146564
819.621	0.0145432
819.700	0.0145451
819.778	0.0145616
819.856	0.0145286
819.934	0.0146527
820.012	0.0146228
820.090	0.0145699
820.168	0.0146185
820.246	0.0146797
820.325	0.0145837
820.403	0.0147346
820.481	0.0145857
820.559	0.0146746
820.637	0.0144742
820.715	0.0145884
820.793	0.0145870
820.871	0.0147518
820.950	0.0146514
821.028	0.0145692
821.106	0.0146004
821.184	0.0145460
821.262	0.0145483
821.340	0.0146127
821.418	0.0145168
821.496	0.0144673
821.575	0.0146057
821.653	0.0145927
821.731	0.0145490
821.809	0.0145817
821.887	0.0146127
821.965	0.0144745
822.043	0.0144788
822.121	0.0144748
822.200	0.0145986
822.278	0.0144919
822.356	0.0144012
822.434	0.0146404
822.512	0.0145528
822.590	0.0147049
822.668	0.0145563
822.746	0.0144959
822.825	0.0146175
822.903	0.0145680
822.981	0.0145760
823.059	0.0145836
823.137	0.0145973
823.215	0.0146976
823.293	0.0146455
823.371	0.0146115
823.450	0.0147723
823.528	0.0146359
823.606	0.0146927
823.684	0.0146278
823.762	0.0144567
823.840	0.0143951
823.918	0.0145847
823.996	0.0146587
824.075	0.0144833
824.153	0.0146033
824.231	0.0144611
824.309	0.0143740
824.387	0.0144296
824.465	0.0145784
824.543	0.0146577
824.621	0.0145930
824.700	0.0145056
824.778	0.0145161
824.856	0.0144626
824.934	0.0145508
825.012	0.0148129
825.090	0.0145890
825.168	0.0145348
825.246	0.0146339
825.325	0.0144926
825.403	0.0146293
825.481	0.0144838
825.559	0.0144975
825.637	0.0145553
825.715	0.0144550
825.793	0.0144770
825.871	0.0145414
825.950	0.0144949
826.028	0.0145651
826.106	0.0145701
826.184	0.0143988
826.262	0.0144827
826.340	0.0146318
826.418	0.0145801
826.496	0.0145173
826.575	0.0144743
826.653	0.0145966
826.731	0.0146073
826.809	0.0145792
826.887	0.0146389
826.965	0.0145887
827.043	0.0145947
827.121	0.0145979
827.200	0.0146389
827.278	0.0145718
827.356	0.0146037
827.434	0.0146217
827.512	0.0146433
827.590	0.0145014
827.668	0.0145621
827.746	0.0145414
827.825	0.0145310
827.903	0.0144842
827.981	0.0145573
828.059	0.0144578
828.137	0.0144996
828.215	0.0145661
828.293	0.0145063
828.371	0.0145240
828.450	0.0144674
828.528	0.0145245
828.606	0.0146095
828.684	0.0144707
828.762	0.0145409
828.840	0.0142860
828.918	0.0145277
828.996	0.0144619
829.075	0.0144830
829.153	0.0144106
829.231	0.0144897
829.309	0.0144341
829.387	0.0145309
829.465	0.0146051
829.543	0.0146000
829.621	0.0146438
829.700	0.0146391
829.778	0.0144563
829.856	0.0145937
829.934	0.0146238
830.012	0.0146019
830.090	0.0146342
830.168	0.0146220
830.246	0.0144590
830.325	0.0145522
830.403	0.0147052
830.481	0.0146210
830.559	0.0146325
830.637	0.0146512
830.715	0.0145511
830.793	0.0146558
830.871	0.0145833
830.950	0.0145236
831.028	0.0146366
831.106	0.0147003
831.184	0.0146056
831.262	0.0146254
831.340	0.0147115
831.418	0.0144852
831.496	0.0145938
831.575	0.0145486
831.653	0.0146335
831.731	0.0145727
831.809	0.0144840
831.887	0.0144438
831.965	0.0146242
832.043	0.0145658
832.121	0.0144601
832.200	0.0146223
832.278	0.0145217
832.356	0.0146815
832.434	0.0143800
832.512	0.0144831
832.590	0.0144225
832.668	0.0145068
832.746	0.0145092
832.825	0.0144228
832.903	0.0145347
832.981	0.0143816
833.059	0.0145055
833.137	0.0146498
833.215	0.0146019
833.293	0.0144404
833.371	0.0145856
833.450	0.0145149
833.528	0.0144036
833.606	0.0144236
833.684	0.0144971
833.762	0.0145036
833.840	0.0145896
833.918	0.0144833
833.996	0.0145746
834.075	0.0145087
834.153	0.0146156
834.231	0.0146157
834.309	0.0146995
834.387	0.0146087
834.465	0.0146500
834.543	0.0146771
834.621	0.0146848
834.700	0.0145353
834.778	0.0146134
834.856	0.0147739
834.934	0.0145963
835.012	0.0145557
835.090	0.0146142
835.168	0.0145426
835.246	0.0145300
835.325	0.0144667
835.403	0.0146507
835.481	0.0145318
835.559	0.0144722
835.637	0.0144986
835.715	0.0145582
835.793	0.0146352
835.871	0.0145213
835.950	0.0144839
836.028	0.0145580
836.106	0.0146295
836.184	0.0144832
836.262	0.0144791
836.340	0.0146149
836.418	0.0145039
836.496	0.0146151
836.575	0.0145590
836.653	0.0144461
836.731	0.0145831
836.809	0.0145966
836.887	0.0145293
836.965	0.0145179
837.043	0.0145943
837.121	0.0145041
837.200	0.0144686
837.278	0.0145019
837.356	0.0145238
837.434	0.0145961
837.512	0.0146321
837.590	0.0143868
837.668	0.0143543
837.746	0.0145927
837.825	0.0145469
837.903	0.0143327
837.981	0.0144588
838.059	0.0145008
838.137	0.0145403
838.215	0.0145692
838.293	0.0145229
838.371	0.0145074
838.450	0.0145116
838.528	0.0145795
838.606	0.0146359
838.684	0.0145371
838.762	0.0146138
838.840	0.0146095
838.918	0.0145728
838.996	0.0145460
839.075	0.0145927
839.153	0.0145724
839.231	0.0147230
839.309	0.0145036
839.387	0.0145468
839.465	0.0145187
839.543	0.0143995
839.621	0.0143896
839.700	0.0146162
839.778	0.0144963
839.856	0.0144339
839.934	0.0145290
840.012	0.0144473
840.090	0.0143789
840.168	0.0144075
840.246	0.0145066
840.325	0.0144420
840.403	0.0145115
840.481	0.0145641
840.559	0.0144570
840.637	0.0144186
840.715	0.0145809
840.793	0.0144667
840.871	0.0143919
840.950	0.0144566
841.028	0.0145442
841.106	0.0145355
841.184	0.0145215
841.262	0.0144817
841.340	0.0144658
841.418	0.0144944
841.496	0.0145286
841.575	0.0145291
841.653	0.0144766
841.731	0.0145559
841.809	0.0145532
841.887	0.0145653
841.965	0.0145805
842.043	0.0144486
842.121	0.0145955
842.200	0.0146363
842.278	0.0145537
842.356	0.0146069
842.434	0.0146320
842.512	0.0146876
842.590	0.0144675
842.668	0.0146094
842.746	0.0145309
842.825	0.0144976
842.903	0.0145834
842.981	0.0145582
843.059	0.0144091
843.137	0.0146261
843.215	0.0144986
843.293	0.0143625
843.371	0.0145171
843.450	0.0144869
843.528	0.0143984
843.606	0.0144950
843.684	0.0144817
843.762	0.0144246
843.840	0.0146396
843.918	0.0145608
843.996	0.0144760
844.075	0.0146555
844.153	0.0145662
844.231	0.0145368
844.309	0.0145509
844.387	0.0145339
844.465	0.0146030
844.543	0.0147139
844.621	0.0145327
844.700	0.0145054
844.778	0.0145187
844.856	0.0146308
844.934	0.0145625
845.012	0.0144896
845.090	0.0145486
845.168	0.0145211
845.246	0.0145597
845.325	0.0146638
845.403	0.0145355
845.481	0.0144246
845.559	0.0144381
845.637	0.0145350
845.715	0.0144514
845.793	0.0143954
845.871	0.0144689
845.950	0.0145738
846.028	0.0144810
846.106	0.0143874
846.184	0.0145013
846.262	0.0144678
846.340	0.0145350
846.418	0.0144860
846.496	0.0144815
846.575	0.0144480
846.653	0.0144606
846.731	0.0145274
846.809	0.0146957
846.887	0.0144447
846.965	0.0144415
847.043	0.0144417
847.121	0.0143707
847.200	0.0145426
847.278	0.0146125
847.356	0.0145516
847.434	0.0145238
847.512	0.0144704
847.590	0.0145734
847.668	0.0146806
847.746	0.0145798
847.825	0.0146818
847.903	0.0145822
847.981	0.0146210
848.059	0.0147942
848.137	0.0146693
848.215	0.0146709
848.293	0.0145908
848.371	0.0146676
848.450	0.0146478
848.528	0.0146748
848.606	0.0146721
848.684	0.0147260
848.762	0.0146074
848.840	0.0144866
848.918	0.0145849
848.996	0.0146555
849.075	0.0145244
849.153	0.0146282
849.231	0.0145270
849.309	0.0145250
849.387	0.0145480
849.465	0.0144707
849.543	0.0145467
849.621	0.0145466
849.700	0.0145087
849.778	0.0144600
849.856	0.0144845
849.934	0.0144878
850.012	0.0145556
850.090	0.0146230
850.168	0.0144000
850.246	0.0145490
850.325	0.0146133
850.403	0.0145765
850.481	0.0145665
850.559	0.0144423
850.637	0.0147047
850.715	0.0144816
850.793	0.0144995
850.871	0.0146479
850.950	0.0147720
851.028	0.0145553
851.106	0.0146295
851.184	0.0145004
851.262	0.0147550
851.340	0.0145621
851.418	0.0146186
851.496	0.0143362
851.575	0.0145570
851.653	0.0146703
851.731	0.0145006
851.809	0.0144752
851.887	0.0144975
851.965	0.0145985
852.043	0.0145634
852.121	0.0145084
852.200	0.0145762
852.278	0.0145748
852.356	0.0145828
852.434	0.0146990
852.512	0.0145427
852.590	0.0145303
852.668	0.0145573
852.746	0.0145154
852.825	0.0146181
852.903	0.0145526
852.981	0.0145860
853.059	0.0145560
853.137	0.0145776
853.215	0.0145669
853.293	0.0145146
853.371	0.0145502
853.450	0.0145087
853.528	0.0145621
853.606	0.0146430
853.684	0.0145987
853.762	0.0145269
853.840	0.0145899
853.918	0.0145545
853.996	0.0144937
854.075	0.0144638
854.153	0.0145551
854.231	0.0146128
854.309	0.0144968
854.387	0.0144791
854.465	0.0145776
854.543	0.0145052
854.621	0.0144419
854.700	0.0145516
854.778	0.0144702
854.856	0.0145387
854.934	0.0144579
855.012	0.0144221
855.090	0.0146376
855.168	0.0144960
855.246	0.0145471
855.325	0.0145337
855.403	0.0144561
855.481	0.0143760
855.559	0.0144373
855.637	0.0145164
855.715	0.0145501
855.793	0.0145093
855.871	0.0145463
855.950	0.0145458
856.028	0.0147076
856.106	0.0145804
856.184	0.0145447
856.262	0.0146001
856.340	0.0146357
856.418	0.0146012
856.496	0.0145407
856.575	0.0146331
856.653	0.0145678
856.731	0.0145295
856.809	0.0146004
856.887	0.0144722
856.965	0.0145418
857.043	0.0145031
857.121	0.0144970
857.200	0.0142969
857.278	0.0143747
857.356	0.0145099
857.434	0.0144345
857.512	0.0144347
857.590	0.0144892
857.668	0.0145367
857.746	0.0143305
857.825	0.0144708
857.903	0.0144536
857.981	0.0145040
858.059	0.0145884
858.137	0.0144748
858.215	0.0145719
858.293	0.0143721
858.371	0.0146334
858.450	0.0144965
858.528	0.0144991
858.606	0.0144432
858.684	0.0146124
858.762	0.0144125
858.840	0.0143607
858.918	0.0143655
858.996	0.0146056
859.075	0.0146294
859.153	0.0144538
859.231	0.0144656
859.309	0.0145564
859.387	0.0146194
859.465	0.0144362
859.543	0.0144865
859.621	0.0145027
859.700	0.0145944
859.778	0.0145475
859.856	0.0145779
859.934	0.0146263
860.012	0.0144664
860.090	0.0145528
860.168	0.0145657
860.246	0.0144469
860.325	0.0146053
860.403	0.0145705
860.481	0.0146391
860.559	0.0144592
860.637	0.0144868
860.715	0.0145692
860.793	0.0145701
860.871	0.0145977
860.950	0.0145792
861.028	0.0145801
861.106	0.0145885
861.184	0.0145216
861.262	0.0144027
861.340	0.0145560
861.418	0.0145795
861.496	0.0145856
861.575	0.0144155
861.653	0.0143957
861.731	0.0145918
861.809	0.0146386
861.887	0.0143974
861.965	0.0142869
862.043	0.0146152
862.121	0.0144926
862.200	0.0144240
862.278	0.0143456
862.356	0.0144666
862.434	0.0144128
862.512	0.0144256
862.590	0.0145963
862.668	0.0145457
862.746	0.0144157
862.825	0.0144720
862.903	0.0146082
862.981	0.0146696
863.059	0.0145594
863.137	0.0145605
863.215	0.0144804
863.293	0.0146410
863.371	0.0146107
863.450	0.0146252
863.528	0.0144616
863.606	0.0145693
863.684	0.0145380
863.762	0.0145205
863.840	0.0146286
863.918	0.0145889
863.996	0.0144729
864.075	0.0145985
864.153	0.0145901
864.231	0.0146662
864.309	0.0145238
864.387	0.0146244
864.465	0.0145075
864.543	0.0144886
864.621	0.0144549
864.700	0.0146381
864.778	0.0145338
864.856	0.0144418
864.934	0.0145518
865.012	0.0145206
865.090	0.0144357
865.168	0.0145690
865.246	0.0144732
865.325	0.0144179
865.403	0.0145264
865.481	0.0144764
865.559	0.0145790
865.637	0.0144261
865.715	0.0145738
865.793	0.0145006
865.871	0.0145068
865.950	0.0144846
866.028	0.0144611
866.106	0.0147288
866.184	0.0144988
866.262	0.0145480
866.340	0.0145575
866.418	0.0146200
866.496	0.0146574
866.575	0.0145203
866.653	0.0145800
866.731	0.0145873
866.809	0.0145403
866.887	0.0145625
866.965	0.0145042
867.043	0.0145748
867.121	0.0145203
867.200	0.0146569
867.278	0.0145364
867.356	0.0146033
867.434	0.0145862
867.512	0.0145639
867.590	0.0145532
867.668	0.0146219
867.746	0.0146196
867.825	0.0144985
867.903	0.0145287
867.981	0.0145789
868.059	0.0146053
868.137	0.0146615
868.215	0.0145045
868.293	0.0145579
868.371	0.0146323
868.450	0.0143805
868.528	0.0143931
868.606	0.0144730
868.684	0.0146780
868.762	0.0145584
868.840	0.0145484
868.918	0.0145866
868.996	0.0146003
869.075	0.0146073
869.153	0.0145412
869.231	0.0145978
869.309	0.0146589
869.387	0.0146204
869.465	0.0145036
869.543	0.0145525
869.621	0.0143536
869.700	0.0144016
869.778	0.0145377
869.856	0.0143694
869.934	0.0145950
870.012	0.0144644
870.090	0.0145585
870.168	0.0145008
870.246	0.0144865
870.325	0.0144455
870.403	0.0145668
870.481	0.0145924
870.559	0.0146043
870.637	0.0145367
870.715	0.0144032
870.793	0.0146164
870.871	0.0146838
870.950	0.0144002
871.028	0.0144967
871.106	0.0145766
871.184	0.0144752
871.262	0.0146349
871.340	0.0143722
871.418	0.0144620
871.496	0.0143573
871.575	0.0145613
871.653	0.0146988
871.731	0.0146262
871.809	0.0144454
871.887	0.0145152
871.965	0.0145303
872.043	0.0146394
872.121	0.0144916
872.200	0.0144936
872.278	0.0144906
872.356	0.0146267
872.434	0.0144465
872.512	0.0146059
872.590	0.0145670
872.668	0.0145286
872.746	0.0148071
872.825	0.0146557
872.903	0.0145634
872.981	0.0146351
873.059	0.0145549
873.137	0.0146588
873.215	0.0145749
873.293	0.0145600
873.371	0.0146110
873.450	0.0144987
873.528	0.0145232
873.606	0.0145703
873.684	0.0145377
873.762	0.0144143
873.840	0.0144547
873.918	0.0144624
873.996	0.0145002
874.075	0.0146344
874.153	0.0144064
874.231	0.0144086
874.309	0.0143935
874.387	0.0144044
874.465	0.0146313
874.543	0.0146712
874.621	0.0146702
874.700	0.0145393
874.778	0.0145858
874.856	0.0145038
874.934	0.0145914
875.012	0.0144860
875.090	0.0144323
875.168	0.0145749
875.246	0.0146442
875.325	0.0145110
875.403	0.0145250
875.481	0.0146465
875.559	0.0145969
875.637	0.0144503
875.715	0.0145082
875.793	0.0146414
875.871	0.0145218
875.950	0.0146053
876.028	0.0144595
876.106	0.0146538
876.184	0.0146463
876.262	0.0145867
876.340	0.0144928
876.418	0.0144468
876.496	0.0144801
876.575	0.0145672
876.653	0.0143975
876.731	0.0145115
876.809	0.0144581
876.887	0.0145155
876.965	0.0146165
877.043	0.0143988
877.121	0.0143909
877.200	0.0145789
877.278	0.0145052
877.356	0.0144952
877.434	0.0145673
877.512	0.0145888
877.590	0.0145277
877.668	0.0145813
877.746	0.0145549
877.825	0.0144875
877.903	0.0145094
877.981	0.0143472
878.059	0.0145018
878.137	0.0145168
878.215	0.0145599
878.293	0.0145441
878.371	0.0145287
878.450	0.0145296
878.528	0.0146265
878.606	0.0145610
878.684	0.0144241
878.762	0.0144694
878.840	0.0145284
878.918	0.0146028
878.996	0.0145659
879.075	0.0145277
879.153	0.0144901
879.231	0.0144463
879.309	0.0145987
879.387	0.0145481
879.465	0.0145654
879.543	0.0143905
879.621	0.0144407
879.700	0.0143876
879.778	0.0144968
879.856	0.0145762
879.934	0.0145894
880.012	0.0145766
880.090	0.0147398
880.168	0.0146640
880.246	0.0145745
880.325	0.0146571
880.403	0.0145052
880.481	0.0144898
880.559	0.0146234
880.637	0.0146423
880.715	0.0144725
880.793	0.0146156
880.871	0.0146374
880.950	0.0145444
881.028	0.0145934
881.106	0.0146153
881.184	0.0145377
881.262	0.0145547
881.340	0.0144278
881.418	0.0146336
881.496	0.0147076
881.575	0.0144016
881.653	0.0146661
881.731	0.0146432
881.809	0.0143990
881.887	0.0143865
881.965	0.0145201
882.043	0.0143996
882.121	0.0145446
882.200	0.0144878
882.278	0.0144425
882.356	0.0145477
882.434	0.0145987
882.512	0.0145119
882.590	0.0144288
882.668	0.0145277
882.746	0.0146262
882.825	0.0146258
882.903	0.0144463
882.981	0.0145113
883.059	0.0146881
883.137	0.0146486
883.215	0.0145600
883.293	0.0146838
883.371	0.0146435
883.450	0.0145644
883.528	0.0145399
883.606	0.0146109
883.684	0.0146250
883.762	0.0145711
883.840	0.0146374
883.918	0.0144893
883.996	0.0144877
884.075	0.0144212
884.153	0.0145975
884.231	0.0144462
884.309	0.0145394
884.387	0.0144774
884.465	0.0146027
884.543	0.0144316
884.621	0.0144042
884.700	0.0144869
884.778	0.0145292
884.856	0.0145663
884.934	0.0145074
885.012	0.0144225
885.090	0.0146587
885.168	0.0145748
885.246	0.0146601
885.325	0.0144441
885.403	0.0146555
885.481	0.0145535
885.559	0.0145602
885.637	0.0146865
885.715	0.0146981
885.793	0.0146519
885.871	0.0145367
885.950	0.0144841
886.028	0.0146363
886.106	0.0147407
886.184	0.0146444
886.262	0.0145490
886.340	0.0145730
886.418	0.0144451
886.496	0.0144402
886.575	0.0143664
886.653	0.0143217
886.731	0.0142442
886.809	0.0143794
886.887	0.0142430
886.965	0.0143964
887.043	0.0144412
887.121	0.0144018
887.200	0.0144012
887.278	0.0144248
887.356	0.0145050
887.434	0.0145576
887.512	0.0145435
887.590	0.0146360
887.668	0.0146535
887.746	0.0146245
887.825	0.0146302
887.903	0.0145967
887.981	0.0146502
888.059	0.0145284
888.137	0.0145819
888.215	0.0145596
888.293	0.0146041
888.371	0.0145086
888.450	0.0144743
888.528	0.0145451
888.606	0.0144691
888.684	0.0145664
888.762	0.0146239
888.840	0.0144534
888.918	0.0144520
888.996	0.0143935
889.075	0.0144163
889.153	0.0144031
889.231	0.0144543
889.309	0.0143038
889.387	0.0143561
889.465	0.0145449
889.543	0.0145106
889.621	0.0144447
889.700	0.0145190
889.778	0.0146895
889.856	0.0144836
889.934	0.0145147
890.012	0.0145255
890.090	0.0146758
890.168	0.0146770
890.246	0.0146004
890.325	0.0145462
890.403	0.0145701
890.481	0.0145853
890.559	0.0145488
890.637	0.0145887
890.715	0.0145512
890.793	0.0145840
890.871	0.0146028
890.950	0.0146703
891.028	0.0145767
891.106	0.0146722
891.184	0.0148303
891.262	0.0146307
891.340	0.0147508
891.418	0.0146960
891.496	0.0146116
891.575	0.0147628
891.653	0.0145645
891.731	0.0147028
891.809	0.0146516
891.887	0.0144365
891.965	0.0144601
892.043	0.0144807
892.121	0.0144363
892.200	0.0144698
892.278	0.0144009
892.356	0.0144026
892.434	0.0145615
892.512	0.0145360
892.590	0.0146288
892.668	0.0144659
892.746	0.0144645
892.825	0.0143494
892.903	0.0145615
892.981	0.0147503
893.059	0.0145694
893.137	0.0145409
893.215	0.0146455
893.293	0.0146785
893.371	0.0145749
893.450	0.0146475
893.528	0.0145712
893.606	0.0147096
893.684	0.0146458
893.762	0.0146575
893.840	0.0147063
893.918	0.0145347
893.996	0.0145636
894.075	0.0145800
894.153	0.0146258
894.231	0.0145654
894.309	0.0144118
894.387	0.0144270
894.465	0.0145149
894.543	0.0144762
894.621	0.0144871
894.700	0.0145367
894.778	0.0143339
894.856	0.0145156
894.934	0.0145477
895.012	0.0144552
895.090	0.0145918
895.168	0.0144692
895.246	0.0145879
895.325	0.0145198
895.403	0.0146526
895.481	0.0146114
895.559	0.0146311
895.637	0.0145717
895.715	0.0146011
895.793	0.0145668
895.871	0.0144230
895.950	0.0144658
896.028	0.0145274
896.106	0.0146697
896.184	0.0144313
896.262	0.0144956
896.340	0.0144809
896.418	0.0144936
896.496	0.0145806
896.575	0.0143599
896.653	0.0145141
896.731	0.0145541
896.809	0.0145963
896.887	0.0145325
896.965	0.0145183
897.043	0.0145467
897.121	0.0144450
897.200	0.0146224
897.278	0.0146573
897.356	0.0145313
897.434	0.0145055
897.512	0.0146384
897.590	0.0145770
897.668	0.0145695
897.746	0.0145275
897.825	0.0145385
897.903	0.0144947
897.981	0.0146008
898.059	0.0144948
898.137	0.0143774
898.215	0.0144846
898.293	0.0145500
898.371	0.0144348
898.450	0.0144882
898.528	0.0146120
898.606	0.0146306
898.684	0.0146346
898.762	0.0145345
898.840	0.0145480
898.918	0.0144762
898.996	0.0144897
899.075	0.0145098
899.153	0.0144674
899.231	0.0144283
899.309	0.0145032
899.387	0.0144255
899.465	0.0145133
899.543	0.0145869
899.621	0.0146490
899.700	0.0146176
899.778	0.0145573
899.856	0.0146407
899.934	0.0146265
900.012	0.0146671
900.090	0.0146513
900.168	0.0146004
900.246	0.0144687
900.325	0.0146472
900.403	0.0145448
900.481	0.0146502
900.559	0.0146165
900.637	0.0145505
900.715	0.0145953
900.793	0.0145488
900.871	0.0144188
900.950	0.0144978
901.028	0.0143358
901.106	0.0143546
901.184	0.0144864
901.262	0.0144374
901.340	0.0144427
901.418	0.0144830
901.496	0.0145727
901.575	0.0145777
901.653	0.0145670
901.731	0.0145187
901.809	0.0145689
901.887	0.0146359
901.965	0.0145022
902.043	0.0146001
902.121	0.0146439
902.200	0.0146337
902.278	0.0147116
902.356	0.0146381
902.434	0.0144964
902.512	0.0145984
902.590	0.0144477
902.668	0.0144147
902.746	0.0145600
902.825	0.0146165
902.903	0.0145621
902.981	0.0146098
903.059	0.0145918
903.137	0.0145464
903.215	0.0146008
903.293	0.0146976
903.371	0.0146764
903.450	0.0145315
903.528	0.0146188
903.606	0.0145444
903.684	0.0145391
903.762	0.0144781
903.840	0.0145193
903.918	0.0145463
903.996	0.0146340
904.075	0.0144588
904.153	0.0143932
904.231	0.0144179
904.309	0.0144245
904.387	0.0146555
904.465	0.0146264
904.543	0.0145098
904.621	0.0145707
904.700	0.0144310
904.778	0.0145368
904.856	0.0145522
904.934	0.0144952
905.012	0.0145770
905.090	0.0145631
905.168	0.0145918
905.246	0.0144680
905.325	0.0144315
905.403	0.0144750
905.481	0.0143956
905.559	0.0144366
905.637	0.0143687
905.715	0.0145067
905.793	0.0144957
905.871	0.0144244
905.950	0.0146770
906.028	0.0146681
906.106	0.0146807
906.184	0.0147804
906.262	0.0146169
906.340	0.0147423
906.418	0.0148063
906.496	0.0148228
906.575	0.0147940
906.653	0.0148181
906.731	0.0146104
906.809	0.0145649
906.887	0.0144471
906.965	0.0144800
907.043	0.0144141
907.121	0.0143923
907.200	0.0144015
907.278	0.0144834
907.356	0.0142867
907.434	0.0144183
907.512	0.0145022
907.590	0.0143978
907.668	0.0144099
907.746	0.0146745
907.825	0.0145028
907.903	0.0144614
907.981	0.0146642
908.059	0.0146149
908.137	0.0145206
908.215	0.0144653
908.293	0.0144855
908.371	0.0144443
908.450	0.0144173
908.528	0.0145175
908.606	0.0143796
908.684	0.0143416
908.762	0.0144611
908.840	0.0144943
908.918	0.0145241
908.996	0.0144770
909.075	0.0145696
909.153	0.0146870
909.231	0.0146952
909.309	0.0147176
909.387	0.0147418
909.465	0.0146972
909.543	0.0147113
909.621	0.0146940
909.700	0.0146902
909.778	0.0145949
909.856	0.0145922
909.934	0.0144254
910.012	0.0144543
910.090	0.0143803
910.168	0.0143784
910.246	0.0144021
910.325	0.0143867
910.403	0.0144166
910.481	0.0144232
910.559	0.0144415
910.637	0.0145465
910.715	0.0145735
910.793	0.0143870
910.871	0.0145640
910.950	0.0146168
911.028	0.0145539
911.106	0.0145341
911.184	0.0144537
911.262	0.0145643
911.340	0.0145866
911.418	0.0145702
911.496	0.0145128
911.575	0.0145474
911.653	0.0145074
911.731	0.0144103
911.809	0.0146523
911.887	0.0145410
911.965	0.0145074
912.043	0.0145490
912.121	0.0145426
912.200	0.0147216
912.278	0.0146885
912.356	0.0146578
912.434	0.0146543
912.512	0.0146440
912.590	0.0147068
912.668	0.0146996
912.746	0.0146805
912.825	0.0145511
912.903	0.0146160
912.981	0.0146362
913.059	0.0145952
913.137	0.0145530
913.215	0.0145607
913.293	0.0145415
913.371	0.0144985
913.450	0.0146054
913.528	0.0145415
913.606	0.0144759
913.684	0.0145158
913.762	0.0144276
913.840	0.0144720
913.918	0.0145605
913.996	0.0146091
914.075	0.0146013
914.153	0.0146664
914.231	0.0146044
914.309	0.0145319
914.387	0.0144283
914.465	0.0146217
914.543	0.0148100
914.621	0.0143865
914.700	0.0142039
914.778	0.0145302
914.856	0.0146164
914.934	0.0145357
915.012	0.0143878
915.090	0.0145358
915.168	0.0145573
915.246	0.0145572
915.325	0.0146281
915.403	0.0146028
915.481	0.0146109
915.559	0.0147148
915.637	0.0145327
915.715	0.0144501
915.793	0.0145979
915.871	0.0145913
915.950	0.0145379
916.028	0.0144511
916.106	0.0144039
916.184	0.0143600
916.262	0.0144643
916.340	0.0145008
916.418	0.0145078
916.496	0.0144301
916.575	0.0145398
916.653	0.0144917
916.731	0.0143816
916.809	0.0144473
916.887	0.0145058
916.965	0.0145268
917.043	0.0146260
917.121	0.0145135
917.200	0.0145657
917.278	0.0145901
917.356	0.0146412
917.434	0.0144362
917.512	0.0146401
917.590	0.0147070
917.668	0.0145184
917.746	0.0144732
917.825	0.0143289
917.903	0.0145581
917.981	0.0146074
918.059	0.0145462
918.137	0.0143530
918.215	0.0144656
918.293	0.0144084
918.371	0.0144752
918.450	0.0143549
918.528	0.0145037
918.606	0.0145318
918.684	0.0145954
918.762	0.0145637
918.840	0.0145760
918.918	0.0144166
918.996	0.0145213
919.075	0.0143919
919.153	0.0146333
919.231	0.0145650
919.309	0.0144062
919.387	0.0144540
919.465	0.0145377
919.543	0.0146151
919.621	0.0145301
919.700	0.0145258
919.778	0.0145013
919.856	0.0145945
919.934	0.0145395
920.012	0.0144736
920.090	0.0144061
920.168	0.0145329
920.246	0.0145013
920.325	0.0144922
920.403	0.0143957
920.481	0.0145231
920.559	0.0144590
920.637	0.0145516
920.715	0.0145431
920.793	0.0144881
920.871	0.0146294
920.950	0.0144716
921.028	0.0146223
921.106	0.0145992
921.184	0.0146239
921.262	0.0146223
921.340	0.0145488
921.418	0.0145436
921.496	0.0145236
921.575	0.0146133
921.653	0.0145106
921.731	0.0145411
921.809	0.0145022
921.887	0.0145973
921.965	0.0145092
922.043	0.0144997
922.121	0.0145107
922.200	0.0144667
922.278	0.0145512
922.356	0.0145973
922.434	0.0145623
922.512	0.0144902
922.590	0.0145086
922.668	0.0145298
922.746	0.0145951
922.825	0.0145532
922.903	0.0146479
922.981	0.0144313
923.059	0.0143778
923.137	0.0144706
923.215	0.0144729
923.293	0.0145885
923.371	0.0145208
923.450	0.0144733
923.528	0.0145523
923.606	0.0145569
923.684	0.0145610
923.762	0.0145410
923.840	0.0144608
923.918	0.0145743
923.996	0.0146496
924.075	0.0145773
924.153	0.0146247
924.231	0.0145712
924.309	0.0145853
924.387	0.0144765
924.465	0.0144587
924.543	0.0144742
924.621	0.0146555
924.700	0.0146399
924.778	0.0147004
924.856	0.0145890
924.934	0.0145666
925.012	0.0146033
925.090	0.0144415
925.168	0.0142284
925.246	0.0144013
925.325	0.0145584
925.403	0.0144131
925.481	0.0144217
925.559	0.0146220
925.637	0.0146117
925.715	0.0145427
925.793	0.0145025
925.871	0.0146205
925.950	0.0145073
926.028	0.0144351
926.106	0.0147054
926.184	0.0146201
926.262	0.0143146
926.340	0.0145300
926.418	0.0145289
926.496	0.0144339
926.575	0.0146073
926.653	0.0145474
926.731	0.0145564
926.809	0.0145245
926.887	0.0146585
926.965	0.0146646
927.043	0.0145583
927.121	0.0145842
927.200	0.0145710
927.278	0.0147000
927.356	0.0145168
927.434	0.0145184
927.512	0.0144159
927.590	0.0145078
927.668	0.0145132
927.746	0.0144067
927.825	0.0144226
927.903	0.0145781
927.981	0.0144735
928.059	0.0145048
928.137	0.0144005
928.215	0.0143485
928.293	0.0144070
928.371	0.0144174
928.450	0.0143028
928.528	0.0144089
928.606	0.0144159
928.684	0.0144231
928.762	0.0144375
928.840	0.0143407
928.918	0.0144279
928.996	0.0143548
929.075	0.0143646
929.153	0.0144889
929.231	0.0145170
929.309	0.0145457
929.387	0.0145354
929.465	0.0145846
929.543	0.0146713
929.621	0.0146346
929.700	0.0146925
929.778	0.0147022
929.856	0.0146028
929.934	0.0144668
930.012	0.0145451
930.090	0.0147069
930.168	0.0147915
930.246	0.0145322
930.325	0.0145163
930.403	0.0144592
930.481	0.0144755
930.559	0.0145156
930.637	0.0144553
930.715	0.0144186
930.793	0.0143875
930.871	0.0145188
930.950	0.0144707
931.028	0.0144492
931.106	0.0144106
931.184	0.0143722
931.262	0.0145150
931.340	0.0146846
931.418	0.0147671
931.496	0.0145172
931.575	0.0144491
931.653	0.0145640
931.731	0.0145210
931.809	0.0144860
931.887	0.0145435
931.965	0.0145378
932.043	0.0144103
932.121	0.0144976
932.200	0.0145528
932.278	0.0144028
932.356	0.0143810
932.434	0.0145687
932.512	0.0146415
932.590	0.0145401
932.668	0.0144974
932.746	0.0145469
932.825	0.0145864
932.903	0.0146354
932.981	0.0146341
933.059	0.0146452
933.137	0.0145665
933.215	0.0145747
933.293	0.0145640
933.371	0.0146953
933.450	0.0146179
933.528	0.0146651
933.606	0.0146097
933.684	0.0144109
933.762	0.0144675
933.840	0.0145986
933.918	0.0144481
933.996	0.0145921
934.075	0.0145972
934.153	0.0144938
934.231	0.0144644
934.309	0.0145464
934.387	0.0145369
934.465	0.0145758
934.543	0.0144779
934.621	0.0144923
934.700	0.0144669
934.778	0.0146162
934.856	0.0145678
934.934	0.0145581
935.012	0.0146086
935.090	0.0145967
935.168	0.0145750
935.246	0.0145802
935.325	0.0144732
935.403	0.0145127
935.481	0.0145708
935.559	0.0144644
935.637	0.0146426
935.715	0.0145222
935.793	0.0145507
935.871	0.0146829
935.950	0.0145718
936.028	0.0146906
936.106	0.0145008
936.184	0.0145538
936.262	0.0144139
936.340	0.0145908
936.418	0.0144621
936.496	0.0144459
936.575	0.0144448
936.653	0.0144908
936.731	0.0144529
936.809	0.0144569
936.887	0.0145573
936.965	0.0144987
937.043	0.0146038
937.121	0.0144840
937.200	0.0145532
937.278	0.0145085
937.356	0.0144850
937.434	0.0145686
937.512	0.0144627
937.590	0.0145716
937.668	0.0146732
937.746	0.0146372
937.825	0.0147279
937.903	0.0144927
937.981	0.0145054
938.059	0.0146075
938.137	0.0145899
938.215	0.0145242
938.293	0.0145231
938.371	0.0146422
938.450	0.0145863
938.528	0.0145570
938.606	0.0145180
938.684	0.0146853
938.762	0.0147026
938.840	0.0145736
938.918	0.0145913
938.996	0.0147245
939.075	0.0144805
939.153	0.0144128
939.231	0.0144181
939.309	0.0145866
939.387	0.0145542
939.465	0.0145183
939.543	0.0145058
939.621	0.0144919
939.700	0.0145540
939.778	0.0145296
939.856	0.0144977
939.934	0.0146992
940.012	0.0146090
940.090	0.0145683
940.168	0.0145216
940.246	0.0145702
940.325	0.0145341
940.403	0.0146565
940.481	0.0145626
940.559	0.0144131
940.637	0.0144880
940.715	0.0145491
940.793	0.0145010
940.871	0.0144793
940.950	0.0146325
941.028	0.0146198
941.106	0.0144492
941.184	0.0145547
941.262	0.0146795
941.340	0.0145844
941.418	0.0144728
941.496	0.0147018
941.575	0.0146423
941.653	0.0144910
941.731	0.0145457
941.809	0.0146998
941.887	0.0146297
941.965	0.0145426
942.043	0.0146076
942.121	0.0147491
942.200	0.0144814
942.278	0.0144829
942.356	0.0145579
942.434	0.0145567
942.512	0.0143667
942.590	0.0144216
942.668	0.0144009
942.746	0.0145162
942.825	0.0146028
942.903	0.0146406
942.981	0.0144435
943.059	0.0143935
943.137	0.0144903
943.215	0.0143301
943.293	0.0144434
943.371	0.0144769
943.450	0.0144048
943.528	0.0146504
943.606	0.0146024
943.684	0.0146011
943.762	0.0145133
943.840	0.0145016
943.918	0.0145727
943.996	0.0145135
944.075	0.0145879
944.153	0.0145536
944.231	0.0145367
944.309	0.0146178
944.387	0.0145707
944.465	0.0145358
944.543	0.0145728
944.621	0.0145216
944.700	0.0143891
944.778	0.0145650
944.856	0.0146143
944.934	0.0146859
945.012	0.0145904
945.090	0.0145373
945.168	0.0146165
945.246	0.0144884
945.325	0.0144053
945.403	0.0145634
945.481	0.0143873
945.559	0.0144702
945.637	0.0145980
945.715	0.0145923
945.793	0.0144478
945.871	0.0145335
945.950	0.0144457
946.028	0.0143972
946.106	0.0144395
946.184	0.0144943
946.262	0.0146625
946.340	0.0144261
946.418	0.0144054
946.496	0.0145866
946.575	0.0145554
946.653	0.0145163
946.731	0.0143324
946.809	0.0144132
946.887	0.0143948
946.965	0.0144775
947.043	0.0145975
947.121	0.0144291
947.200	0.0146407
947.278	0.0145010
947.356	0.0144290
947.434	0.0145390
947.512	0.0146417
947.590	0.0145227
947.668	0.0145287
947.746	0.0145116
947.825	0.0143883
947.903	0.0143961
947.981	0.0145106
948.059	0.0143530
948.137	0.0145876
948.215	0.0143794
948.293	0.0145286
948.371	0.0143839
948.450	0.0144415
948.528	0.0145123
948.606	0.0144722
948.684	0.0145271
948.762	0.0143495
948.840	0.0143356
948.918	0.0146033
948.996	0.0144229
949.075	0.0144769
949.153	0.0144576
949.231	0.0145219
949.309	0.0145790
949.387	0.0146214
949.465	0.0145847
949.543	0.0146751
949.621	0.0146474
949.700	0.0143761
949.778	0.0144532
949.856	0.0145237
949.934	0.0145228
950.012	0.0145398
950.090	0.0146034
950.168	0.0144787
950.246	0.0144527
950.325	0.0145238
950.403	0.0144924
950.481	0.0144340
950.559	0.0145191
950.637	0.0145087
950.715	0.0145087
950.793	0.0144148
950.871	0.0143427
950.950	0.0144173
951.028	0.0146146
951.106	0.0143482
951.184	0.0143957
951.262	0.0143543
951.340	0.0143282
951.418	0.0144387
951.496	0.0143905
951.575	0.0144228
951.653	0.0144505
951.731	0.0144146
951.809	0.0144917
951.887	0.0145200
951.965	0.0145719
952.043	0.0145718
952.121	0.0145197
952.200	0.0145025
952.278	0.0145051
952.356	0.0144235
952.434	0.0145672
952.512	0.0144933
952.590	0.0145094
952.668	0.0144547
952.746	0.0145803
952.825	0.0144508
952.903	0.0143630
952.981	0.0145000
953.059	0.0144033
953.137	0.0145229
953.215	0.0144797
953.293	0.0145286
953.371	0.0144734
953.450	0.0145562
953.528	0.0146511
953.606	0.0144514
953.684	0.0144821
953.762	0.0146257
953.840	0.0144876
953.918	0.0144184
953.996	0.0144093
954.075	0.0144328
954.153	0.0144964
954.231	0.0144382
954.309	0.0143604
954.387	0.0144569
954.465	0.0144000
954.543	0.0143729
954.621	0.0144961
954.700	0.0145303
954.778	0.0143373
954.856	0.0144983
954.934	0.0145149
955.012	0.0144563
955.090	0.0143876
955.168	0.0145718
955.246	0.0143896
955.325	0.0144776
955.403	0.0144793
955.481	0.0145158
955.559	0.0144420
955.637	0.0146357
955.715	0.0144132
955.793	0.0144701
955.871	0.0144804
955.950	0.0145123
956.028	0.0145417
956.106	0.0145283
956.184	0.0143388
956.262	0.0144775
956.340	0.0144725
956.418	0.0145456
956.496	0.0146257
956.575	0.0144728
956.653	0.0145067
956.731	0.0145566
956.809	0.0146069
956.887	0.0145640
956.965	0.0145063
957.043	0.0145919
957.121	0.0146111
957.200	0.0145346
957.278	0.0145587
957.356	0.0146122
957.434	0.0144769
957.512	0.0143694
957.590	0.0144547
957.668	0.0145936
957.746	0.0146002
957.825	0.0145685
957.903	0.0143700
957.981	0.0143660
958.059	0.0143043
958.137	0.0143394
958.215	0.0145413
958.293	0.0144692
958.371	0.0145142
958.450	0.0144868
958.528	0.0145054
958.606	0.0144385
958.684	0.0145409
958.762	0.0146453
958.840	0.0145123
958.918	0.0144700
958.996	0.0144896
959.075	0.0144957
959.153	0.0145628
959.231	0.0146129
959.309	0.0146553
959.387	0.0146230
959.465	0.0146635
959.543	0.0146626
959.621	0.0145753
959.700	0.0145213
959.778	0.0146160
959.856	0.0146889
959.934	0.0144769
960.012	0.0145933
960.090	0.0147009
960.168	0.0145403
960.246	0.0145337
960.325	0.0145425
960.403	0.0145856
960.481	0.0146000
960.559	0.0146339
960.637	0.0145681
960.715	0.0146072
960.793	0.0145119
960.871	0.0145814
960.950	0.0145449
961.028	0.0145725
961.106	0.0145901
961.184	0.0144440
961.262	0.0144802
961.340	0.0145521
961.418	0.0145308
961.496	0.0144905
961.575	0.0145075
961.653	0.0144213
961.731	0.0145621
961.809	0.0146420
961.887	0.0145081
961.965	0.0143508
962.043	0.0144229
962.121	0.0145822
962.200	0.0146309
962.278	0.0145419
962.356	0.0144965
962.434	0.0145561
962.512	0.0146267
962.590	0.0145908
962.668	0.0145291
962.746	0.0144777
962.825	0.0144654
962.903	0.0147389
962.981	0.0145840
963.059	0.0145860
963.137	0.0145409
963.215	0.0145119
963.293	0.0144846
963.371	0.0145042
963.450	0.0145161
963.528	0.0145224
963.606	0.0145503
963.684	0.0145145
963.762	0.0144477
963.840	0.0145985
963.918	0.0145110
963.996	0.0144408
964.075	0.0145019
964.153	0.0143873
964.231	0.0144804
964.309	0.0145020
964.387	0.0146104
964.465	0.0145124
964.543	0.0146870
964.621	0.0145597
964.700	0.0144191
964.778	0.0144685
964.856	0.0145482
964.934	0.0145146
965.012	0.0144991
965.090	0.0147438
965.168	0.0147035
965.246	0.0145235
965.325	0.0144801
965.403	0.0144027
965.481	0.0144875
965.559	0.0145682
965.637	0.0145029
965.715	0.0143729
965.793	0.0145100
965.871	0.0144685
965.950	0.0144747
966.028	0.0145923
966.106	0.0144827
966.184	0.0143349
966.262	0.0144282
966.340	0.0144440
966.418	0.0144326
966.496	0.0144725
966.575	0.0145794
966.653	0.0146330
966.731	0.0145272
966.809	0.0144868
966.887	0.0144344
966.965	0.0144042
967.043	0.0144975
967.121	0.0143839
967.200	0.0144854
967.278	0.0144055
967.356	0.0145546
967.434	0.0144994
967.512	0.0144819
967.590	0.0143701
967.668	0.0146091
967.746	0.0145288
967.825	0.0145212
967.903	0.0146730
967.981	0.0146165
968.059	0.0144868
968.137	0.0143313
968.215	0.0145049
968.293	0.0144859
968.371	0.0145222
968.450	0.0145573
968.528	0.0145598
968.606	0.0145056
968.684	0.0145732
968.762	0.0145561
968.840	0.0146004
968.918	0.0145700
968.996	0.0144721
969.075	0.0145264
969.153	0.0145007
969.231	0.0144279
969.309	0.0145077
969.387	0.0144908
969.465	0.0144695
969.543	0.0145860
969.621	0.0145113
969.700	0.0145178
969.778	0.0145047
969.856	0.0145334
969.934	0.0144749
970.012	0.0144678
970.090	0.0143764
970.168	0.0143099
970.246	0.0144560
970.325	0.0144056
970.403	0.0145750
970.481	0.0144766
970.559	0.0147009
970.637	0.0143487
970.715	0.0145023
970.793	0.0145603
970.871	0.0145501
970.950	0.0145535
971.028	0.0146230
971.106	0.0147042
971.184	0.0144975
971.262	0.0145846
971.340	0.0146494
971.418	0.0146622
971.496	0.0145313
971.575	0.0146316
971.653	0.0146517
971.731	0.0145351
971.809	0.0144656
971.887	0.0145734
971.965	0.0145040
972.043	0.0144858
972.121	0.0143037
972.200	0.0145317
972.278	0.0145182
972.356	0.0145320
972.434	0.0144546
972.512	0.0144714
972.590	0.0144995
972.668	0.0146604
972.746	0.0146129
972.825	0.0146757
972.903	0.0145558
972.981	0.0145555
973.059	0.0146000
973.137	0.0144955
973.215	0.0146397
973.293	0.0146175
973.371	0.0146027
973.450	0.0145318
973.528	0.0145383
973.606	0.0145040
973.684	0.0146224
973.762	0.0146377
973.840	0.0146307
973.918	0.0146353
973.996	0.0145681
974.075	0.0146430
974.153	0.0146917
974.231	0.0146161
974.309	0.0147873
974.387	0.0145395
974.465	0.0144978
974.543	0.0145684
974.621	0.0145525
974.700	0.0146867
974.778	0.0146225
974.856	0.0144513
974.934	0.0144913
975.012	0.0146372
975.090	0.0146510
975.168	0.0145416
975.246	0.0144780
975.325	0.0146555
975.403	0.0145879
975.481	0.0143906
975.559	0.0144563
975.637	0.0146478
975.715	0.0145654
975.793	0.0145298
975.871	0.0146883
975.950	0.0145675
976.028	0.0145506
976.106	0.0146285
976.184	0.0146566
976.262	0.0145908
976.340	0.0146113
976.418	0.0147542
976.496	0.0146064
976.575	0.0145083
976.653	0.0145983
976.731	0.0145654
976.809	0.0146345
976.887	0.0145541
976.965	0.0145850
977.043	0.0146103
977.121	0.0147035
977.200	0.0145679
977.278	0.0143766
977.356	0.0144973
977.434	0.0147066
977.512	0.0145032
977.590	0.0144283
977.668	0.0146267
977.746	0.0145243
977.825	0.0145457
977.903	0.0145841
977.981	0.0146771
978.059	0.0144869
978.137	0.0144974
978.215	0.0146761
978.293	0.0146355
978.371	0.0145019
978.450	0.0146044
978.528	0.0146618
978.606	0.0145409
978.684	0.0144365
978.762	0.0145267
978.840	0.0145338
978.918	0.0146082
978.996	0.0145524
979.075	0.0145323
979.153	0.0144865
979.231	0.0146275
979.309	0.0145320
979.387	0.0145639
979.465	0.0145432
979.543	0.0144978
979.621	0.0144705
979.700	0.0146094
979.778	0.0146458
979.856	0.0144897
979.934	0.0145248
980.012	0.0145771
980.090	0.0146233
980.168	0.0145431
980.246	0.0145432
980.325	0.0146232
980.403	0.0145957
980.481	0.0145683
980.559	0.0145617
980.637	0.0145284
980.715	0.0145168
980.793	0.0145575
980.871	0.0143957
980.950	0.0145346
981.028	0.0144959
981.106	0.0143095
981.184	0.0145752
981.262	0.0147395
981.340	0.0143990
981.418	0.0146117
981.496	0.0144969
981.575	0.0144483
981.653	0.0145048
981.731	0.0144635
981.809	0.0146348
981.887	0.0144424
981.965	0.0144865
982.043	0.0143925
982.121	0.0145332
982.200	0.0146918
982.278	0.0146589
982.356	0.0144746
982.434	0.0145249
982.512	0.0145399
982.590	0.0146642
982.668	0.0147005
982.746	0.0147375
982.825	0.0146213
982.903	0.0144864
982.981	0.0146402
983.059	0.0145973
983.137	0.0145564
983.215	0.0144630
983.293	0.0146146
983.371	0.0145764
983.450	0.0146852
983.528	0.0145543
983.606	0.0144534
983.684	0.0146445
983.762	0.0146371
983.840	0.0146424
983.918	0.0144706
983.996	0.0144548
984.075	0.0144433
984.153	0.0144268
984.231	0.0144587
984.309	0.0143764
984.387	0.0143758
984.465	0.0144631
984.543	0.0144445
984.621	0.0144688
984.700	0.0144435
984.778	0.0144045
984.856	0.0144714
984.934	0.0144537
985.012	0.0145866
985.090	0.0146822
985.168	0.0145037
985.246	0.0146223
985.325	0.0145840
985.403	0.0146404
985.481	0.0145878
985.559	0.0145264
985.637	0.0144933
985.715	0.0146718
985.793	0.0146574
985.871	0.0146292
985.950	0.0144796
986.028	0.0145064
986.106	0.0145376
986.184	0.0144859
986.262	0.0145421
986.340	0.0145650
986.418	0.0143928
986.496	0.0144702
986.575	0.0145386
986.653	0.0145187
986.731	0.0145015
986.809	0.0145415
986.887	0.0144950
986.965	0.0143597
987.043	0.0145349
987.121	0.0144669
987.200	0.0144149
987.278	0.0143904
987.356	0.0144361
987.434	0.0143796
987.512	0.0143526
987.590	0.0144215
987.668	0.0145094
987.746	0.0145005
987.825	0.0144960
987.903	0.0146056
987.981	0.0145314
988.059	0.0144807
988.137	0.0145696
988.215	0.0146223
988.293	0.0146381
988.371	0.0144940
988.450	0.0143064
988.528	0.0146153
988.606	0.0146527
988.684	0.0147732
988.762	0.0145969
988.840	0.0145135
988.918	0.0146803
988.996	0.0147427
989.075	0.0146463
989.153	0.0145723
989.231	0.0146009
989.309	0.0146429
989.387	0.0145431
989.465	0.0145966
989.543	0.0145311
989.621	0.0145889
989.700	0.0144584
989.778	0.0144530
989.856	0.0145484
989.934	0.0144669
990.012	0.0146040
990.090	0.0145569
990.168	0.0145519
990.246	0.0144404
990.325	0.0144962
990.403	0.0146040
990.481	0.0146998
990.559	0.0144298
990.637	0.0145271
990.715	0.0146064
990.793	0.0144820
990.871	0.0144635
990.950	0.0145621
991.028	0.0146624
991.106	0.0144852
991.184	0.0145013
991.262	0.0145341
991.340	0.0145806
991.418	0.0146535
991.496	0.0144814
991.575	0.0144999
991.653	0.0147002
991.731	0.0146054
991.809	0.0144377
991.887	0.0147107
991.965	0.0147578
992.043	0.0145212
992.121	0.0146024
992.200	0.0146425
992.278	0.0145662
992.356	0.0146099
992.434	0.0146534
992.512	0.0145752
992.590	0.0144904
992.668	0.0145080
992.746	0.0147106
992.825	0.0145857
992.903	0.0145093
992.981	0.0146374
993.059	0.0146989
993.137	0.0146348
993.215	0.0145835
993.293	0.0145152
993.371	0.0145435
993.450	0.0145383
993.528	0.0145859
993.606	0.0144946
993.684	0.0144988
993.762	0.0145773
993.840	0.0146420
993.918	0.0144933
993.996	0.0145589
994.075	0.0146587
994.153	0.0145428
994.231	0.0145469
994.309	0.0147310
994.387	0.0144246
994.465	0.0144686
994.543	0.0145657
994.621	0.0146998
994.700	0.0145772
994.778	0.0145157
994.856	0.0145429
994.934	0.0144774
995.012	0.0145470
995.090	0.0145073
995.168	0.0145342
995.246	0.0144832
995.325	0.0145783
995.403	0.0145219
995.481	0.0146495
995.559	0.0144731
995.637	0.0144622
995.715	0.0144795
995.793	0.0146161
995.871	0.0145876
995.950	0.0145876
996.028	0.0146622
996.106	0.0144434
996.184	0.0144530
996.262	0.0146099
996.340	0.0146196
996.418	0.0145087
996.496	0.0145660
996.575	0.0145095
996.653	0.0144983
996.731	0.0145348
996.809	0.0145509
996.887	0.0145781
996.965	0.0146494
997.043	0.0145029
997.121	0.0145740
997.200	0.0146929
997.278	0.0146536
997.356	0.0145754
997.434	0.0145226
997.512	0.0145087
997.590	0.0144083
997.668	0.0145737
997.746	0.0145332
997.825	0.0146649
997.903	0.0143924
997.981	0.0145537
998.059	0.0146144
998.137	0.0143819
998.215	0.0144525
998.293	0.0145084
998.371	0.0143386
998.450	0.0144376
998.528	0.0143697
998.606	0.0143206
998.684	0.0144846
998.762	0.0145995
998.840	0.0145560
998.918	0.0144331
