05/04/2022	21:09:22	Ver.	4.1	UNKNOWN
Optical Delay	678.996401	Delta X		0.078125	Sweeps	1	Scan Rate	0/0
Coordinates	Axis 1	NaN	Axis 2	NaN	Axis 3	NaN	Axis 4	NaN	Axis 5	NaN	Axis 6	0.000000
TX Power	0.000000	RX Power	0.000000

678.996	0.0143029
679.075	0.0141016
679.153	0.0142481
679.231	0.0143474
679.309	0.0142262
679.387	0.0144196
679.465	0.0143793
679.543	0.0143492
679.621	0.0143702
679.700	0.0143126
679.778	0.0141798
679.856	0.0143534
679.934	0.0143319
680.012	0.0143027
680.090	0.0142379
680.168	0.0143066
680.246	0.0142673
680.325	0.0142419
680.403	0.0142946
680.481	0.0143430
680.559	0.0142851
680.637	0.0142483
680.715	0.0143840
680.793	0.0143613
680.871	0.0142278
680.950	0.0142326
681.028	0.0142741
681.106	0.0143270
681.184	0.0143256
681.262	0.0142473
681.340	0.0143736
681.418	0.0143233
681.496	0.0143650
681.575	0.0141711
681.653	0.0142082
681.731	0.0141672
681.809	0.0142229
681.887	0.0142631
681.965	0.0144466
682.043	0.0143532
682.121	0.0142968
682.200	0.0142685
682.278	0.0142136
682.356	0.0142828
682.434	0.0143230
682.512	0.0142753
682.590	0.0141770
682.668	0.0143325
682.746	0.0143082
682.825	0.0142158
682.903	0.0141026
682.981	0.0141086
683.059	0.0142558
683.137	0.0143537
683.215	0.0142632
683.293	0.0143496
683.371	0.0144390
683.450	0.0142528
683.528	0.0142093
683.606	0.0144196
683.684	0.0142436
683.762	0.0142079
683.840	0.0142501
683.918	0.0142381
683.996	0.0143195
684.075	0.0143597
684.153	0.0144205
684.231	0.0143093
684.309	0.0143063
684.387	0.0143104
684.465	0.0143659
684.543	0.0142265
684.621	0.0143877
684.700	0.0143652
684.778	0.0143537
684.856	0.0142535
684.934	0.0144046
685.012	0.0143380
685.090	0.0143067
685.168	0.0143662
685.246	0.0142146
685.325	0.0142604
685.403	0.0143584
685.481	0.0143985
685.559	0.0142403
685.637	0.0144005
685.715	0.0142464
685.793	0.0140423
685.871	0.0143957
685.950	0.0142935
686.028	0.0144299
686.106	0.0143968
686.184	0.0143857
686.262	0.0142566
686.340	0.0142936
686.418	0.0143916
686.496	0.0142794
686.575	0.0143711
686.653	0.0143767
686.731	0.0145412
686.809	0.0144620
686.887	0.0144857
686.965	0.0143723
687.043	0.0142696
687.121	0.0144447
687.200	0.0144275
687.278	0.0143594
687.356	0.0143931
687.434	0.0143616
687.512	0.0142666
687.590	0.0142833
687.668	0.0143105
687.746	0.0143011
687.825	0.0141871
687.903	0.0142764
687.981	0.0142537
688.059	0.0141525
688.137	0.0142848
688.215	0.0140800
688.293	0.0142271
688.371	0.0141484
688.450	0.0141334
688.528	0.0140594
688.606	0.0142167
688.684	0.0141580
688.762	0.0140985
688.840	0.0141528
688.918	0.0141846
688.996	0.0141003
689.075	0.0140784
689.153	0.0142799
689.231	0.0142458
689.309	0.0143760
689.387	0.0144054
689.465	0.0142639
689.543	0.0142440
689.621	0.0142805
689.700	0.0143740
689.778	0.0144774
689.856	0.0144906
689.934	0.0143306
690.012	0.0143871
690.090	0.0143346
690.168	0.0143130
690.246	0.0143040
690.325	0.0145288
690.403	0.0142847
690.481	0.0142970
690.559	0.0143112
690.637	0.0142296
690.715	0.0142930
690.793	0.0143050
690.871	0.0142442
690.950	0.0142071
691.028	0.0142018
691.106	0.0141730
691.184	0.0143240
691.262	0.0143621
691.340	0.0142339
691.418	0.0143205
691.496	0.0143785
691.575	0.0143868
691.653	0.0142560
691.731	0.0144067
691.809	0.0145794
691.887	0.0143597
691.965	0.0142531
692.043	0.0145214
692.121	0.0143467
692.200	0.0143229
692.278	0.0143882
692.356	0.0143642
692.434	0.0143301
692.512	0.0143890
692.590	0.0142206
692.668	0.0142469
692.746	0.0142691
692.825	0.0141047
692.903	0.0141757
692.981	0.0142481
693.059	0.0141290
693.137	0.0141135
693.215	0.0140754
693.293	0.0141447
693.371	0.0139748
693.450	0.0142175
693.528	0.0142015
693.606	0.0140533
693.684	0.0141158
693.762	0.0142731
693.840	0.0142162
693.918	0.0142484
693.996	0.0142162
694.075	0.0143123
694.153	0.0143787
694.231	0.0142925
694.309	0.0144330
694.387	0.0144350
694.465	0.0142855
694.543	0.0143821
694.621	0.0143620
694.700	0.0142986
694.778	0.0143071
694.856	0.0144921
694.934	0.0144437
695.012	0.0144008
695.090	0.0141339
695.168	0.0141802
695.246	0.0143605
695.325	0.0143657
695.403	0.0141882
695.481	0.0142991
695.559	0.0141671
695.637	0.0141789
695.715	0.0142258
695.793	0.0142468
695.871	0.0142785
695.950	0.0143497
696.028	0.0143011
696.106	0.0144229
696.184	0.0143479
696.262	0.0144289
696.340	0.0143235
696.418	0.0142795
696.496	0.0142793
696.575	0.0141663
696.653	0.0142836
696.731	0.0144492
696.809	0.0142587
696.887	0.0143835
696.965	0.0144269
697.043	0.0143108
697.121	0.0144371
697.200	0.0144910
697.278	0.0143132
697.356	0.0142753
697.434	0.0144528
697.512	0.0145606
697.590	0.0144437
697.668	0.0145703
697.746	0.0144935
697.825	0.0144749
697.903	0.0142722
697.981	0.0142237
698.059	0.0143486
698.137	0.0142082
698.215	0.0143156
698.293	0.0141320
698.371	0.0141441
698.450	0.0141759
698.528	0.0141463
698.606	0.0140636
698.684	0.0140496
698.762	0.0141245
698.840	0.0142770
698.918	0.0139494
698.996	0.0142303
699.075	0.0142551
699.153	0.0143046
699.231	0.0142583
699.309	0.0143037
699.387	0.0144163
699.465	0.0143708
699.543	0.0144682
699.621	0.0144718
699.700	0.0144512
699.778	0.0144684
699.856	0.0144382
699.934	0.0142852
700.012	0.0143664
700.090	0.0144143
700.168	0.0143085
700.246	0.0143505
700.325	0.0142339
700.403	0.0141830
700.481	0.0140015
700.559	0.0143097
700.637	0.0143299
700.715	0.0141824
700.793	0.0141642
700.871	0.0142770
700.950	0.0141827
701.028	0.0140501
701.106	0.0140873
701.184	0.0140564
701.262	0.0142599
701.340	0.0141493
701.418	0.0141255
701.496	0.0142896
701.575	0.0143954
701.653	0.0144072
701.731	0.0145869
701.809	0.0146796
701.887	0.0145488
701.965	0.0144375
702.043	0.0145253
702.121	0.0143462
702.200	0.0142937
702.278	0.0142320
702.356	0.0143031
702.434	0.0143452
702.512	0.0144011
702.590	0.0144591
702.668	0.0145747
702.746	0.0143198
702.825	0.0143447
702.903	0.0142686
702.981	0.0142032
703.059	0.0140464
703.137	0.0140430
703.215	0.0139833
703.293	0.0139843
703.371	0.0141591
703.450	0.0143005
703.528	0.0144340
703.606	0.0144068
703.684	0.0146033
703.762	0.0146355
703.840	0.0147102
703.918	0.0145428
703.996	0.0145073
704.075	0.0143889
704.153	0.0144378
704.231	0.0142901
704.309	0.0141636
704.387	0.0139963
704.465	0.0140412
704.543	0.0138688
704.621	0.0139267
704.700	0.0140763
704.778	0.0141669
704.856	0.0141273
704.934	0.0141970
705.012	0.0140810
705.090	0.0140031
705.168	0.0141348
705.246	0.0141485
705.325	0.0141707
705.403	0.0141187
705.481	0.0142757
705.559	0.0144753
705.637	0.0145161
705.715	0.0146598
705.793	0.0148883
705.871	0.0147823
705.950	0.0147411
706.028	0.0147485
706.106	0.0145219
706.184	0.0144666
706.262	0.0144273
706.340	0.0143982
706.418	0.0144083
706.496	0.0144612
706.575	0.0146205
706.653	0.0145818
706.731	0.0146819
706.809	0.0147613
706.887	0.0146364
706.965	0.0145186
707.043	0.0144878
707.121	0.0141850
707.200	0.0138532
707.278	0.0136582
707.356	0.0136546
707.434	0.0133548
707.512	0.0133968
707.590	0.0132431
707.668	0.0133881
707.746	0.0136121
707.825	0.0138696
707.903	0.0140780
707.981	0.0142680
708.059	0.0143632
708.137	0.0144228
708.215	0.0144466
708.293	0.0146536
708.371	0.0145406
708.450	0.0146205
708.528	0.0146446
708.606	0.0147710
708.684	0.0149661
708.762	0.0149997
708.840	0.0150356
708.918	0.0152236
708.996	0.0150969
709.075	0.0149969
709.153	0.0147926
709.231	0.0145485
709.309	0.0144913
709.387	0.0144334
709.465	0.0143478
709.543	0.0143444
709.621	0.0143173
709.700	0.0144759
709.778	0.0144995
709.856	0.0143881
709.934	0.0143823
710.012	0.0142198
710.090	0.0141140
710.168	0.0137494
710.246	0.0137305
710.325	0.0135478
710.403	0.0135419
710.481	0.0134185
710.559	0.0134083
710.637	0.0134840
710.715	0.0135863
710.793	0.0138026
710.871	0.0139749
710.950	0.0140517
711.028	0.0142334
711.106	0.0143423
711.184	0.0146153
711.262	0.0145490
711.340	0.0147827
711.418	0.0147480
711.496	0.0147927
711.575	0.0147807
711.653	0.0148128
711.731	0.0149055
711.809	0.0150835
711.887	0.0151373
711.965	0.0149940
712.043	0.0149438
712.121	0.0149985
712.200	0.0148654
712.278	0.0146751
712.356	0.0146795
712.434	0.0148067
712.512	0.0146792
712.590	0.0145827
712.668	0.0145821
712.746	0.0144397
712.825	0.0144910
712.903	0.0141324
712.981	0.0137048
713.059	0.0137701
713.137	0.0136060
713.215	0.0134308
713.293	0.0133599
713.371	0.0134055
713.450	0.0133800
713.528	0.0136045
713.606	0.0137138
713.684	0.0137434
713.762	0.0138747
713.840	0.0140976
713.918	0.0141045
713.996	0.0141428
714.075	0.0143026
714.153	0.0144199
714.231	0.0144360
714.309	0.0145251
714.387	0.0145831
714.465	0.0147002
714.543	0.0146784
714.621	0.0146087
714.700	0.0146340
714.778	0.0145773
714.856	0.0146033
714.934	0.0146548
715.012	0.0147013
715.090	0.0147240
715.168	0.0146275
715.246	0.0145538
715.325	0.0144789
715.403	0.0144886
715.481	0.0146459
715.559	0.0144697
715.637	0.0146426
715.715	0.0146866
715.793	0.0148063
715.871	0.0147161
715.950	0.0147436
716.028	0.0145029
716.106	0.0142740
716.184	0.0142637
716.262	0.0140018
716.340	0.0136577
716.418	0.0135645
716.496	0.0133424
716.575	0.0134736
716.653	0.0135261
716.731	0.0133434
716.809	0.0133459
716.887	0.0134514
716.965	0.0135196
717.043	0.0137383
717.121	0.0138541
717.200	0.0142294
717.278	0.0143879
717.356	0.0145257
717.434	0.0146439
717.512	0.0148032
717.590	0.0148806
717.668	0.0148772
717.746	0.0148503
717.825	0.0147613
717.903	0.0146107
717.981	0.0145324
718.059	0.0144419
718.137	0.0144128
718.215	0.0141914
718.293	0.0140878
718.371	0.0142859
718.450	0.0141385
718.528	0.0144286
718.606	0.0144798
718.684	0.0146271
718.762	0.0146726
718.840	0.0148118
718.918	0.0147124
718.996	0.0147658
719.075	0.0147722
719.153	0.0148804
719.231	0.0149033
719.309	0.0147505
719.387	0.0144717
719.465	0.0142743
719.543	0.0140373
719.621	0.0138606
719.700	0.0136826
719.778	0.0135980
719.856	0.0135299
719.934	0.0133967
720.012	0.0135130
720.090	0.0134912
720.168	0.0134927
720.246	0.0137238
720.325	0.0139346
720.403	0.0141330
720.481	0.0145107
720.559	0.0146361
720.637	0.0147600
720.715	0.0149181
720.793	0.0150025
720.871	0.0148350
720.950	0.0145785
721.028	0.0145014
721.106	0.0143999
721.184	0.0143503
721.262	0.0140678
721.340	0.0138994
721.418	0.0138440
721.496	0.0137801
721.575	0.0137968
721.653	0.0137406
721.731	0.0138262
721.809	0.0139096
721.887	0.0141290
721.965	0.0143488
722.043	0.0144241
722.121	0.0146607
722.200	0.0147751
722.278	0.0148829
722.356	0.0148472
722.434	0.0150577
722.512	0.0149372
722.590	0.0149015
722.668	0.0147704
722.746	0.0147154
722.825	0.0146036
722.903	0.0142931
722.981	0.0141904
723.059	0.0140202
723.137	0.0141418
723.215	0.0142720
723.293	0.0141044
723.371	0.0141769
723.450	0.0142864
723.528	0.0144376
723.606	0.0145118
723.684	0.0146037
723.762	0.0146305
723.840	0.0146607
723.918	0.0147513
723.996	0.0147099
724.075	0.0145817
724.153	0.0143484
724.231	0.0141282
724.309	0.0140836
724.387	0.0138807
724.465	0.0137396
724.543	0.0134570
724.621	0.0135458
724.700	0.0134990
724.778	0.0133241
724.856	0.0132528
724.934	0.0133655
725.012	0.0134534
725.090	0.0137136
725.168	0.0139190
725.246	0.0143436
725.325	0.0144728
725.403	0.0147428
725.481	0.0150280
725.559	0.0150851
725.637	0.0151218
725.715	0.0153462
725.793	0.0153159
725.871	0.0153403
725.950	0.0152817
726.028	0.0151667
726.106	0.0147501
726.184	0.0145295
726.262	0.0144847
726.340	0.0142916
726.418	0.0142130
726.496	0.0142620
726.575	0.0141003
726.653	0.0142766
726.731	0.0141129
726.809	0.0142355
726.887	0.0144431
726.965	0.0143298
727.043	0.0143424
727.121	0.0144486
727.200	0.0144334
727.278	0.0142855
727.356	0.0141119
727.434	0.0139601
727.512	0.0140603
727.590	0.0141389
727.668	0.0138203
727.746	0.0138612
727.825	0.0136307
727.903	0.0134946
727.981	0.0135549
728.059	0.0135507
728.137	0.0137760
728.215	0.0137482
728.293	0.0139642
728.371	0.0139646
728.450	0.0140334
728.528	0.0142638
728.606	0.0144224
728.684	0.0144510
728.762	0.0144578
728.840	0.0146757
728.918	0.0146291
728.996	0.0143314
729.075	0.0145164
729.153	0.0145819
729.231	0.0145712
729.309	0.0144556
729.387	0.0146085
729.465	0.0146819
729.543	0.0146896
729.621	0.0144728
729.700	0.0144500
729.778	0.0145392
729.856	0.0144166
729.934	0.0143625
730.012	0.0145004
730.090	0.0144788
730.168	0.0144642
730.246	0.0144159
730.325	0.0145783
730.403	0.0144682
730.481	0.0146152
730.559	0.0144840
730.637	0.0144211
730.715	0.0144908
730.793	0.0144653
730.871	0.0144279
730.950	0.0143486
731.028	0.0142744
731.106	0.0142075
731.184	0.0139169
731.262	0.0139011
731.340	0.0139749
731.418	0.0137380
731.496	0.0138047
731.575	0.0137739
731.653	0.0137654
731.731	0.0137180
731.809	0.0139081
731.887	0.0139985
731.965	0.0139573
732.043	0.0141073
732.121	0.0141344
732.200	0.0143360
732.278	0.0144141
732.356	0.0144297
732.434	0.0146515
732.512	0.0146282
732.590	0.0148228
732.668	0.0147956
732.746	0.0145612
732.825	0.0148479
732.903	0.0146156
732.981	0.0144533
733.059	0.0143905
733.137	0.0142821
733.215	0.0142198
733.293	0.0140318
733.371	0.0140495
733.450	0.0140913
733.528	0.0141380
733.606	0.0141698
733.684	0.0141246
733.762	0.0142757
733.840	0.0142290
733.918	0.0143044
733.996	0.0143054
734.075	0.0144022
734.153	0.0143639
734.231	0.0144522
734.309	0.0143258
734.387	0.0143290
734.465	0.0142355
734.543	0.0143761
734.621	0.0143847
734.700	0.0143594
734.778	0.0141945
734.856	0.0141155
734.934	0.0140594
735.012	0.0142418
735.090	0.0142615
735.168	0.0142470
735.246	0.0142162
735.325	0.0142194
735.403	0.0144599
735.481	0.0145430
735.559	0.0145313
735.637	0.0147009
735.715	0.0146693
735.793	0.0147536
735.871	0.0145847
735.950	0.0146333
736.028	0.0144650
736.106	0.0144126
736.184	0.0142136
736.262	0.0140639
736.340	0.0142010
736.418	0.0140956
736.496	0.0139911
736.575	0.0138902
736.653	0.0139558
736.731	0.0139752
736.809	0.0139959
736.887	0.0141359
736.965	0.0140038
737.043	0.0140656
737.121	0.0140677
737.200	0.0141100
737.278	0.0141891
737.356	0.0141504
737.434	0.0141129
737.512	0.0142422
737.590	0.0141477
737.668	0.0141766
737.746	0.0143223
737.825	0.0144675
737.903	0.0144627
737.981	0.0144168
738.059	0.0145506
738.137	0.0144543
738.215	0.0145341
738.293	0.0145393
738.371	0.0144492
738.450	0.0145475
738.528	0.0145570
738.606	0.0143352
738.684	0.0144588
738.762	0.0143858
738.840	0.0143472
738.918	0.0143838
738.996	0.0142487
739.075	0.0143053
739.153	0.0141475
739.231	0.0141575
739.309	0.0141106
739.387	0.0141457
739.465	0.0141000
739.543	0.0142332
739.621	0.0141815
739.700	0.0140952
739.778	0.0142002
739.856	0.0141521
739.934	0.0142167
740.012	0.0140952
740.090	0.0142046
740.168	0.0139999
740.246	0.0141167
740.325	0.0141072
740.403	0.0138966
740.481	0.0141786
740.559	0.0139642
740.637	0.0140185
740.715	0.0140939
740.793	0.0143207
740.871	0.0142330
740.950	0.0141045
741.028	0.0142048
741.106	0.0142164
741.184	0.0142063
741.262	0.0144276
741.340	0.0142005
741.418	0.0144044
741.496	0.0144398
741.575	0.0144200
741.653	0.0143913
741.731	0.0145774
741.809	0.0145472
741.887	0.0146135
741.965	0.0144115
742.043	0.0145084
742.121	0.0145923
742.200	0.0144343
742.278	0.0145001
742.356	0.0144692
742.434	0.0146712
742.512	0.0144147
742.590	0.0143094
742.668	0.0144273
742.746	0.0143997
742.825	0.0143629
742.903	0.0142846
742.981	0.0142657
743.059	0.0142695
743.137	0.0143070
743.215	0.0142464
743.293	0.0142439
743.371	0.0142166
743.450	0.0143758
743.528	0.0142268
743.606	0.0141101
743.684	0.0142112
743.762	0.0142146
743.840	0.0141418
743.918	0.0141663
743.996	0.0138519
744.075	0.0139899
744.153	0.0141685
744.231	0.0140075
744.309	0.0140885
744.387	0.0141568
744.465	0.0141638
744.543	0.0142632
744.621	0.0142289
744.700	0.0141071
744.778	0.0144463
744.856	0.0144176
744.934	0.0143134
745.012	0.0144669
745.090	0.0143895
745.168	0.0144357
745.246	0.0144753
745.325	0.0144708
745.403	0.0145842
745.481	0.0145261
745.559	0.0144054
745.637	0.0143039
745.715	0.0144621
745.793	0.0144448
745.871	0.0144569
745.950	0.0145586
746.028	0.0144936
746.106	0.0143634
746.184	0.0143021
746.262	0.0143653
746.340	0.0144484
746.418	0.0142397
746.496	0.0143655
746.575	0.0143806
746.653	0.0142657
746.731	0.0142844
746.809	0.0143159
746.887	0.0142602
746.965	0.0140452
747.043	0.0143705
747.121	0.0141800
747.200	0.0141376
747.278	0.0142576
747.356	0.0141145
747.434	0.0142939
747.512	0.0142591
747.590	0.0143755
747.668	0.0144879
747.746	0.0144855
747.825	0.0145171
747.903	0.0145221
747.981	0.0144707
748.059	0.0143725
748.137	0.0143005
748.215	0.0144424
748.293	0.0143574
748.371	0.0142463
748.450	0.0142752
748.528	0.0143476
748.606	0.0143613
748.684	0.0143089
748.762	0.0143373
748.840	0.0142764
748.918	0.0144521
748.996	0.0142924
749.075	0.0141774
749.153	0.0144948
749.231	0.0144022
749.309	0.0143561
749.387	0.0143172
749.465	0.0143507
749.543	0.0143481
749.621	0.0143622
749.700	0.0144110
749.778	0.0142703
749.856	0.0143520
749.934	0.0144431
750.012	0.0143406
750.090	0.0143382
750.168	0.0141493
750.246	0.0142261
750.325	0.0141611
750.403	0.0142543
750.481	0.0142414
750.559	0.0142361
750.637	0.0140836
750.715	0.0141129
750.793	0.0140395
750.871	0.0141003
750.950	0.0142310
751.028	0.0141728
751.106	0.0142227
751.184	0.0144083
751.262	0.0142426
751.340	0.0144316
751.418	0.0145069
751.496	0.0144538
751.575	0.0145399
751.653	0.0145660
751.731	0.0145318
751.809	0.0146345
751.887	0.0145040
751.965	0.0146834
752.043	0.0146147
752.121	0.0145422
752.200	0.0144531
752.278	0.0145808
752.356	0.0145118
752.434	0.0144569
752.512	0.0143661
752.590	0.0143104
752.668	0.0143564
752.746	0.0142600
752.825	0.0141539
752.903	0.0141897
752.981	0.0142033
753.059	0.0143021
753.137	0.0140936
753.215	0.0141412
753.293	0.0142447
753.371	0.0141180
753.450	0.0140401
753.528	0.0140941
753.606	0.0141554
753.684	0.0139983
753.762	0.0139816
753.840	0.0141535
753.918	0.0142078
753.996	0.0141407
754.075	0.0141196
754.153	0.0141799
754.231	0.0141712
754.309	0.0140813
754.387	0.0142365
754.465	0.0143276
754.543	0.0141472
754.621	0.0142725
754.700	0.0143246
754.778	0.0143040
754.856	0.0144183
754.934	0.0144534
755.012	0.0143919
755.090	0.0143667
755.168	0.0143899
755.246	0.0145042
755.325	0.0145496
755.403	0.0145459
755.481	0.0145014
755.559	0.0145319
755.637	0.0145291
755.715	0.0146034
755.793	0.0144983
755.871	0.0143932
755.950	0.0144692
756.028	0.0144667
756.106	0.0144021
756.184	0.0142412
756.262	0.0142313
756.340	0.0142437
756.418	0.0142841
756.496	0.0142995
756.575	0.0142619
756.653	0.0143869
756.731	0.0143206
756.809	0.0141287
756.887	0.0141334
756.965	0.0142577
757.043	0.0140869
757.121	0.0141496
757.200	0.0141183
757.278	0.0141471
757.356	0.0141463
757.434	0.0140020
757.512	0.0140104
757.590	0.0141086
757.668	0.0141713
757.746	0.0142168
757.825	0.0141393
757.903	0.0141524
757.981	0.0143015
758.059	0.0143539
758.137	0.0141785
758.215	0.0142744
758.293	0.0142864
758.371	0.0142953
758.450	0.0143331
758.528	0.0143958
758.606	0.0143018
758.684	0.0144003
758.762	0.0142847
758.840	0.0143853
758.918	0.0145025
758.996	0.0143893
759.075	0.0144933
759.153	0.0143615
759.231	0.0144746
759.309	0.0145369
759.387	0.0144931
759.465	0.0144849
759.543	0.0145003
759.621	0.0142527
759.700	0.0143573
759.778	0.0143394
759.856	0.0144456
759.934	0.0142953
760.012	0.0144409
760.090	0.0142348
760.168	0.0141939
760.246	0.0141850
760.325	0.0141370
760.403	0.0142591
760.481	0.0140545
760.559	0.0140108
760.637	0.0141629
760.715	0.0140174
760.793	0.0141569
760.871	0.0140701
760.950	0.0140507
761.028	0.0140596
761.106	0.0142337
761.184	0.0141467
761.262	0.0143140
761.340	0.0142947
761.418	0.0142648
761.496	0.0141680
761.575	0.0143604
761.653	0.0143051
761.731	0.0143962
761.809	0.0143101
761.887	0.0143641
761.965	0.0143537
762.043	0.0143178
762.121	0.0143774
762.200	0.0143433
762.278	0.0144476
762.356	0.0144197
762.434	0.0143593
762.512	0.0143646
762.590	0.0144035
762.668	0.0142638
762.746	0.0143805
762.825	0.0144017
762.903	0.0143955
762.981	0.0143650
763.059	0.0144175
763.137	0.0143672
763.215	0.0142459
763.293	0.0142371
763.371	0.0143710
763.450	0.0143226
763.528	0.0143460
763.606	0.0141888
763.684	0.0142377
763.762	0.0142410
763.840	0.0142108
763.918	0.0142096
763.996	0.0142451
764.075	0.0141738
764.153	0.0144067
764.231	0.0142909
764.309	0.0141632
764.387	0.0143275
764.465	0.0142819
764.543	0.0142818
764.621	0.0143484
764.700	0.0143397
764.778	0.0143408
764.856	0.0142988
764.934	0.0142206
765.012	0.0142268
765.090	0.0141199
765.168	0.0142295
765.246	0.0141989
765.325	0.0142755
765.403	0.0141045
765.481	0.0141985
765.559	0.0141165
765.637	0.0141027
765.715	0.0142010
765.793	0.0140424
765.871	0.0142765
765.950	0.0144160
766.028	0.0141500
766.106	0.0142851
766.184	0.0144103
766.262	0.0143575
766.340	0.0143888
766.418	0.0143748
766.496	0.0143719
766.575	0.0142486
766.653	0.0143522
766.731	0.0144053
766.809	0.0144926
766.887	0.0144192
766.965	0.0142760
767.043	0.0142860
767.121	0.0143716
767.200	0.0143197
767.278	0.0143491
767.356	0.0143118
767.434	0.0143404
767.512	0.0142450
767.590	0.0143765
767.668	0.0143343
767.746	0.0144373
767.825	0.0141837
767.903	0.0142021
767.981	0.0143059
768.059	0.0142364
768.137	0.0142162
768.215	0.0141864
768.293	0.0141310
768.371	0.0142220
768.450	0.0141624
768.528	0.0141336
768.606	0.0140451
768.684	0.0140479
768.762	0.0141184
768.840	0.0141759
768.918	0.0143098
768.996	0.0141635
769.075	0.0141553
769.153	0.0142131
769.231	0.0142712
769.309	0.0143177
769.387	0.0141899
769.465	0.0142815
769.543	0.0142495
769.621	0.0143667
769.700	0.0143526
769.778	0.0144393
769.856	0.0143851
769.934	0.0142601
770.012	0.0143319
770.090	0.0143140
770.168	0.0143307
770.246	0.0145934
770.325	0.0143828
770.403	0.0144044
770.481	0.0142771
770.559	0.0143452
770.637	0.0143886
770.715	0.0143072
770.793	0.0144048
770.871	0.0143638
770.950	0.0143284
771.028	0.0142924
771.106	0.0145855
771.184	0.0143557
771.262	0.0142382
771.340	0.0143426
771.418	0.0143467
771.496	0.0143283
771.575	0.0143510
771.653	0.0143884
771.731	0.0142962
771.809	0.0142901
771.887	0.0143923
771.965	0.0142091
772.043	0.0141933
772.121	0.0141038
772.200	0.0143661
772.278	0.0142789
772.356	0.0142265
772.434	0.0142088
772.512	0.0143764
772.590	0.0142706
772.668	0.0142227
772.746	0.0141730
772.825	0.0143261
772.903	0.0144700
772.981	0.0142670
773.059	0.0142859
773.137	0.0144831
773.215	0.0143797
773.293	0.0142058
773.371	0.0141666
773.450	0.0142556
773.528	0.0142258
773.606	0.0142198
773.684	0.0142105
773.762	0.0141184
773.840	0.0141690
773.918	0.0143577
773.996	0.0142709
774.075	0.0143584
774.153	0.0143357
774.231	0.0142523
774.309	0.0143149
774.387	0.0143625
774.465	0.0143791
774.543	0.0142314
774.621	0.0143404
774.700	0.0145908
774.778	0.0144221
774.856	0.0144566
774.934	0.0143535
775.012	0.0143909
775.090	0.0143895
775.168	0.0143826
775.246	0.0144667
775.325	0.0143506
775.403	0.0144149
775.481	0.0143881
775.559	0.0143469
775.637	0.0143378
775.715	0.0142013
775.793	0.0141810
775.871	0.0143620
775.950	0.0144593
776.028	0.0143818
776.106	0.0142763
776.184	0.0142404
776.262	0.0143265
776.340	0.0143410
776.418	0.0142459
776.496	0.0142531
776.575	0.0143565
776.653	0.0143705
776.731	0.0142630
776.809	0.0142098
776.887	0.0143258
776.965	0.0143928
777.043	0.0144629
777.121	0.0143658
777.200	0.0142954
777.278	0.0142648
777.356	0.0142783
777.434	0.0143872
777.512	0.0143815
777.590	0.0143480
777.668	0.0141086
777.746	0.0141967
777.825	0.0143525
777.903	0.0144311
777.981	0.0143640
778.059	0.0143047
778.137	0.0141991
778.215	0.0143204
778.293	0.0143229
778.371	0.0143166
778.450	0.0142694
778.528	0.0143423
778.606	0.0143716
778.684	0.0144212
778.762	0.0142300
778.840	0.0142045
778.918	0.0142480
778.996	0.0143221
779.075	0.0144455
779.153	0.0142931
779.231	0.0143775
779.309	0.0142588
779.387	0.0143693
779.465	0.0143360
779.543	0.0144450
779.621	0.0145139
779.700	0.0142713
779.778	0.0144928
779.856	0.0143593
779.934	0.0143954
780.012	0.0144283
780.090	0.0142767
780.168	0.0143272
780.246	0.0142842
780.325	0.0143582
780.403	0.0143685
780.481	0.0143211
780.559	0.0144347
780.637	0.0143574
780.715	0.0142726
780.793	0.0143918
780.871	0.0143588
780.950	0.0141650
781.028	0.0141931
781.106	0.0141953
781.184	0.0142593
781.262	0.0141881
781.340	0.0142307
781.418	0.0142532
781.496	0.0142197
781.575	0.0142458
781.653	0.0141843
781.731	0.0142349
781.809	0.0143350
781.887	0.0142718
781.965	0.0142872
782.043	0.0142981
782.121	0.0143606
782.200	0.0142076
782.278	0.0142667
782.356	0.0143600
782.434	0.0144136
782.512	0.0143476
782.590	0.0142695
782.668	0.0142239
782.746	0.0142572
782.825	0.0141965
782.903	0.0142788
782.981	0.0143551
783.059	0.0142163
783.137	0.0143351
783.215	0.0143816
783.293	0.0143094
783.371	0.0141481
783.450	0.0143137
783.528	0.0142497
783.606	0.0141913
783.684	0.0143333
783.762	0.0143118
783.840	0.0144063
783.918	0.0143697
783.996	0.0142266
784.075	0.0143292
784.153	0.0143536
784.231	0.0143556
784.309	0.0144290
784.387	0.0143335
784.465	0.0143214
784.543	0.0142673
784.621	0.0142680
784.700	0.0143223
784.778	0.0143880
784.856	0.0142290
784.934	0.0141553
785.012	0.0142493
785.090	0.0143329
785.168	0.0143199
785.246	0.0143062
785.325	0.0143246
785.403	0.0141932
785.481	0.0142990
785.559	0.0143280
785.637	0.0143478
785.715	0.0142940
785.793	0.0143195
785.871	0.0142624
785.950	0.0142550
786.028	0.0143375
786.106	0.0142004
786.184	0.0142645
786.262	0.0143204
786.340	0.0141692
786.418	0.0143011
786.496	0.0141467
786.575	0.0142974
786.653	0.0142382
786.731	0.0142689
786.809	0.0143175
786.887	0.0143252
786.965	0.0142339
787.043	0.0142007
787.121	0.0144747
787.200	0.0144330
787.278	0.0143743
787.356	0.0143697
787.434	0.0143990
787.512	0.0144127
787.590	0.0142764
787.668	0.0144073
787.746	0.0141943
787.825	0.0143383
787.903	0.0144635
787.981	0.0143631
788.059	0.0144241
788.137	0.0145013
788.215	0.0144347
788.293	0.0143014
788.371	0.0144106
788.450	0.0142856
788.528	0.0143212
788.606	0.0143252
788.684	0.0143374
788.762	0.0142847
788.840	0.0142849
788.918	0.0141965
788.996	0.0141931
789.075	0.0142974
789.153	0.0142567
789.231	0.0142259
789.309	0.0142310
789.387	0.0142411
789.465	0.0141424
789.543	0.0141476
789.621	0.0143314
789.700	0.0143196
789.778	0.0142826
789.856	0.0142882
789.934	0.0142214
790.012	0.0141512
790.090	0.0143175
790.168	0.0143031
790.246	0.0141313
790.325	0.0141895
790.403	0.0143645
790.481	0.0143784
790.559	0.0142691
790.637	0.0142658
790.715	0.0143142
790.793	0.0143910
790.871	0.0143083
790.950	0.0142664
791.028	0.0144443
791.106	0.0144109
791.184	0.0143163
791.262	0.0143021
791.340	0.0143256
791.418	0.0143971
791.496	0.0142825
791.575	0.0144176
791.653	0.0143268
791.731	0.0142489
791.809	0.0142209
791.887	0.0145184
791.965	0.0144241
792.043	0.0144333
792.121	0.0142896
792.200	0.0143050
792.278	0.0143886
792.356	0.0142826
792.434	0.0142779
792.512	0.0143327
792.590	0.0142609
792.668	0.0141986
792.746	0.0143549
792.825	0.0141876
792.903	0.0143535
792.981	0.0143953
793.059	0.0142815
793.137	0.0142539
793.215	0.0143475
793.293	0.0142551
793.371	0.0143103
793.450	0.0142668
793.528	0.0143215
793.606	0.0142679
793.684	0.0143672
793.762	0.0143603
793.840	0.0141942
793.918	0.0142667
793.996	0.0142751
794.075	0.0142621
794.153	0.0142191
794.231	0.0143417
794.309	0.0143408
794.387	0.0142538
794.465	0.0143359
794.543	0.0142284
794.621	0.0144217
794.700	0.0142973
794.778	0.0142371
794.856	0.0144460
794.934	0.0142458
795.012	0.0142585
795.090	0.0143663
795.168	0.0144090
795.246	0.0143420
795.325	0.0143665
795.403	0.0144229
795.481	0.0142088
795.559	0.0142651
795.637	0.0143434
795.715	0.0143978
795.793	0.0143301
795.871	0.0143366
795.950	0.0143936
796.028	0.0143265
796.106	0.0143152
796.184	0.0142440
796.262	0.0144220
796.340	0.0143476
796.418	0.0143639
796.496	0.0144202
796.575	0.0144085
796.653	0.0143511
796.731	0.0142891
796.809	0.0143161
796.887	0.0143542
796.965	0.0143337
797.043	0.0144218
797.121	0.0143032
797.200	0.0143120
797.278	0.0143552
797.356	0.0142239
797.434	0.0142657
797.512	0.0142442
797.590	0.0143294
797.668	0.0143565
797.746	0.0143640
797.825	0.0141591
797.903	0.0143224
797.981	0.0144058
798.059	0.0142269
798.137	0.0142973
798.215	0.0143459
798.293	0.0143456
798.371	0.0144202
798.450	0.0142707
798.528	0.0143478
798.606	0.0144262
798.684	0.0142584
798.762	0.0142003
798.840	0.0143288
798.918	0.0142997
798.996	0.0143902
799.075	0.0143690
799.153	0.0143903
799.231	0.0143195
799.309	0.0142411
799.387	0.0142914
799.465	0.0143528
799.543	0.0143264
799.621	0.0144346
799.700	0.0143855
799.778	0.0142981
799.856	0.0143951
799.934	0.0142667
800.012	0.0143652
800.090	0.0143568
800.168	0.0142619
800.246	0.0142369
800.325	0.0143606
800.403	0.0142580
800.481	0.0144009
800.559	0.0142614
800.637	0.0141975
800.715	0.0143486
800.793	0.0143195
800.871	0.0142030
800.950	0.0142747
801.028	0.0143685
801.106	0.0144463
801.184	0.0141499
801.262	0.0143536
801.340	0.0143680
801.418	0.0142795
801.496	0.0143482
801.575	0.0142537
801.653	0.0143332
801.731	0.0143139
801.809	0.0142023
801.887	0.0144394
801.965	0.0143399
802.043	0.0142723
802.121	0.0143507
802.200	0.0143266
802.278	0.0142736
802.356	0.0143113
802.434	0.0144714
802.512	0.0144389
802.590	0.0142728
802.668	0.0143822
802.746	0.0144057
802.825	0.0143330
802.903	0.0144273
802.981	0.0144504
803.059	0.0144849
803.137	0.0142887
803.215	0.0143362
803.293	0.0144022
803.371	0.0142228
803.450	0.0142258
803.528	0.0144839
803.606	0.0143916
803.684	0.0143221
803.762	0.0141940
803.840	0.0142598
803.918	0.0143153
803.996	0.0142550
804.075	0.0143091
804.153	0.0144946
804.231	0.0140971
804.309	0.0142905
804.387	0.0144068
804.465	0.0142386
804.543	0.0143271
804.621	0.0142205
804.700	0.0142656
804.778	0.0142352
804.856	0.0144051
804.934	0.0142612
805.012	0.0144107
805.090	0.0143014
805.168	0.0142986
805.246	0.0143464
805.325	0.0143667
805.403	0.0142844
805.481	0.0143855
805.559	0.0144864
805.637	0.0144250
805.715	0.0142570
805.793	0.0144437
805.871	0.0145581
805.950	0.0143124
806.028	0.0141743
806.106	0.0143548
806.184	0.0142728
806.262	0.0141837
806.340	0.0142759
806.418	0.0141586
806.496	0.0142410
806.575	0.0142256
806.653	0.0142532
806.731	0.0141894
806.809	0.0142142
806.887	0.0141988
806.965	0.0142838
807.043	0.0141566
807.121	0.0141680
807.200	0.0141824
807.278	0.0144052
807.356	0.0144317
807.434	0.0143089
807.512	0.0144154
807.590	0.0142403
807.668	0.0142565
807.746	0.0144249
807.825	0.0143880
807.903	0.0142400
807.981	0.0143942
808.059	0.0143139
808.137	0.0144008
808.215	0.0142317
808.293	0.0142655
808.371	0.0144383
808.450	0.0143384
808.528	0.0142665
808.606	0.0142228
808.684	0.0143394
808.762	0.0143989
808.840	0.0143930
808.918	0.0141531
808.996	0.0142936
809.075	0.0142671
809.153	0.0143251
809.231	0.0142159
809.309	0.0143123
809.387	0.0141694
809.465	0.0141264
809.543	0.0142004
809.621	0.0141882
809.700	0.0141517
809.778	0.0142445
809.856	0.0142400
809.934	0.0142420
810.012	0.0142429
810.090	0.0142390
810.168	0.0142518
810.246	0.0143075
810.325	0.0143465
810.403	0.0143201
810.481	0.0144650
810.559	0.0144016
810.637	0.0142813
810.715	0.0143575
810.793	0.0144386
810.871	0.0143735
810.950	0.0143501
811.028	0.0144057
811.106	0.0142992
811.184	0.0144894
811.262	0.0143854
811.340	0.0144319
811.418	0.0142359
811.496	0.0142976
811.575	0.0142425
811.653	0.0144280
811.731	0.0143559
811.809	0.0143574
811.887	0.0142368
811.965	0.0143182
812.043	0.0143825
812.121	0.0141795
812.200	0.0142585
812.278	0.0141882
812.356	0.0141769
812.434	0.0142639
812.512	0.0143121
812.590	0.0142047
812.668	0.0142506
812.746	0.0141766
812.825	0.0140511
812.903	0.0141801
812.981	0.0142218
813.059	0.0141226
813.137	0.0142535
813.215	0.0143332
813.293	0.0141643
813.371	0.0143067
813.450	0.0142654
813.528	0.0142018
813.606	0.0142763
813.684	0.0142352
813.762	0.0143507
813.840	0.0142909
813.918	0.0142421
813.996	0.0143288
814.075	0.0144359
814.153	0.0142390
814.231	0.0141887
814.309	0.0142154
814.387	0.0143992
814.465	0.0143274
814.543	0.0143893
814.621	0.0143162
814.700	0.0142430
814.778	0.0143763
814.856	0.0143866
814.934	0.0143676
815.012	0.0144478
815.090	0.0142342
815.168	0.0143608
815.246	0.0142820
815.325	0.0142268
815.403	0.0143653
815.481	0.0142109
815.559	0.0140945
815.637	0.0141783
815.715	0.0142424
815.793	0.0142941
815.871	0.0140919
815.950	0.0141154
816.028	0.0142450
816.106	0.0142374
816.184	0.0141866
816.262	0.0141894
816.340	0.0142549
816.418	0.0142519
816.496	0.0143378
816.575	0.0142822
816.653	0.0143419
816.731	0.0143059
816.809	0.0143606
816.887	0.0143699
816.965	0.0143682
817.043	0.0143624
817.121	0.0143661
817.200	0.0143989
817.278	0.0144089
817.356	0.0143392
817.434	0.0144372
817.512	0.0145889
817.590	0.0143641
817.668	0.0142538
817.746	0.0142174
817.825	0.0142490
817.903	0.0143269
817.981	0.0141184
818.059	0.0142526
818.137	0.0142425
818.215	0.0140999
818.293	0.0142602
818.371	0.0143554
818.450	0.0140908
818.528	0.0142473
818.606	0.0143491
818.684	0.0144669
818.762	0.0144052
818.840	0.0142098
818.918	0.0142210
818.996	0.0144130
819.075	0.0142303
819.153	0.0143659
819.231	0.0144476
819.309	0.0144524
819.387	0.0143579
819.465	0.0143076
819.543	0.0142353
819.621	0.0142937
819.700	0.0143223
819.778	0.0143453
819.856	0.0143918
819.934	0.0142791
820.012	0.0144072
820.090	0.0144464
820.168	0.0143637
820.246	0.0143602
820.325	0.0144366
820.403	0.0143012
820.481	0.0142385
820.559	0.0141450
820.637	0.0141142
820.715	0.0143519
820.793	0.0141854
820.871	0.0142690
820.950	0.0143118
821.028	0.0141985
821.106	0.0141416
821.184	0.0143520
821.262	0.0143813
821.340	0.0142715
821.418	0.0141819
821.496	0.0143391
821.575	0.0143203
821.653	0.0142825
821.731	0.0144273
821.809	0.0142817
821.887	0.0143600
821.965	0.0142328
822.043	0.0141667
822.121	0.0143649
822.200	0.0142896
822.278	0.0142532
822.356	0.0141408
822.434	0.0142653
822.512	0.0142742
822.590	0.0143250
822.668	0.0143748
822.746	0.0143391
822.825	0.0143430
822.903	0.0142640
822.981	0.0142572
823.059	0.0143374
823.137	0.0142556
823.215	0.0144794
823.293	0.0144958
823.371	0.0143185
823.450	0.0142992
823.528	0.0143993
823.606	0.0143679
823.684	0.0143195
823.762	0.0143512
823.840	0.0141840
823.918	0.0142988
823.996	0.0142655
824.075	0.0143225
824.153	0.0143050
824.231	0.0144755
824.309	0.0142900
824.387	0.0141563
824.465	0.0141766
824.543	0.0142142
824.621	0.0142616
824.700	0.0142986
824.778	0.0143842
824.856	0.0143707
824.934	0.0142613
825.012	0.0143639
825.090	0.0141595
825.168	0.0141086
825.246	0.0143040
825.325	0.0141377
825.403	0.0141803
825.481	0.0142206
825.559	0.0142267
825.637	0.0142434
825.715	0.0142756
825.793	0.0143258
825.871	0.0143081
825.950	0.0143075
826.028	0.0144309
826.106	0.0142523
826.184	0.0143303
826.262	0.0143255
826.340	0.0144715
826.418	0.0144792
826.496	0.0142618
826.575	0.0144759
826.653	0.0142169
826.731	0.0143881
826.809	0.0143652
826.887	0.0143380
826.965	0.0142453
827.043	0.0143258
827.121	0.0142253
827.200	0.0142417
827.278	0.0141621
827.356	0.0143796
827.434	0.0143182
827.512	0.0141940
827.590	0.0141833
827.668	0.0142094
827.746	0.0142108
827.825	0.0142710
827.903	0.0142056
827.981	0.0141344
828.059	0.0139984
828.137	0.0141501
828.215	0.0142123
828.293	0.0141753
828.371	0.0140547
828.450	0.0141351
828.528	0.0141769
828.606	0.0142092
828.684	0.0141801
828.762	0.0142677
828.840	0.0141919
828.918	0.0143237
828.996	0.0142774
829.075	0.0141547
829.153	0.0142845
829.231	0.0142782
829.309	0.0142500
829.387	0.0142379
829.465	0.0142635
829.543	0.0142945
829.621	0.0141199
829.700	0.0141801
829.778	0.0143570
829.856	0.0143745
829.934	0.0142261
830.012	0.0141743
830.090	0.0141914
830.168	0.0144485
830.246	0.0142549
830.325	0.0141521
830.403	0.0143617
830.481	0.0142310
830.559	0.0142800
830.637	0.0143288
830.715	0.0142463
830.793	0.0144456
830.871	0.0142884
830.950	0.0143869
831.028	0.0143478
831.106	0.0144285
831.184	0.0143299
831.262	0.0142929
831.340	0.0143835
831.418	0.0143587
831.496	0.0143041
831.575	0.0143124
831.653	0.0143967
831.731	0.0142676
831.809	0.0143404
831.887	0.0143074
831.965	0.0142207
832.043	0.0141661
832.121	0.0144056
832.200	0.0144069
832.278	0.0142168
832.356	0.0141529
832.434	0.0143008
832.512	0.0142002
832.590	0.0142382
832.668	0.0142380
832.746	0.0142234
832.825	0.0141664
832.903	0.0143356
832.981	0.0144475
833.059	0.0141689
833.137	0.0141327
833.215	0.0142619
833.293	0.0143086
833.371	0.0143267
833.450	0.0142420
833.528	0.0143961
833.606	0.0142700
833.684	0.0142636
833.762	0.0143720
833.840	0.0144410
833.918	0.0141821
833.996	0.0143122
834.075	0.0143011
834.153	0.0143280
834.231	0.0144117
834.309	0.0142323
834.387	0.0143806
834.465	0.0143832
834.543	0.0143831
834.621	0.0143703
834.700	0.0143211
834.778	0.0141786
834.856	0.0143877
834.934	0.0143312
835.012	0.0142480
835.090	0.0142539
835.168	0.0143605
835.246	0.0143177
835.325	0.0142565
835.403	0.0142783
835.481	0.0144142
835.559	0.0143899
835.637	0.0142194
835.715	0.0142299
835.793	0.0141692
835.871	0.0141592
835.950	0.0141934
836.028	0.0142744
836.106	0.0142688
836.184	0.0142603
836.262	0.0142832
836.340	0.0142424
836.418	0.0142530
836.496	0.0142380
836.575	0.0143216
836.653	0.0142962
836.731	0.0141820
836.809	0.0140948
836.887	0.0140807
836.965	0.0141962
837.043	0.0141216
837.121	0.0143012
837.200	0.0142427
837.278	0.0141093
837.356	0.0141629
837.434	0.0142709
837.512	0.0143063
837.590	0.0142277
837.668	0.0141999
837.746	0.0141891
837.825	0.0142523
837.903	0.0141904
837.981	0.0142354
838.059	0.0142734
838.137	0.0142381
838.215	0.0142369
838.293	0.0143571
838.371	0.0144355
838.450	0.0143160
838.528	0.0143357
838.606	0.0143755
838.684	0.0142721
838.762	0.0143931
838.840	0.0143239
838.918	0.0143575
838.996	0.0143861
839.075	0.0144425
839.153	0.0142817
839.231	0.0143815
839.309	0.0144373
839.387	0.0142276
839.465	0.0142615
839.543	0.0142760
839.621	0.0141863
839.700	0.0141592
839.778	0.0141878
839.856	0.0142048
839.934	0.0143289
840.012	0.0142047
840.090	0.0141148
840.168	0.0143039
840.246	0.0142397
840.325	0.0141418
840.403	0.0142995
840.481	0.0142221
840.559	0.0142011
840.637	0.0141506
840.715	0.0142642
840.793	0.0142285
840.871	0.0143325
840.950	0.0143570
841.028	0.0143998
841.106	0.0142776
841.184	0.0143614
841.262	0.0143016
841.340	0.0142352
841.418	0.0142999
841.496	0.0142349
841.575	0.0143899
841.653	0.0143714
841.731	0.0144876
841.809	0.0141544
841.887	0.0143336
841.965	0.0144141
842.043	0.0143686
842.121	0.0143359
842.200	0.0140209
842.278	0.0141301
842.356	0.0142926
842.434	0.0141666
842.512	0.0141262
842.590	0.0142616
842.668	0.0142747
842.746	0.0142886
842.825	0.0140641
842.903	0.0141770
842.981	0.0142941
843.059	0.0142392
843.137	0.0142159
843.215	0.0143484
843.293	0.0143376
843.371	0.0143113
843.450	0.0142638
843.528	0.0143284
843.606	0.0142661
843.684	0.0143106
843.762	0.0143764
843.840	0.0143961
843.918	0.0143661
843.996	0.0142812
844.075	0.0143716
844.153	0.0144214
844.231	0.0143448
844.309	0.0143430
844.387	0.0143099
844.465	0.0144578
844.543	0.0145020
844.621	0.0144773
844.700	0.0142336
844.778	0.0143138
844.856	0.0142574
844.934	0.0143002
845.012	0.0144955
845.090	0.0142102
845.168	0.0142334
845.246	0.0143100
845.325	0.0142558
845.403	0.0142376
845.481	0.0142500
845.559	0.0142358
845.637	0.0141484
845.715	0.0141467
845.793	0.0142703
845.871	0.0142970
845.950	0.0142831
846.028	0.0143336
846.106	0.0142542
846.184	0.0141486
846.262	0.0144016
846.340	0.0142656
846.418	0.0143297
846.496	0.0144159
846.575	0.0143552
846.653	0.0144228
846.731	0.0142776
846.809	0.0143181
846.887	0.0142295
846.965	0.0142519
847.043	0.0143675
847.121	0.0144143
847.200	0.0143465
847.278	0.0143200
847.356	0.0142261
847.434	0.0143764
847.512	0.0143233
847.590	0.0142425
847.668	0.0143682
847.746	0.0143274
847.825	0.0142708
847.903	0.0143999
847.981	0.0144887
848.059	0.0143328
848.137	0.0143008
848.215	0.0143724
848.293	0.0142830
848.371	0.0142049
848.450	0.0144065
848.528	0.0143530
848.606	0.0142480
848.684	0.0143125
848.762	0.0142664
848.840	0.0143852
848.918	0.0142126
848.996	0.0143015
849.075	0.0142474
849.153	0.0143269
849.231	0.0142329
849.309	0.0143646
849.387	0.0144405
849.465	0.0142085
849.543	0.0142622
849.621	0.0144084
849.700	0.0142016
849.778	0.0142496
849.856	0.0142383
849.934	0.0141784
850.012	0.0142268
850.090	0.0142045
850.168	0.0143030
850.246	0.0143396
850.325	0.0143920
850.403	0.0142709
850.481	0.0143456
850.559	0.0142748
850.637	0.0143986
850.715	0.0142006
850.793	0.0142419
850.871	0.0142030
850.950	0.0143703
851.028	0.0142325
851.106	0.0142686
851.184	0.0142577
851.262	0.0143025
851.340	0.0143816
851.418	0.0143150
851.496	0.0142209
851.575	0.0143515
851.653	0.0144952
851.731	0.0141645
851.809	0.0142574
851.887	0.0143197
851.965	0.0143398
852.043	0.0142975
852.121	0.0142695
852.200	0.0142917
852.278	0.0143639
852.356	0.0141825
852.434	0.0142563
852.512	0.0143144
852.590	0.0143880
852.668	0.0141922
852.746	0.0143066
852.825	0.0141570
852.903	0.0142490
852.981	0.0144115
853.059	0.0143250
853.137	0.0143763
853.215	0.0143066
853.293	0.0143143
853.371	0.0140830
853.450	0.0143238
853.528	0.0142621
853.606	0.0143920
853.684	0.0140712
853.762	0.0142338
853.840	0.0142893
853.918	0.0142314
853.996	0.0141628
854.075	0.0139911
854.153	0.0140961
854.231	0.0142139
854.309	0.0141145
854.387	0.0142064
854.465	0.0141105
854.543	0.0143226
854.621	0.0142063
854.700	0.0141974
854.778	0.0142106
854.856	0.0142244
854.934	0.0141404
855.012	0.0143037
855.090	0.0141743
855.168	0.0141923
855.246	0.0142521
855.325	0.0144293
855.403	0.0143438
855.481	0.0143089
855.559	0.0142059
855.637	0.0142062
855.715	0.0143213
855.793	0.0143710
855.871	0.0143865
855.950	0.0143392
856.028	0.0142348
856.106	0.0143210
856.184	0.0142904
856.262	0.0145159
856.340	0.0144307
856.418	0.0142277
856.496	0.0141469
856.575	0.0143484
856.653	0.0143782
856.731	0.0141438
856.809	0.0142760
856.887	0.0143696
856.965	0.0142510
857.043	0.0142464
857.121	0.0142559
857.200	0.0142214
857.278	0.0143442
857.356	0.0141903
857.434	0.0142554
857.512	0.0141940
857.590	0.0143095
857.668	0.0142118
857.746	0.0141509
857.825	0.0142942
857.903	0.0142975
857.981	0.0140260
858.059	0.0141161
858.137	0.0143390
858.215	0.0140958
858.293	0.0142670
858.371	0.0142100
858.450	0.0142996
858.528	0.0142718
858.606	0.0142120
858.684	0.0142649
858.762	0.0141608
858.840	0.0141557
858.918	0.0142111
858.996	0.0140690
859.075	0.0141660
859.153	0.0142107
859.231	0.0142458
859.309	0.0142084
859.387	0.0140958
859.465	0.0141959
859.543	0.0142950
859.621	0.0140767
859.700	0.0142801
859.778	0.0144347
859.856	0.0142095
859.934	0.0143000
860.012	0.0143431
860.090	0.0143471
860.168	0.0143733
860.246	0.0141404
860.325	0.0144103
860.403	0.0143553
860.481	0.0143745
860.559	0.0142142
860.637	0.0142503
860.715	0.0143137
860.793	0.0141213
860.871	0.0142071
860.950	0.0142081
861.028	0.0142688
861.106	0.0141455
861.184	0.0141591
861.262	0.0142356
861.340	0.0142636
861.418	0.0142087
861.496	0.0141461
861.575	0.0142443
861.653	0.0142184
861.731	0.0143665
861.809	0.0141882
861.887	0.0141195
861.965	0.0143176
862.043	0.0141817
862.121	0.0143188
862.200	0.0142145
862.278	0.0141448
862.356	0.0141636
862.434	0.0142270
862.512	0.0142536
862.590	0.0142002
862.668	0.0142155
862.746	0.0142599
862.825	0.0141728
862.903	0.0142511
862.981	0.0142619
863.059	0.0141608
863.137	0.0142572
863.215	0.0142830
863.293	0.0143721
863.371	0.0143365
863.450	0.0141244
863.528	0.0142019
863.606	0.0143117
863.684	0.0143165
863.762	0.0142825
863.840	0.0142411
863.918	0.0141701
863.996	0.0143185
864.075	0.0142290
864.153	0.0143130
864.231	0.0142982
864.309	0.0143198
864.387	0.0143913
864.465	0.0142590
864.543	0.0141402
864.621	0.0141948
864.700	0.0142752
864.778	0.0143845
864.856	0.0142705
864.934	0.0143140
865.012	0.0142160
865.090	0.0142873
865.168	0.0142805
865.246	0.0142989
865.325	0.0142354
865.403	0.0142213
865.481	0.0141767
865.559	0.0143462
865.637	0.0143304
865.715	0.0143089
865.793	0.0142817
865.871	0.0142738
865.950	0.0142847
866.028	0.0141428
866.106	0.0142480
866.184	0.0143555
866.262	0.0142863
866.340	0.0141261
866.418	0.0143633
866.496	0.0141947
866.575	0.0141142
866.653	0.0142685
866.731	0.0142348
866.809	0.0141892
866.887	0.0141968
866.965	0.0142684
867.043	0.0142307
867.121	0.0141515
867.200	0.0143516
867.278	0.0142273
867.356	0.0142407
867.434	0.0143626
867.512	0.0143072
867.590	0.0143758
867.668	0.0142940
867.746	0.0142357
867.825	0.0143015
867.903	0.0143372
867.981	0.0142361
868.059	0.0142878
868.137	0.0143617
868.215	0.0143172
868.293	0.0142190
868.371	0.0142751
868.450	0.0143448
868.528	0.0142523
868.606	0.0143213
868.684	0.0143005
868.762	0.0142653
868.840	0.0142799
868.918	0.0142332
868.996	0.0143346
869.075	0.0143713
869.153	0.0143398
869.231	0.0143120
869.309	0.0144167
869.387	0.0143150
869.465	0.0142938
869.543	0.0142386
869.621	0.0144042
869.700	0.0143472
869.778	0.0142531
869.856	0.0141573
869.934	0.0140787
870.012	0.0144037
870.090	0.0141837
870.168	0.0140632
870.246	0.0142239
870.325	0.0144003
870.403	0.0142188
870.481	0.0142399
870.559	0.0143722
870.637	0.0142470
870.715	0.0143388
870.793	0.0142070
870.871	0.0143975
870.950	0.0142444
871.028	0.0140807
871.106	0.0142637
871.184	0.0144848
871.262	0.0143310
871.340	0.0142605
871.418	0.0143760
871.496	0.0142374
871.575	0.0142371
871.653	0.0144115
871.731	0.0142290
871.809	0.0142909
871.887	0.0143443
871.965	0.0143919
872.043	0.0143040
872.121	0.0143668
872.200	0.0144598
872.278	0.0141884
872.356	0.0142961
872.434	0.0143582
872.512	0.0141962
872.590	0.0143956
872.668	0.0143188
872.746	0.0143152
872.825	0.0143359
872.903	0.0142766
872.981	0.0142647
873.059	0.0142984
873.137	0.0141494
873.215	0.0142516
873.293	0.0143279
873.371	0.0141582
873.450	0.0142731
873.528	0.0143366
873.606	0.0143271
873.684	0.0143303
873.762	0.0143456
873.840	0.0142115
873.918	0.0143713
873.996	0.0143494
874.075	0.0143217
874.153	0.0143079
874.231	0.0143224
874.309	0.0143005
874.387	0.0142484
874.465	0.0141861
874.543	0.0143986
874.621	0.0144688
874.700	0.0142782
874.778	0.0142869
874.856	0.0142549
874.934	0.0143036
875.012	0.0142471
875.090	0.0143571
875.168	0.0143840
875.246	0.0143950
875.325	0.0142171
875.403	0.0142391
875.481	0.0142294
875.559	0.0143070
875.637	0.0142134
875.715	0.0142692
875.793	0.0142287
875.871	0.0141687
875.950	0.0141365
876.028	0.0143127
876.106	0.0142992
876.184	0.0142999
876.262	0.0143336
876.340	0.0143282
876.418	0.0142439
876.496	0.0143410
876.575	0.0144183
876.653	0.0142387
876.731	0.0142683
876.809	0.0142957
876.887	0.0143398
876.965	0.0141891
877.043	0.0142570
877.121	0.0142083
877.200	0.0143226
877.278	0.0142783
877.356	0.0143610
877.434	0.0142226
877.512	0.0143507
877.590	0.0143351
877.668	0.0143734
877.746	0.0143763
877.825	0.0142942
877.903	0.0142735
877.981	0.0142503
878.059	0.0143332
878.137	0.0144498
878.215	0.0143214
878.293	0.0141952
878.371	0.0141895
878.450	0.0142759
878.528	0.0142621
878.606	0.0143851
878.684	0.0143425
878.762	0.0143475
878.840	0.0143033
878.918	0.0142447
878.996	0.0142662
879.075	0.0144017
879.153	0.0143402
879.231	0.0143722
879.309	0.0144534
879.387	0.0143039
879.465	0.0143274
879.543	0.0143330
879.621	0.0145233
879.700	0.0143840
879.778	0.0143563
879.856	0.0144067
879.934	0.0143665
880.012	0.0143259
880.090	0.0142522
880.168	0.0143022
880.246	0.0143925
880.325	0.0144429
880.403	0.0143859
880.481	0.0143146
880.559	0.0143155
880.637	0.0142664
880.715	0.0142796
880.793	0.0143157
880.871	0.0141497
880.950	0.0143748
881.028	0.0143282
881.106	0.0143704
881.184	0.0141759
881.262	0.0142762
881.340	0.0141337
881.418	0.0142771
881.496	0.0141007
881.575	0.0142758
881.653	0.0143320
881.731	0.0143464
881.809	0.0141972
881.887	0.0142162
881.965	0.0143195
882.043	0.0143925
882.121	0.0141941
882.200	0.0143794
882.278	0.0143279
882.356	0.0142673
882.434	0.0143785
882.512	0.0143546
882.590	0.0144057
882.668	0.0143302
882.746	0.0143653
882.825	0.0143982
882.903	0.0143550
882.981	0.0142052
883.059	0.0142287
883.137	0.0142763
883.215	0.0143470
883.293	0.0143410
883.371	0.0144306
883.450	0.0142265
883.528	0.0141952
883.606	0.0141202
883.684	0.0142089
883.762	0.0142708
883.840	0.0141969
883.918	0.0142534
883.996	0.0141470
884.075	0.0142513
884.153	0.0143569
884.231	0.0143181
884.309	0.0142412
884.387	0.0142760
884.465	0.0143919
884.543	0.0144462
884.621	0.0144505
884.700	0.0144801
884.778	0.0144451
884.856	0.0144162
884.934	0.0143123
885.012	0.0145007
885.090	0.0144823
885.168	0.0143827
885.246	0.0142226
885.325	0.0142835
885.403	0.0142997
885.481	0.0141946
885.559	0.0141191
885.637	0.0141454
885.715	0.0142554
885.793	0.0141940
885.871	0.0141393
885.950	0.0141638
886.028	0.0145067
886.106	0.0141875
886.184	0.0140407
886.262	0.0142543
886.340	0.0143730
886.418	0.0142596
886.496	0.0142850
886.575	0.0142287
886.653	0.0144166
886.731	0.0143218
886.809	0.0143071
886.887	0.0144888
886.965	0.0142818
887.043	0.0143566
887.121	0.0143192
887.200	0.0144957
887.278	0.0143777
887.356	0.0143587
887.434	0.0144204
887.512	0.0143983
887.590	0.0143034
887.668	0.0144492
887.746	0.0142587
887.825	0.0144370
887.903	0.0143134
887.981	0.0144188
888.059	0.0141288
888.137	0.0143131
888.215	0.0142738
888.293	0.0142261
888.371	0.0142950
888.450	0.0141652
888.528	0.0142129
888.606	0.0141361
888.684	0.0142736
888.762	0.0144752
888.840	0.0144324
888.918	0.0142857
888.996	0.0143700
889.075	0.0143169
889.153	0.0143157
889.231	0.0144221
889.309	0.0144260
889.387	0.0142641
889.465	0.0143218
889.543	0.0143216
889.621	0.0142619
889.700	0.0142358
889.778	0.0143146
889.856	0.0143756
889.934	0.0144183
890.012	0.0143582
890.090	0.0144607
890.168	0.0144676
890.246	0.0145919
890.325	0.0144791
890.403	0.0144791
890.481	0.0144614
890.559	0.0144886
890.637	0.0143356
890.715	0.0143958
890.793	0.0142002
890.871	0.0143242
890.950	0.0142514
891.028	0.0143292
891.106	0.0143140
891.184	0.0143228
891.262	0.0142918
891.340	0.0142222
891.418	0.0142204
891.496	0.0142998
891.575	0.0142905
891.653	0.0143512
891.731	0.0142483
891.809	0.0143051
891.887	0.0143859
891.965	0.0143834
892.043	0.0144543
892.121	0.0142846
892.200	0.0142255
892.278	0.0142727
892.356	0.0141335
892.434	0.0143592
892.512	0.0143835
892.590	0.0142979
892.668	0.0143471
892.746	0.0144222
892.825	0.0143470
892.903	0.0143697
892.981	0.0142058
893.059	0.0141778
893.137	0.0144046
893.215	0.0142320
893.293	0.0143883
893.371	0.0142564
893.450	0.0141657
893.528	0.0143085
893.606	0.0142498
893.684	0.0143797
893.762	0.0142988
893.840	0.0141863
893.918	0.0144145
893.996	0.0144404
894.075	0.0142499
894.153	0.0140266
894.231	0.0142233
894.309	0.0143307
894.387	0.0142384
894.465	0.0143416
894.543	0.0143578
894.621	0.0143552
894.700	0.0144566
894.778	0.0144272
894.856	0.0143740
894.934	0.0143400
895.012	0.0144974
895.090	0.0143475
895.168	0.0143790
895.246	0.0142996
895.325	0.0142432
895.403	0.0143388
895.481	0.0144533
895.559	0.0142683
895.637	0.0143421
895.715	0.0143362
895.793	0.0142281
895.871	0.0142700
895.950	0.0142229
896.028	0.0143163
896.106	0.0142747
896.184	0.0143352
896.262	0.0142941
896.340	0.0143950
896.418	0.0142865
896.496	0.0143391
896.575	0.0142526
896.653	0.0142921
896.731	0.0144093
896.809	0.0143037
896.887	0.0142101
896.965	0.0142018
897.043	0.0142023
897.121	0.0142125
897.200	0.0141510
897.278	0.0141243
897.356	0.0141793
897.434	0.0141676
897.512	0.0142449
897.590	0.0141153
897.668	0.0143515
897.746	0.0142830
897.825	0.0143444
897.903	0.0142262
897.981	0.0141764
898.059	0.0142973
898.137	0.0141730
898.215	0.0143149
898.293	0.0142970
898.371	0.0143028
898.450	0.0142599
898.528	0.0142440
898.606	0.0143186
898.684	0.0144108
898.762	0.0143550
898.840	0.0143408
898.918	0.0142265
898.996	0.0142603
899.075	0.0143002
899.153	0.0142471
899.231	0.0142206
899.309	0.0144061
899.387	0.0143223
899.465	0.0143230
899.543	0.0143324
899.621	0.0142194
899.700	0.0142989
899.778	0.0143526
899.856	0.0142126
899.934	0.0142460
900.012	0.0141988
900.090	0.0142538
900.168	0.0142574
900.246	0.0141743
900.325	0.0142722
900.403	0.0142114
900.481	0.0140994
900.559	0.0141327
900.637	0.0142879
900.715	0.0141928
900.793	0.0141571
900.871	0.0141942
900.950	0.0142449
901.028	0.0142039
901.106	0.0142275
901.184	0.0143736
901.262	0.0143651
901.340	0.0142831
901.418	0.0144393
901.496	0.0143732
901.575	0.0143167
901.653	0.0142438
901.731	0.0144561
901.809	0.0144615
901.887	0.0142688
901.965	0.0142126
902.043	0.0142451
902.121	0.0141911
902.200	0.0140994
902.278	0.0141463
902.356	0.0142760
902.434	0.0142601
902.512	0.0141763
902.590	0.0142171
902.668	0.0143852
902.746	0.0143925
902.825	0.0142968
902.903	0.0144024
902.981	0.0144033
903.059	0.0145170
903.137	0.0143171
903.215	0.0143779
903.293	0.0142935
903.371	0.0142072
903.450	0.0143623
903.528	0.0142408
903.606	0.0143325
903.684	0.0142460
903.762	0.0141744
903.840	0.0141750
903.918	0.0142705
903.996	0.0142165
904.075	0.0142083
904.153	0.0143134
904.231	0.0141299
904.309	0.0142316
904.387	0.0142582
904.465	0.0142763
904.543	0.0142746
904.621	0.0142919
904.700	0.0142541
904.778	0.0141837
904.856	0.0142747
904.934	0.0142264
905.012	0.0141399
905.090	0.0141775
905.168	0.0141689
905.246	0.0144639
905.325	0.0143182
905.403	0.0142232
905.481	0.0144505
905.559	0.0142692
905.637	0.0144071
905.715	0.0144382
905.793	0.0143229
905.871	0.0144257
905.950	0.0144374
906.028	0.0144303
906.106	0.0143664
906.184	0.0143923
906.262	0.0142878
906.340	0.0143475
906.418	0.0144054
906.496	0.0142862
906.575	0.0143692
906.653	0.0141837
906.731	0.0142834
906.809	0.0142318
906.887	0.0143659
906.965	0.0143080
907.043	0.0142484
907.121	0.0141197
907.200	0.0142525
907.278	0.0143056
907.356	0.0142532
907.434	0.0144080
907.512	0.0141888
907.590	0.0143004
907.668	0.0143172
907.746	0.0144107
907.825	0.0143179
907.903	0.0142971
907.981	0.0142616
908.059	0.0141685
908.137	0.0142028
908.215	0.0142193
908.293	0.0141843
908.371	0.0144469
908.450	0.0142889
908.528	0.0142542
908.606	0.0142339
908.684	0.0143881
908.762	0.0144342
908.840	0.0143648
908.918	0.0142908
908.996	0.0145169
909.075	0.0143746
909.153	0.0144608
909.231	0.0144678
909.309	0.0143862
909.387	0.0144636
909.465	0.0142691
909.543	0.0142687
909.621	0.0144669
909.700	0.0144070
909.778	0.0142701
909.856	0.0142897
909.934	0.0142467
910.012	0.0143336
910.090	0.0142528
910.168	0.0142113
910.246	0.0143361
910.325	0.0142187
910.403	0.0141795
910.481	0.0142891
910.559	0.0143751
910.637	0.0143266
910.715	0.0143390
910.793	0.0144003
910.871	0.0143754
910.950	0.0143388
911.028	0.0143408
911.106	0.0143351
911.184	0.0143123
911.262	0.0143850
911.340	0.0142544
911.418	0.0143734
911.496	0.0142908
911.575	0.0143694
911.653	0.0144642
911.731	0.0142644
911.809	0.0141464
911.887	0.0142980
911.965	0.0143222
912.043	0.0144750
912.121	0.0142914
912.200	0.0145636
912.278	0.0144323
912.356	0.0143755
912.434	0.0144282
912.512	0.0144451
912.590	0.0143203
912.668	0.0144765
912.746	0.0143565
912.825	0.0142544
912.903	0.0143488
912.981	0.0144072
913.059	0.0143249
913.137	0.0143288
913.215	0.0144273
913.293	0.0143152
913.371	0.0143780
913.450	0.0143563
913.528	0.0143981
913.606	0.0143591
913.684	0.0143143
913.762	0.0144271
913.840	0.0144427
913.918	0.0142631
913.996	0.0144317
914.075	0.0144592
914.153	0.0143673
914.231	0.0143260
914.309	0.0141799
914.387	0.0142895
914.465	0.0143016
914.543	0.0143015
914.621	0.0141579
914.700	0.0141785
914.778	0.0141973
914.856	0.0142216
914.934	0.0142111
915.012	0.0142007
915.090	0.0142611
915.168	0.0142813
915.246	0.0142669
915.325	0.0143120
915.403	0.0143525
915.481	0.0143897
915.559	0.0143579
915.637	0.0143723
915.715	0.0143684
915.793	0.0143496
915.871	0.0143441
915.950	0.0142159
916.028	0.0143382
916.106	0.0143032
916.184	0.0142799
916.262	0.0144447
916.340	0.0142982
916.418	0.0142407
916.496	0.0144024
916.575	0.0142698
916.653	0.0142863
916.731	0.0144402
916.809	0.0142745
916.887	0.0143803
916.965	0.0142849
917.043	0.0144363
917.121	0.0143890
917.200	0.0142643
917.278	0.0143253
917.356	0.0143591
917.434	0.0142487
917.512	0.0142784
917.590	0.0143020
917.668	0.0143160
917.746	0.0142049
917.825	0.0142404
917.903	0.0143937
917.981	0.0143141
918.059	0.0142280
918.137	0.0142150
918.215	0.0143412
918.293	0.0142891
918.371	0.0142202
918.450	0.0143561
918.528	0.0144341
918.606	0.0141720
918.684	0.0141459
918.762	0.0143089
918.840	0.0142806
918.918	0.0142846
918.996	0.0142574
919.075	0.0141809
919.153	0.0140511
919.231	0.0142218
919.309	0.0144156
919.387	0.0141248
919.465	0.0142702
919.543	0.0143365
919.621	0.0142052
919.700	0.0142796
919.778	0.0143711
919.856	0.0144234
919.934	0.0143779
920.012	0.0142673
920.090	0.0143305
920.168	0.0143439
920.246	0.0143987
920.325	0.0145492
920.403	0.0145200
920.481	0.0143272
920.559	0.0142116
920.637	0.0142542
920.715	0.0142842
920.793	0.0142086
920.871	0.0142189
920.950	0.0142442
921.028	0.0142620
921.106	0.0142413
921.184	0.0141856
921.262	0.0142097
921.340	0.0142185
921.418	0.0143320
921.496	0.0144243
921.575	0.0143325
921.653	0.0142712
921.731	0.0143147
921.809	0.0142974
921.887	0.0143072
921.965	0.0142556
922.043	0.0142894
922.121	0.0142992
922.200	0.0143089
922.278	0.0142638
922.356	0.0143391
922.434	0.0141638
922.512	0.0142670
922.590	0.0143962
922.668	0.0143137
922.746	0.0143364
922.825	0.0143800
922.903	0.0143752
922.981	0.0142856
923.059	0.0144391
923.137	0.0142750
923.215	0.0142663
923.293	0.0141026
923.371	0.0141833
923.450	0.0142883
923.528	0.0142941
923.606	0.0141959
923.684	0.0142500
923.762	0.0143017
923.840	0.0142603
923.918	0.0142342
923.996	0.0143192
924.075	0.0143430
924.153	0.0143640
924.231	0.0142405
924.309	0.0143958
924.387	0.0142753
924.465	0.0142420
924.543	0.0142102
924.621	0.0142976
924.700	0.0141869
924.778	0.0140975
924.856	0.0142269
924.934	0.0141639
925.012	0.0142200
925.090	0.0141984
925.168	0.0141959
925.246	0.0143436
925.325	0.0141842
925.403	0.0143486
925.481	0.0141984
925.559	0.0142618
925.637	0.0143378
925.715	0.0143642
925.793	0.0142708
925.871	0.0142645
925.950	0.0144366
926.028	0.0144094
926.106	0.0143147
926.184	0.0142492
926.262	0.0142988
926.340	0.0143488
926.418	0.0143022
926.496	0.0143113
926.575	0.0141926
926.653	0.0142617
926.731	0.0142807
926.809	0.0143516
926.887	0.0142969
926.965	0.0143176
927.043	0.0142042
927.121	0.0142488
927.200	0.0142703
927.278	0.0142667
927.356	0.0142110
927.434	0.0143343
927.512	0.0139276
927.590	0.0142142
927.668	0.0143263
927.746	0.0141531
927.825	0.0140732
927.903	0.0142449
927.981	0.0142934
928.059	0.0142461
928.137	0.0142856
928.215	0.0143033
928.293	0.0141357
928.371	0.0143618
928.450	0.0143569
928.528	0.0142780
928.606	0.0141009
928.684	0.0142251
928.762	0.0143445
928.840	0.0144998
928.918	0.0142118
928.996	0.0142984
929.075	0.0143893
929.153	0.0142927
929.231	0.0140549
929.309	0.0143346
929.387	0.0143781
929.465	0.0142481
929.543	0.0142840
929.621	0.0143565
929.700	0.0143611
929.778	0.0143717
929.856	0.0142484
929.934	0.0142735
930.012	0.0142673
930.090	0.0142870
930.168	0.0143156
930.246	0.0142546
930.325	0.0142271
930.403	0.0143168
930.481	0.0142564
930.559	0.0142877
930.637	0.0142412
930.715	0.0141283
930.793	0.0141500
930.871	0.0142633
930.950	0.0142277
931.028	0.0142387
931.106	0.0141338
931.184	0.0143645
931.262	0.0143635
931.340	0.0141644
931.418	0.0142812
931.496	0.0143156
931.575	0.0142529
931.653	0.0143217
931.731	0.0143586
931.809	0.0144331
931.887	0.0142300
931.965	0.0141895
932.043	0.0143240
932.121	0.0142508
932.200	0.0142352
932.278	0.0143562
932.356	0.0143073
932.434	0.0143606
932.512	0.0143971
932.590	0.0144203
932.668	0.0142400
932.746	0.0142385
932.825	0.0142491
932.903	0.0144216
932.981	0.0143444
933.059	0.0143169
933.137	0.0142921
933.215	0.0144103
933.293	0.0143126
933.371	0.0142803
933.450	0.0142311
933.528	0.0143662
933.606	0.0144032
933.684	0.0144450
933.762	0.0143049
933.840	0.0141673
933.918	0.0143113
933.996	0.0140870
934.075	0.0142834
934.153	0.0144220
934.231	0.0142341
934.309	0.0141354
934.387	0.0144201
934.465	0.0143042
934.543	0.0141861
934.621	0.0144239
934.700	0.0142908
934.778	0.0142352
934.856	0.0143270
934.934	0.0143754
935.012	0.0143085
935.090	0.0142858
935.168	0.0142265
935.246	0.0143023
935.325	0.0141921
935.403	0.0142812
935.481	0.0142952
935.559	0.0142843
935.637	0.0143793
935.715	0.0142577
935.793	0.0141847
935.871	0.0141965
935.950	0.0143100
936.028	0.0143088
936.106	0.0143579
936.184	0.0142783
936.262	0.0142825
936.340	0.0142925
936.418	0.0143550
936.496	0.0144840
936.575	0.0142947
936.653	0.0143059
936.731	0.0143833
936.809	0.0143376
936.887	0.0142863
936.965	0.0143719
937.043	0.0142979
937.121	0.0143924
937.200	0.0144947
937.278	0.0144180
937.356	0.0143035
937.434	0.0142776
937.512	0.0144035
937.590	0.0145737
937.668	0.0144311
937.746	0.0143134
937.825	0.0145277
937.903	0.0144267
937.981	0.0142902
938.059	0.0142933
938.137	0.0143829
938.215	0.0144634
938.293	0.0142982
938.371	0.0143080
938.450	0.0143029
938.528	0.0144285
938.606	0.0143245
938.684	0.0141895
938.762	0.0143127
938.840	0.0142207
938.918	0.0143032
938.996	0.0141673
939.075	0.0143081
939.153	0.0144088
939.231	0.0142862
939.309	0.0142742
939.387	0.0142403
939.465	0.0142075
939.543	0.0142196
939.621	0.0142953
939.700	0.0144308
939.778	0.0142462
939.856	0.0141709
939.934	0.0144047
940.012	0.0143382
940.090	0.0143835
940.168	0.0142824
940.246	0.0142305
940.325	0.0142435
940.403	0.0143269
940.481	0.0143082
940.559	0.0143285
940.637	0.0142296
940.715	0.0142222
940.793	0.0143285
940.871	0.0144565
940.950	0.0143890
941.028	0.0142249
941.106	0.0143462
941.184	0.0143542
941.262	0.0143320
941.340	0.0142410
941.418	0.0143661
941.496	0.0143895
941.575	0.0144221
941.653	0.0144267
941.731	0.0142282
941.809	0.0143024
941.887	0.0141213
941.965	0.0141815
942.043	0.0141873
942.121	0.0143137
942.200	0.0142875
942.278	0.0141908
942.356	0.0142289
942.434	0.0142191
942.512	0.0142948
942.590	0.0142667
942.668	0.0142192
942.746	0.0140720
942.825	0.0143080
942.903	0.0142861
942.981	0.0143263
943.059	0.0143034
943.137	0.0141331
943.215	0.0142899
943.293	0.0142850
943.371	0.0143122
943.450	0.0143295
943.528	0.0142181
943.606	0.0142976
943.684	0.0143289
943.762	0.0143506
943.840	0.0143026
943.918	0.0143134
943.996	0.0143356
944.075	0.0142958
944.153	0.0143173
944.231	0.0142146
944.309	0.0141661
944.387	0.0142355
944.465	0.0141693
944.543	0.0142992
944.621	0.0142354
944.700	0.0141781
944.778	0.0142074
944.856	0.0143747
944.934	0.0142236
945.012	0.0143930
945.090	0.0142384
945.168	0.0141854
945.246	0.0142414
945.325	0.0142869
945.403	0.0143187
945.481	0.0142256
945.559	0.0142173
945.637	0.0143584
945.715	0.0143046
945.793	0.0141490
945.871	0.0143015
945.950	0.0143730
946.028	0.0143192
946.106	0.0142607
946.184	0.0141973
946.262	0.0141940
946.340	0.0143351
946.418	0.0144497
946.496	0.0143857
946.575	0.0142662
946.653	0.0142446
946.731	0.0142803
946.809	0.0142465
946.887	0.0142627
946.965	0.0142557
947.043	0.0143412
947.121	0.0143754
947.200	0.0144127
947.278	0.0143028
947.356	0.0142719
947.434	0.0142007
947.512	0.0142786
947.590	0.0141666
947.668	0.0141856
947.746	0.0140895
947.825	0.0141462
947.903	0.0142494
947.981	0.0143221
948.059	0.0141827
948.137	0.0142001
948.215	0.0143688
948.293	0.0142650
948.371	0.0141835
948.450	0.0142464
948.528	0.0142015
948.606	0.0143587
948.684	0.0141805
948.762	0.0142756
948.840	0.0142139
948.918	0.0142163
948.996	0.0142233
949.075	0.0142915
949.153	0.0143075
949.231	0.0141915
949.309	0.0143585
949.387	0.0143973
949.465	0.0143245
949.543	0.0141331
949.621	0.0141280
949.700	0.0143953
949.778	0.0143704
949.856	0.0142165
949.934	0.0141999
950.012	0.0142919
950.090	0.0142960
950.168	0.0142577
950.246	0.0142518
950.325	0.0143480
950.403	0.0142933
950.481	0.0141997
950.559	0.0143568
950.637	0.0142802
950.715	0.0142758
950.793	0.0142193
950.871	0.0142557
950.950	0.0141260
951.028	0.0142104
951.106	0.0142754
951.184	0.0142752
951.262	0.0142953
951.340	0.0141853
951.418	0.0141885
951.496	0.0142412
951.575	0.0143535
951.653	0.0142071
951.731	0.0143577
951.809	0.0142132
951.887	0.0142576
951.965	0.0142381
952.043	0.0144897
952.121	0.0142875
952.200	0.0144211
952.278	0.0142399
952.356	0.0142863
952.434	0.0143211
952.512	0.0142596
952.590	0.0142838
952.668	0.0141940
952.746	0.0142385
952.825	0.0142313
952.903	0.0143545
952.981	0.0142699
953.059	0.0144054
953.137	0.0142342
953.215	0.0143179
953.293	0.0143977
953.371	0.0142530
953.450	0.0143466
953.528	0.0142625
953.606	0.0142558
953.684	0.0142069
953.762	0.0142707
953.840	0.0143523
953.918	0.0142597
953.996	0.0141989
954.075	0.0141261
954.153	0.0142690
954.231	0.0143317
954.309	0.0141931
954.387	0.0140917
954.465	0.0143051
954.543	0.0143342
954.621	0.0143842
954.700	0.0142645
954.778	0.0142528
954.856	0.0142566
954.934	0.0143577
955.012	0.0143813
955.090	0.0144083
955.168	0.0142851
955.246	0.0142931
955.325	0.0144268
955.403	0.0143268
955.481	0.0141872
955.559	0.0142190
955.637	0.0143207
955.715	0.0143325
955.793	0.0141799
955.871	0.0142401
955.950	0.0143846
956.028	0.0143359
956.106	0.0142423
956.184	0.0143136
956.262	0.0144027
956.340	0.0143475
956.418	0.0143295
956.496	0.0142625
956.575	0.0143037
956.653	0.0143921
956.731	0.0142194
956.809	0.0142708
956.887	0.0143321
956.965	0.0143623
957.043	0.0142549
957.121	0.0143064
957.200	0.0143350
957.278	0.0142912
957.356	0.0144447
957.434	0.0143668
957.512	0.0143019
957.590	0.0142483
957.668	0.0143099
957.746	0.0143932
957.825	0.0143545
957.903	0.0144002
957.981	0.0143452
958.059	0.0142598
958.137	0.0143084
958.215	0.0143822
958.293	0.0142509
958.371	0.0142977
958.450	0.0143282
958.528	0.0143336
958.606	0.0143691
958.684	0.0143311
958.762	0.0142944
958.840	0.0143913
958.918	0.0142777
958.996	0.0142176
959.075	0.0142648
959.153	0.0144124
959.231	0.0144508
959.309	0.0143551
959.387	0.0142279
959.465	0.0144571
959.543	0.0144406
959.621	0.0144222
959.700	0.0143279
959.778	0.0144193
959.856	0.0144323
959.934	0.0143675
960.012	0.0142551
960.090	0.0142426
960.168	0.0142416
960.246	0.0142867
960.325	0.0142391
960.403	0.0144191
960.481	0.0143160
960.559	0.0142855
960.637	0.0141791
960.715	0.0142252
960.793	0.0142968
960.871	0.0142238
960.950	0.0143623
961.028	0.0142457
961.106	0.0144165
961.184	0.0143746
961.262	0.0143056
961.340	0.0144198
961.418	0.0143680
961.496	0.0144284
961.575	0.0143451
961.653	0.0141387
961.731	0.0143800
961.809	0.0142993
961.887	0.0143441
961.965	0.0143105
962.043	0.0142424
962.121	0.0143407
962.200	0.0143279
962.278	0.0141875
962.356	0.0143502
962.434	0.0144125
962.512	0.0142967
962.590	0.0143971
962.668	0.0143997
962.746	0.0142614
962.825	0.0142881
962.903	0.0143515
962.981	0.0143596
963.059	0.0144446
963.137	0.0144509
963.215	0.0143227
963.293	0.0143168
963.371	0.0142523
963.450	0.0143162
963.528	0.0143044
963.606	0.0141707
963.684	0.0143876
963.762	0.0143605
963.840	0.0141615
963.918	0.0142638
963.996	0.0143993
964.075	0.0144041
964.153	0.0143202
964.231	0.0142730
964.309	0.0143226
964.387	0.0143560
964.465	0.0144046
964.543	0.0143708
964.621	0.0144147
964.700	0.0143377
964.778	0.0144251
964.856	0.0142879
964.934	0.0143944
965.012	0.0145273
965.090	0.0143539
965.168	0.0143880
965.246	0.0142331
965.325	0.0141718
965.403	0.0143390
965.481	0.0142494
965.559	0.0143758
965.637	0.0141602
965.715	0.0141974
965.793	0.0143265
965.871	0.0144144
965.950	0.0143776
966.028	0.0144516
966.106	0.0143282
966.184	0.0142295
966.262	0.0143382
966.340	0.0143263
966.418	0.0142073
966.496	0.0143105
966.575	0.0143417
966.653	0.0143425
966.731	0.0144808
966.809	0.0142760
966.887	0.0143501
966.965	0.0141782
967.043	0.0143092
967.121	0.0143544
967.200	0.0142647
967.278	0.0142489
967.356	0.0142313
967.434	0.0142562
967.512	0.0141080
967.590	0.0142429
967.668	0.0142900
967.746	0.0143783
967.825	0.0143354
967.903	0.0143687
967.981	0.0142560
968.059	0.0143888
968.137	0.0145197
968.215	0.0144221
968.293	0.0141696
968.371	0.0142529
968.450	0.0143276
968.528	0.0143515
968.606	0.0142548
968.684	0.0142335
968.762	0.0143237
968.840	0.0143981
968.918	0.0143427
968.996	0.0142754
969.075	0.0143386
969.153	0.0142012
969.231	0.0142126
969.309	0.0142315
969.387	0.0142696
969.465	0.0144068
969.543	0.0142320
969.621	0.0143042
969.700	0.0143790
969.778	0.0143111
969.856	0.0142690
969.934	0.0142557
970.012	0.0144231
970.090	0.0143708
970.168	0.0143214
970.246	0.0143817
970.325	0.0143823
970.403	0.0142536
970.481	0.0143207
970.559	0.0143189
970.637	0.0142933
970.715	0.0143098
970.793	0.0143298
970.871	0.0144134
970.950	0.0143284
971.028	0.0143488
971.106	0.0143192
971.184	0.0144572
971.262	0.0144324
971.340	0.0142553
971.418	0.0143968
971.496	0.0143505
971.575	0.0142004
971.653	0.0143102
971.731	0.0143473
971.809	0.0140896
971.887	0.0141702
971.965	0.0143142
972.043	0.0142207
972.121	0.0143367
972.200	0.0142965
972.278	0.0142709
972.356	0.0142832
972.434	0.0142649
972.512	0.0143295
972.590	0.0142426
972.668	0.0140432
972.746	0.0142760
972.825	0.0142816
972.903	0.0141721
972.981	0.0143209
973.059	0.0143769
973.137	0.0144003
973.215	0.0143408
973.293	0.0143246
973.371	0.0144093
973.450	0.0145198
973.528	0.0142896
973.606	0.0144441
973.684	0.0143147
973.762	0.0143970
973.840	0.0143731
973.918	0.0144051
973.996	0.0143454
974.075	0.0144136
974.153	0.0143474
974.231	0.0144667
974.309	0.0143458
974.387	0.0144839
974.465	0.0143771
974.543	0.0144947
974.621	0.0142783
974.700	0.0142201
974.778	0.0142839
974.856	0.0144862
974.934	0.0142728
975.012	0.0142567
975.090	0.0143945
975.168	0.0143726
975.246	0.0143630
975.325	0.0145064
975.403	0.0143687
975.481	0.0144633
975.559	0.0143694
975.637	0.0142105
975.715	0.0143882
975.793	0.0145148
975.871	0.0144079
975.950	0.0143076
976.028	0.0142787
976.106	0.0143922
976.184	0.0144092
976.262	0.0143578
976.340	0.0142507
976.418	0.0144149
976.496	0.0143408
976.575	0.0144777
976.653	0.0144038
976.731	0.0143005
976.809	0.0143474
976.887	0.0143405
976.965	0.0143734
977.043	0.0143338
977.121	0.0143842
977.200	0.0143797
977.278	0.0142318
977.356	0.0141748
977.434	0.0142720
977.512	0.0142607
977.590	0.0143420
977.668	0.0142268
977.746	0.0141817
977.825	0.0141988
977.903	0.0142484
977.981	0.0142235
978.059	0.0143341
978.137	0.0141752
978.215	0.0142348
978.293	0.0143058
978.371	0.0144059
978.450	0.0143947
978.528	0.0144366
978.606	0.0143295
978.684	0.0143819
978.762	0.0143549
978.840	0.0144209
978.918	0.0143803
978.996	0.0143606
979.075	0.0142993
979.153	0.0141711
979.231	0.0142266
979.309	0.0143667
979.387	0.0142598
979.465	0.0143501
979.543	0.0143935
979.621	0.0142693
979.700	0.0143286
979.778	0.0142041
979.856	0.0143079
979.934	0.0142307
980.012	0.0142207
980.090	0.0143183
980.168	0.0142562
980.246	0.0141374
980.325	0.0142200
980.403	0.0142731
980.481	0.0142191
980.559	0.0142889
980.637	0.0142840
980.715	0.0141096
980.793	0.0141191
980.871	0.0142023
980.950	0.0143474
981.028	0.0141763
981.106	0.0143830
981.184	0.0144077
981.262	0.0142688
981.340	0.0143642
981.418	0.0142835
981.496	0.0144111
981.575	0.0143613
981.653	0.0143935
981.731	0.0143246
981.809	0.0143031
981.887	0.0143513
981.965	0.0144255
982.043	0.0143665
982.121	0.0143163
982.200	0.0144460
982.278	0.0143632
982.356	0.0143988
982.434	0.0143022
982.512	0.0142506
982.590	0.0142834
982.668	0.0142742
982.746	0.0143707
982.825	0.0142419
982.903	0.0141714
982.981	0.0141838
983.059	0.0143616
983.137	0.0142265
983.215	0.0140681
983.293	0.0141720
983.371	0.0141128
983.450	0.0142857
983.528	0.0142534
983.606	0.0141038
983.684	0.0143210
983.762	0.0142296
983.840	0.0141995
983.918	0.0140762
983.996	0.0141776
984.075	0.0143050
984.153	0.0141749
984.231	0.0142241
984.309	0.0142590
984.387	0.0143369
984.465	0.0142617
984.543	0.0142275
984.621	0.0143604
984.700	0.0143095
984.778	0.0143303
984.856	0.0143504
984.934	0.0145003
985.012	0.0142080
985.090	0.0140951
985.168	0.0142839
985.246	0.0143987
985.325	0.0142913
985.403	0.0143031
985.481	0.0143434
985.559	0.0142358
985.637	0.0143256
985.715	0.0143285
985.793	0.0142562
985.871	0.0144061
985.950	0.0144102
986.028	0.0142059
986.106	0.0142438
986.184	0.0141624
986.262	0.0142315
986.340	0.0141508
986.418	0.0142663
986.496	0.0143146
986.575	0.0142582
986.653	0.0141895
986.731	0.0143324
986.809	0.0142995
986.887	0.0143076
986.965	0.0141655
987.043	0.0142685
987.121	0.0142393
987.200	0.0142733
987.278	0.0142939
987.356	0.0141736
987.434	0.0143254
987.512	0.0144227
987.590	0.0142294
987.668	0.0141737
987.746	0.0142220
987.825	0.0142598
987.903	0.0144259
987.981	0.0142529
988.059	0.0143519
988.137	0.0143434
988.215	0.0143123
988.293	0.0144806
988.371	0.0143659
988.450	0.0143842
988.528	0.0143327
988.606	0.0145423
988.684	0.0143749
988.762	0.0143214
988.840	0.0143641
988.918	0.0144038
988.996	0.0143385
989.075	0.0143591
989.153	0.0143247
989.231	0.0141490
989.309	0.0143343
989.387	0.0144971
989.465	0.0143589
989.543	0.0143362
989.621	0.0143921
989.700	0.0143906
989.778	0.0143454
989.856	0.0142783
989.934	0.0143420
990.012	0.0143430
990.090	0.0143423
990.168	0.0143289
990.246	0.0143324
990.325	0.0144063
990.403	0.0143602
990.481	0.0141881
990.559	0.0142585
990.637	0.0143742
990.715	0.0142770
990.793	0.0141890
990.871	0.0144809
990.950	0.0143401
991.028	0.0143716
991.106	0.0143369
991.184	0.0144552
991.262	0.0144516
991.340	0.0143468
991.418	0.0143808
991.496	0.0143501
991.575	0.0144302
991.653	0.0142290
991.731	0.0142577
991.809	0.0143161
991.887	0.0143711
991.965	0.0143269
992.043	0.0142089
992.121	0.0143327
992.200	0.0144176
992.278	0.0144128
992.356	0.0143572
992.434	0.0142730
992.512	0.0143899
992.590	0.0143761
992.668	0.0143562
992.746	0.0143069
992.825	0.0143812
992.903	0.0144228
992.981	0.0142207
993.059	0.0142894
993.137	0.0142544
993.215	0.0143328
993.293	0.0143609
993.371	0.0144062
993.450	0.0143591
993.528	0.0142428
993.606	0.0144316
993.684	0.0143189
993.762	0.0142118
993.840	0.0143312
993.918	0.0145152
993.996	0.0142352
994.075	0.0142991
994.153	0.0143530
994.231	0.0143915
994.309	0.0144750
994.387	0.0143139
994.465	0.0144113
994.543	0.0144478
994.621	0.0143356
994.700	0.0143819
994.778	0.0142722
994.856	0.0142390
994.934	0.0141926
995.012	0.0142200
995.090	0.0141827
995.168	0.0142692
995.246	0.0142020
995.325	0.0141864
995.403	0.0143237
995.481	0.0143906
995.559	0.0143835
995.637	0.0143919
995.715	0.0144611
995.793	0.0143904
995.871	0.0143952
995.950	0.0144261
996.028	0.0144009
996.106	0.0143785
996.184	0.0144244
996.262	0.0143965
996.340	0.0145048
996.418	0.0143306
996.496	0.0142550
996.575	0.0142871
996.653	0.0142934
996.731	0.0143813
996.809	0.0143110
996.887	0.0143858
996.965	0.0142652
997.043	0.0142007
997.121	0.0142704
997.200	0.0142439
997.278	0.0142259
997.356	0.0142499
997.434	0.0142207
997.512	0.0142332
997.590	0.0143538
997.668	0.0142579
997.746	0.0142692
997.825	0.0142695
997.903	0.0142446
997.981	0.0144299
998.059	0.0142392
998.137	0.0141691
998.215	0.0141884
998.293	0.0142700
998.371	0.0143672
998.450	0.0143351
998.528	0.0142498
998.606	0.0143011
998.684	0.0142493
998.762	0.0143486
998.840	0.0143950
998.918	0.0143502
