05/04/2022	21:09:47	Ver.	4.1	UNKNOWN
Optical Delay	678.996401	Delta X		0.078125	Sweeps	1	Scan Rate	0/0
Coordinates	Axis 1	NaN	Axis 2	NaN	Axis 3	NaN	Axis 4	NaN	Axis 5	NaN	Axis 6	0.000000
TX Power	0.000000	RX Power	0.000000

678.996	0.0142686
679.075	0.0142377
679.153	0.0142329
679.231	0.0141698
679.309	0.0143158
679.387	0.0141770
679.465	0.0142596
679.543	0.0142809
679.621	0.0142795
679.700	0.0141757
679.778	0.0142631
679.856	0.0142094
679.934	0.0142389
680.012	0.0143138
680.090	0.0142462
680.168	0.0142801
680.246	0.0142406
680.325	0.0142527
680.403	0.0143786
680.481	0.0142676
680.559	0.0143007
680.637	0.0142774
680.715	0.0143678
680.793	0.0143600
680.871	0.0143250
680.950	0.0142571
681.028	0.0143513
681.106	0.0141553
681.184	0.0142383
681.262	0.0143730
681.340	0.0141948
681.418	0.0141297
681.496	0.0142727
681.575	0.0142717
681.653	0.0142685
681.731	0.0143546
681.809	0.0143189
681.887	0.0142426
681.965	0.0143740
682.043	0.0142831
682.121	0.0142834
682.200	0.0142520
682.278	0.0144067
682.356	0.0142731
682.434	0.0143132
682.512	0.0142889
682.590	0.0143340
682.668	0.0142744
682.746	0.0143904
682.825	0.0145036
682.903	0.0141872
682.981	0.0142528
683.059	0.0142252
683.137	0.0143507
683.215	0.0142602
683.293	0.0142381
683.371	0.0141602
683.450	0.0143222
683.528	0.0143312
683.606	0.0144254
683.684	0.0143007
683.762	0.0143156
683.840	0.0142521
683.918	0.0143056
683.996	0.0143285
684.075	0.0143129
684.153	0.0144157
684.231	0.0142140
684.309	0.0144009
684.387	0.0142902
684.465	0.0142680
684.543	0.0143667
684.621	0.0143385
684.700	0.0144436
684.778	0.0143192
684.856	0.0143755
684.934	0.0144458
685.012	0.0143020
685.090	0.0144478
685.168	0.0143626
685.246	0.0143456
685.325	0.0143629
685.403	0.0143185
685.481	0.0143902
685.559	0.0143038
685.637	0.0144095
685.715	0.0143105
685.793	0.0143865
685.871	0.0142413
685.950	0.0142442
686.028	0.0141742
686.106	0.0143194
686.184	0.0142484
686.262	0.0142480
686.340	0.0142661
686.418	0.0142835
686.496	0.0142649
686.575	0.0142072
686.653	0.0142006
686.731	0.0141724
686.809	0.0141940
686.887	0.0140881
686.965	0.0141699
687.043	0.0141776
687.121	0.0141251
687.200	0.0141102
687.278	0.0140922
687.356	0.0142783
687.434	0.0141947
687.512	0.0141417
687.590	0.0142287
687.668	0.0141554
687.746	0.0140098
687.825	0.0142813
687.903	0.0142743
687.981	0.0142583
688.059	0.0142412
688.137	0.0142770
688.215	0.0141800
688.293	0.0143199
688.371	0.0143396
688.450	0.0144065
688.528	0.0144469
688.606	0.0145129
688.684	0.0145391
688.762	0.0144353
688.840	0.0143047
688.918	0.0142917
688.996	0.0143797
689.075	0.0143597
689.153	0.0144382
689.231	0.0143739
689.309	0.0144176
689.387	0.0143863
689.465	0.0142419
689.543	0.0142542
689.621	0.0142257
689.700	0.0142625
689.778	0.0142188
689.856	0.0141667
689.934	0.0142529
690.012	0.0142531
690.090	0.0142092
690.168	0.0142808
690.246	0.0143703
690.325	0.0142809
690.403	0.0142924
690.481	0.0143556
690.559	0.0144048
690.637	0.0144405
690.715	0.0144334
690.793	0.0143587
690.871	0.0144594
690.950	0.0145274
691.028	0.0144935
691.106	0.0145303
691.184	0.0145146
691.262	0.0144920
691.340	0.0143300
691.418	0.0145333
691.496	0.0145218
691.575	0.0142792
691.653	0.0141530
691.731	0.0141946
691.809	0.0141703
691.887	0.0141718
691.965	0.0142407
692.043	0.0141976
692.121	0.0140381
692.200	0.0142125
692.278	0.0141168
692.356	0.0140180
692.434	0.0139706
692.512	0.0142130
692.590	0.0143806
692.668	0.0140952
692.746	0.0142128
692.825	0.0142506
692.903	0.0142458
692.981	0.0142485
693.059	0.0141767
693.137	0.0142801
693.215	0.0143805
693.293	0.0143623
693.371	0.0143010
693.450	0.0143796
693.528	0.0143359
693.606	0.0143729
693.684	0.0143367
693.762	0.0143630
693.840	0.0143999
693.918	0.0141999
693.996	0.0144325
694.075	0.0142154
694.153	0.0142406
694.231	0.0142000
694.309	0.0144151
694.387	0.0142850
694.465	0.0142990
694.543	0.0143029
694.621	0.0142464
694.700	0.0141995
694.778	0.0142615
694.856	0.0143489
694.934	0.0142850
695.012	0.0141953
695.090	0.0143909
695.168	0.0144160
695.246	0.0141959
695.325	0.0142675
695.403	0.0143407
695.481	0.0142188
695.559	0.0142314
695.637	0.0143120
695.715	0.0143685
695.793	0.0143292
695.871	0.0142923
695.950	0.0143254
696.028	0.0143384
696.106	0.0142987
696.184	0.0143681
696.262	0.0145258
696.340	0.0144466
696.418	0.0144243
696.496	0.0145004
696.575	0.0144757
696.653	0.0145243
696.731	0.0144135
696.809	0.0144269
696.887	0.0145599
696.965	0.0143209
697.043	0.0143307
697.121	0.0141450
697.200	0.0143488
697.278	0.0142316
697.356	0.0140680
697.434	0.0142467
697.512	0.0142734
697.590	0.0141309
697.668	0.0140847
697.746	0.0142037
697.825	0.0142771
697.903	0.0142942
697.981	0.0142151
698.059	0.0141817
698.137	0.0142097
698.215	0.0143584
698.293	0.0143894
698.371	0.0142939
698.450	0.0142906
698.528	0.0144627
698.606	0.0144234
698.684	0.0143602
698.762	0.0144367
698.840	0.0143745
698.918	0.0144070
698.996	0.0144106
699.075	0.0142924
699.153	0.0144781
699.231	0.0144614
699.309	0.0144644
699.387	0.0144638
699.465	0.0143407
699.543	0.0142569
699.621	0.0142752
699.700	0.0143427
699.778	0.0142732
699.856	0.0141593
699.934	0.0141537
700.012	0.0142317
700.090	0.0142310
700.168	0.0142393
700.246	0.0142397
700.325	0.0142760
700.403	0.0141772
700.481	0.0141394
700.559	0.0142592
700.637	0.0143453
700.715	0.0142096
700.793	0.0143305
700.871	0.0143490
700.950	0.0142912
701.028	0.0143804
701.106	0.0143659
701.184	0.0143307
701.262	0.0145004
701.340	0.0145470
701.418	0.0146692
701.496	0.0144830
701.575	0.0143108
701.653	0.0143294
701.731	0.0142561
701.809	0.0141244
701.887	0.0141869
701.965	0.0141505
702.043	0.0142153
702.121	0.0143572
702.200	0.0143352
702.278	0.0143448
702.356	0.0143816
702.434	0.0144128
702.512	0.0142986
702.590	0.0142448
702.668	0.0139948
702.746	0.0141599
702.825	0.0141757
702.903	0.0142089
702.981	0.0141663
703.059	0.0142670
703.137	0.0142977
703.215	0.0145770
703.293	0.0143193
703.371	0.0144345
703.450	0.0146725
703.528	0.0146464
703.606	0.0145162
703.684	0.0144612
703.762	0.0143510
703.840	0.0141343
703.918	0.0140753
703.996	0.0139034
704.075	0.0138587
704.153	0.0138960
704.231	0.0138400
704.309	0.0139546
704.387	0.0141705
704.465	0.0140961
704.543	0.0141699
704.621	0.0143661
704.700	0.0143972
704.778	0.0144263
704.856	0.0142668
704.934	0.0142576
705.012	0.0142211
705.090	0.0143961
705.168	0.0143793
705.246	0.0146413
705.325	0.0146099
705.403	0.0147813
705.481	0.0147423
705.559	0.0147973
705.637	0.0145464
705.715	0.0143970
705.793	0.0144360
705.871	0.0143853
705.950	0.0143114
706.028	0.0143782
706.106	0.0141909
706.184	0.0143559
706.262	0.0144573
706.340	0.0144807
706.418	0.0145899
706.496	0.0147794
706.575	0.0144782
706.653	0.0143259
706.731	0.0142208
706.809	0.0139879
706.887	0.0137562
706.965	0.0133825
707.043	0.0133323
707.121	0.0132143
707.200	0.0133612
707.278	0.0136975
707.356	0.0136658
707.434	0.0138443
707.512	0.0141455
707.590	0.0143698
707.668	0.0147020
707.746	0.0148647
707.825	0.0148313
707.903	0.0148300
707.981	0.0149026
708.059	0.0149527
708.137	0.0146898
708.215	0.0146362
708.293	0.0145339
708.371	0.0147406
708.450	0.0146059
708.528	0.0144313
708.606	0.0145834
708.684	0.0144981
708.762	0.0144994
708.840	0.0145089
708.918	0.0145706
708.996	0.0144698
709.075	0.0145242
709.153	0.0146351
709.231	0.0147903
709.309	0.0147559
709.387	0.0147693
709.465	0.0146379
709.543	0.0144095
709.621	0.0143667
709.700	0.0139687
709.778	0.0136529
709.856	0.0134653
709.934	0.0131387
710.012	0.0130206
710.090	0.0131190
710.168	0.0132963
710.246	0.0131359
710.325	0.0133948
710.403	0.0138655
710.481	0.0139651
710.559	0.0143218
710.637	0.0146039
710.715	0.0148621
710.793	0.0150080
710.871	0.0151142
710.950	0.0151834
711.028	0.0152686
711.106	0.0150479
711.184	0.0148634
711.262	0.0146828
711.340	0.0143932
711.418	0.0144245
711.496	0.0142989
711.575	0.0143310
711.653	0.0142637
711.731	0.0145616
711.809	0.0145444
711.887	0.0146632
711.965	0.0147286
712.043	0.0148948
712.121	0.0149574
712.200	0.0150629
712.278	0.0150106
712.356	0.0149864
712.434	0.0149545
712.512	0.0145573
712.590	0.0142693
712.668	0.0137019
712.746	0.0134391
712.825	0.0131179
712.903	0.0130550
712.981	0.0129646
713.059	0.0127605
713.137	0.0130058
713.215	0.0131753
713.293	0.0133943
713.371	0.0138601
713.450	0.0139373
713.528	0.0141613
713.606	0.0144675
713.684	0.0147502
713.762	0.0149375
713.840	0.0151445
713.918	0.0151234
713.996	0.0150159
714.075	0.0150126
714.153	0.0150008
714.231	0.0148539
714.309	0.0144193
714.387	0.0143119
714.465	0.0142294
714.543	0.0139728
714.621	0.0138743
714.700	0.0138155
714.778	0.0140772
714.856	0.0141812
714.934	0.0143108
715.012	0.0145090
715.090	0.0145107
715.168	0.0147506
715.246	0.0149400
715.325	0.0150933
715.403	0.0150961
715.481	0.0149900
715.559	0.0150717
715.637	0.0148876
715.715	0.0145229
715.793	0.0143567
715.871	0.0140662
715.950	0.0136705
716.028	0.0133585
716.106	0.0131276
716.184	0.0130505
716.262	0.0130405
716.340	0.0130053
716.418	0.0130000
716.496	0.0133852
716.575	0.0134116
716.653	0.0136944
716.731	0.0139637
716.809	0.0142561
716.887	0.0145631
716.965	0.0147453
717.043	0.0149093
717.121	0.0150988
717.200	0.0151003
717.278	0.0151093
717.356	0.0150550
717.434	0.0149232
717.512	0.0147865
717.590	0.0145543
717.668	0.0143235
717.746	0.0141910
717.825	0.0139392
717.903	0.0140739
717.981	0.0142290
718.059	0.0140701
718.137	0.0140907
718.215	0.0144243
718.293	0.0144943
718.371	0.0146342
718.450	0.0147515
718.528	0.0148684
718.606	0.0150333
718.684	0.0149746
718.762	0.0150248
718.840	0.0150510
718.918	0.0147622
718.996	0.0147161
719.075	0.0145337
719.153	0.0142340
719.231	0.0139481
719.309	0.0137534
719.387	0.0135606
719.465	0.0135157
719.543	0.0134496
719.621	0.0133336
719.700	0.0133631
719.778	0.0134969
719.856	0.0136147
719.934	0.0137884
720.012	0.0139127
720.090	0.0142887
720.168	0.0143913
720.246	0.0147823
720.325	0.0148453
720.403	0.0148863
720.481	0.0148120
720.559	0.0148258
720.637	0.0146598
720.715	0.0144040
720.793	0.0143125
720.871	0.0140891
720.950	0.0138938
721.028	0.0137714
721.106	0.0137434
721.184	0.0135711
721.262	0.0136448
721.340	0.0137148
721.418	0.0139763
721.496	0.0139510
721.575	0.0139763
721.653	0.0144279
721.731	0.0145281
721.809	0.0147505
721.887	0.0149838
721.965	0.0151228
722.043	0.0152027
722.121	0.0151065
722.200	0.0150215
722.278	0.0151597
722.356	0.0148486
722.434	0.0146091
722.512	0.0146519
722.590	0.0143448
722.668	0.0140644
722.746	0.0140538
722.825	0.0139811
722.903	0.0138376
722.981	0.0138176
723.059	0.0137772
723.137	0.0139915
723.215	0.0141000
723.293	0.0141196
723.371	0.0142744
723.450	0.0144948
723.528	0.0145035
723.606	0.0145808
723.684	0.0145538
723.762	0.0143931
723.840	0.0143875
723.918	0.0142841
723.996	0.0141479
724.075	0.0139237
724.153	0.0137524
724.231	0.0137861
724.309	0.0137135
724.387	0.0134957
724.465	0.0135033
724.543	0.0134956
724.621	0.0136466
724.700	0.0136272
724.778	0.0138046
724.856	0.0139735
724.934	0.0143182
725.012	0.0146664
725.090	0.0148211
725.168	0.0148163
725.246	0.0150719
725.325	0.0151806
725.403	0.0151767
725.481	0.0151830
725.559	0.0152518
725.637	0.0150596
725.715	0.0149867
725.793	0.0148576
725.871	0.0146441
725.950	0.0144497
726.028	0.0143590
726.106	0.0143429
726.184	0.0142577
726.262	0.0141384
726.340	0.0141017
726.418	0.0140369
726.496	0.0141751
726.575	0.0142471
726.653	0.0142776
726.731	0.0142694
726.809	0.0142156
726.887	0.0142679
726.965	0.0142169
727.043	0.0143542
727.121	0.0143128
727.200	0.0141496
727.278	0.0139075
727.356	0.0139338
727.434	0.0138164
727.512	0.0138339
727.590	0.0136887
727.668	0.0137210
727.746	0.0137930
727.825	0.0136864
727.903	0.0137851
727.981	0.0137455
728.059	0.0138178
728.137	0.0140611
728.215	0.0141882
728.293	0.0142785
728.371	0.0144016
728.450	0.0146477
728.528	0.0145309
728.606	0.0146819
728.684	0.0147227
728.762	0.0146582
728.840	0.0145911
728.918	0.0146464
728.996	0.0145493
729.075	0.0144882
729.153	0.0145646
729.231	0.0144266
729.309	0.0145598
729.387	0.0144291
729.465	0.0145094
729.543	0.0144089
729.621	0.0145453
729.700	0.0145280
729.778	0.0144128
729.856	0.0144407
729.934	0.0145365
730.012	0.0144679
730.090	0.0146974
730.168	0.0144438
730.246	0.0142559
730.325	0.0144174
730.403	0.0144358
730.481	0.0141577
730.559	0.0141174
730.637	0.0141132
730.715	0.0141248
730.793	0.0140070
730.871	0.0140095
730.950	0.0140633
731.028	0.0140418
731.106	0.0139684
731.184	0.0139356
731.262	0.0139612
731.340	0.0139448
731.418	0.0139117
731.496	0.0138954
731.575	0.0138918
731.653	0.0142142
731.731	0.0141358
731.809	0.0142883
731.887	0.0143353
731.965	0.0144942
732.043	0.0146053
732.121	0.0145757
732.200	0.0146400
732.278	0.0146371
732.356	0.0147741
732.434	0.0146932
732.512	0.0147305
732.590	0.0146941
732.668	0.0145472
732.746	0.0144131
732.825	0.0142418
732.903	0.0141708
732.981	0.0141452
733.059	0.0140630
733.137	0.0138732
733.215	0.0140874
733.293	0.0141544
733.371	0.0140193
733.450	0.0140115
733.528	0.0142387
733.606	0.0141464
733.684	0.0142017
733.762	0.0142693
733.840	0.0142418
733.918	0.0143877
733.996	0.0144764
734.075	0.0146095
734.153	0.0144513
734.231	0.0145126
734.309	0.0144952
734.387	0.0143237
734.465	0.0142939
734.543	0.0142628
734.621	0.0142619
734.700	0.0141841
734.778	0.0142274
734.856	0.0142990
734.934	0.0143757
735.012	0.0144270
735.090	0.0144607
735.168	0.0145650
735.246	0.0146696
735.325	0.0145676
735.403	0.0143798
735.481	0.0145106
735.559	0.0144630
735.637	0.0143008
735.715	0.0144198
735.793	0.0143500
735.871	0.0141250
735.950	0.0141293
736.028	0.0140512
736.106	0.0139689
736.184	0.0139114
736.262	0.0137863
736.340	0.0138772
736.418	0.0140562
736.496	0.0139838
736.575	0.0140382
736.653	0.0142033
736.731	0.0141301
736.809	0.0141624
736.887	0.0142537
736.965	0.0142769
737.043	0.0142538
737.121	0.0143178
737.200	0.0143637
737.278	0.0144450
737.356	0.0143932
737.434	0.0143674
737.512	0.0144108
737.590	0.0142928
737.668	0.0144889
737.746	0.0145079
737.825	0.0144276
737.903	0.0143615
737.981	0.0145026
738.059	0.0145452
738.137	0.0144476
738.215	0.0144276
738.293	0.0145325
738.371	0.0144698
738.450	0.0143013
738.528	0.0143381
738.606	0.0143092
738.684	0.0141508
738.762	0.0142934
738.840	0.0142883
738.918	0.0138784
738.996	0.0142094
739.075	0.0141714
739.153	0.0141144
739.231	0.0140374
739.309	0.0142436
739.387	0.0142852
739.465	0.0141181
739.543	0.0141259
739.621	0.0140345
739.700	0.0141298
739.778	0.0140960
739.856	0.0140372
739.934	0.0140661
740.012	0.0140772
740.090	0.0140352
740.168	0.0140475
740.246	0.0139314
740.325	0.0140925
740.403	0.0141226
740.481	0.0140776
740.559	0.0141443
740.637	0.0142713
740.715	0.0142386
740.793	0.0141251
740.871	0.0143307
740.950	0.0143390
741.028	0.0144283
741.106	0.0143417
741.184	0.0143760
741.262	0.0143589
741.340	0.0144782
741.418	0.0144644
741.496	0.0144272
741.575	0.0144537
741.653	0.0144495
741.731	0.0144329
741.809	0.0143793
741.887	0.0145495
741.965	0.0146304
742.043	0.0145013
742.121	0.0144183
742.200	0.0144689
742.278	0.0143699
742.356	0.0144654
742.434	0.0142486
742.512	0.0142770
742.590	0.0142716
742.668	0.0144057
742.746	0.0142704
742.825	0.0144075
742.903	0.0143011
742.981	0.0141833
743.059	0.0143099
743.137	0.0143793
743.215	0.0141602
743.293	0.0142188
743.371	0.0142851
743.450	0.0142123
743.528	0.0141988
743.606	0.0141559
743.684	0.0139468
743.762	0.0138758
743.840	0.0139116
743.918	0.0140184
743.996	0.0139169
744.075	0.0140560
744.153	0.0141479
744.231	0.0139596
744.309	0.0143669
744.387	0.0142995
744.465	0.0143774
744.543	0.0143672
744.621	0.0145980
744.700	0.0145779
744.778	0.0145367
744.856	0.0146770
744.934	0.0145782
745.012	0.0144878
745.090	0.0145850
745.168	0.0144652
745.246	0.0144830
745.325	0.0145588
745.403	0.0145259
745.481	0.0146544
745.559	0.0145289
745.637	0.0143906
745.715	0.0144376
745.793	0.0143354
745.871	0.0143494
745.950	0.0144262
746.028	0.0144251
746.106	0.0143697
746.184	0.0144073
746.262	0.0143635
746.340	0.0142669
746.418	0.0142875
746.496	0.0142393
746.575	0.0140739
746.653	0.0142567
746.731	0.0140415
746.809	0.0140551
746.887	0.0141042
746.965	0.0141394
747.043	0.0140804
747.121	0.0141920
747.200	0.0141684
747.278	0.0142611
747.356	0.0143742
747.434	0.0145023
747.512	0.0145256
747.590	0.0145734
747.668	0.0145100
747.746	0.0144632
747.825	0.0145235
747.903	0.0144932
747.981	0.0144965
748.059	0.0145667
748.137	0.0143228
748.215	0.0141646
748.293	0.0142283
748.371	0.0143754
748.450	0.0143567
748.528	0.0144152
748.606	0.0142960
748.684	0.0142513
748.762	0.0142234
748.840	0.0144275
748.918	0.0143286
748.996	0.0143833
749.075	0.0143167
749.153	0.0143378
749.231	0.0143947
749.309	0.0144165
749.387	0.0144090
749.465	0.0144583
749.543	0.0144120
749.621	0.0143296
749.700	0.0142957
749.778	0.0143548
749.856	0.0143383
749.934	0.0142275
750.012	0.0141024
750.090	0.0141539
750.168	0.0140715
750.246	0.0140582
750.325	0.0140099
750.403	0.0141073
750.481	0.0141650
750.559	0.0139706
750.637	0.0141393
750.715	0.0142578
750.793	0.0141631
750.871	0.0142337
750.950	0.0142744
751.028	0.0141517
751.106	0.0143750
751.184	0.0142988
751.262	0.0143143
751.340	0.0146194
751.418	0.0144981
751.496	0.0145064
751.575	0.0145236
751.653	0.0145236
751.731	0.0146633
751.809	0.0146865
751.887	0.0144511
751.965	0.0144675
752.043	0.0144495
752.121	0.0144728
752.200	0.0145985
752.278	0.0143458
752.356	0.0144030
752.434	0.0143222
752.512	0.0142857
752.590	0.0141978
752.668	0.0142027
752.746	0.0143257
752.825	0.0141734
752.903	0.0139922
752.981	0.0141307
753.059	0.0142480
753.137	0.0140488
753.215	0.0139458
753.293	0.0141289
753.371	0.0140567
753.450	0.0140849
753.528	0.0141721
753.606	0.0141171
753.684	0.0140151
753.762	0.0141537
753.840	0.0140578
753.918	0.0140981
753.996	0.0141271
754.075	0.0141961
754.153	0.0141050
754.231	0.0142619
754.309	0.0142804
754.387	0.0143119
754.465	0.0142034
754.543	0.0143919
754.621	0.0143699
754.700	0.0144428
754.778	0.0143524
754.856	0.0143501
754.934	0.0144476
755.012	0.0144893
755.090	0.0145808
755.168	0.0146539
755.246	0.0146153
755.325	0.0147086
755.403	0.0144965
755.481	0.0145043
755.559	0.0145117
755.637	0.0145033
755.715	0.0143891
755.793	0.0145043
755.871	0.0144920
755.950	0.0144005
756.028	0.0143486
756.106	0.0142455
756.184	0.0142319
756.262	0.0142709
756.340	0.0142574
756.418	0.0142278
756.496	0.0141705
756.575	0.0141700
756.653	0.0142245
756.731	0.0141647
756.809	0.0142168
756.887	0.0142104
756.965	0.0139130
757.043	0.0140810
757.121	0.0140955
757.200	0.0140495
757.278	0.0141409
757.356	0.0142446
757.434	0.0141479
757.512	0.0141515
757.590	0.0142594
757.668	0.0142868
757.746	0.0141135
757.825	0.0141280
757.903	0.0142896
757.981	0.0143005
758.059	0.0142015
758.137	0.0143794
758.215	0.0143814
758.293	0.0144207
758.371	0.0143257
758.450	0.0144388
758.528	0.0143910
758.606	0.0143530
758.684	0.0143044
758.762	0.0143956
758.840	0.0143764
758.918	0.0143621
758.996	0.0143462
759.075	0.0145251
759.153	0.0144020
759.231	0.0143994
759.309	0.0144569
759.387	0.0144145
759.465	0.0144675
759.543	0.0143497
759.621	0.0143974
759.700	0.0143056
759.778	0.0143098
759.856	0.0143416
759.934	0.0143478
760.012	0.0143058
760.090	0.0142844
760.168	0.0140710
760.246	0.0141140
760.325	0.0141548
760.403	0.0142085
760.481	0.0141679
760.559	0.0141083
760.637	0.0140978
760.715	0.0141412
760.793	0.0140957
760.871	0.0142039
760.950	0.0141827
761.028	0.0142630
761.106	0.0142194
761.184	0.0142015
761.262	0.0141137
761.340	0.0142677
761.418	0.0141915
761.496	0.0143660
761.575	0.0142038
761.653	0.0142888
761.731	0.0143111
761.809	0.0143565
761.887	0.0143395
761.965	0.0143625
762.043	0.0142420
762.121	0.0143909
762.200	0.0144395
762.278	0.0142837
762.356	0.0143293
762.434	0.0142810
762.512	0.0143891
762.590	0.0143668
762.668	0.0143668
762.746	0.0144512
762.825	0.0143460
762.903	0.0143501
762.981	0.0145477
763.059	0.0145614
763.137	0.0143769
763.215	0.0142610
763.293	0.0141671
763.371	0.0144309
763.450	0.0144618
763.528	0.0143764
763.606	0.0142624
763.684	0.0143363
763.762	0.0142254
763.840	0.0142523
763.918	0.0142365
763.996	0.0143922
764.075	0.0141740
764.153	0.0141503
764.231	0.0142526
764.309	0.0141937
764.387	0.0141858
764.465	0.0142006
764.543	0.0141450
764.621	0.0141167
764.700	0.0142659
764.778	0.0141816
764.856	0.0140985
764.934	0.0141781
765.012	0.0140738
765.090	0.0141628
765.168	0.0142108
765.246	0.0142905
765.325	0.0141764
765.403	0.0141199
765.481	0.0142735
765.559	0.0142699
765.637	0.0143382
765.715	0.0144346
765.793	0.0144653
765.871	0.0144183
765.950	0.0142047
766.028	0.0143376
766.106	0.0146168
766.184	0.0145270
766.262	0.0144015
766.340	0.0143841
766.418	0.0143930
766.496	0.0144884
766.575	0.0143643
766.653	0.0144788
766.731	0.0143203
766.809	0.0144865
766.887	0.0144150
766.965	0.0143536
767.043	0.0143839
767.121	0.0142603
767.200	0.0143944
767.278	0.0144469
767.356	0.0143338
767.434	0.0141989
767.512	0.0143427
767.590	0.0144460
767.668	0.0143495
767.746	0.0142348
767.825	0.0142596
767.903	0.0142872
767.981	0.0142376
768.059	0.0142027
768.137	0.0141144
768.215	0.0143003
768.293	0.0141743
768.371	0.0142210
768.450	0.0141312
768.528	0.0143681
768.606	0.0141949
768.684	0.0141470
768.762	0.0142139
768.840	0.0143974
768.918	0.0143251
768.996	0.0142306
769.075	0.0143652
769.153	0.0144002
769.231	0.0143577
769.309	0.0143510
769.387	0.0142018
769.465	0.0143254
769.543	0.0144119
769.621	0.0144082
769.700	0.0143198
769.778	0.0143842
769.856	0.0144357
769.934	0.0143292
770.012	0.0142958
770.090	0.0142733
770.168	0.0143481
770.246	0.0144064
770.325	0.0145038
770.403	0.0145092
770.481	0.0141888
770.559	0.0141619
770.637	0.0144286
770.715	0.0143792
770.793	0.0144557
770.871	0.0143771
770.950	0.0145451
771.028	0.0144525
771.106	0.0143050
771.184	0.0143224
771.262	0.0143172
771.340	0.0144530
771.418	0.0143950
771.496	0.0142411
771.575	0.0144025
771.653	0.0142493
771.731	0.0144302
771.809	0.0143253
771.887	0.0143485
771.965	0.0143000
772.043	0.0143501
772.121	0.0141951
772.200	0.0142057
772.278	0.0142472
772.356	0.0142976
772.434	0.0141980
772.512	0.0142329
772.590	0.0143253
772.668	0.0141888
772.746	0.0141951
772.825	0.0143956
772.903	0.0143066
772.981	0.0142690
773.059	0.0143004
773.137	0.0142291
773.215	0.0143350
773.293	0.0142311
773.371	0.0141548
773.450	0.0143273
773.528	0.0144290
773.606	0.0142393
773.684	0.0142753
773.762	0.0141708
773.840	0.0143106
773.918	0.0142219
773.996	0.0142729
774.075	0.0143335
774.153	0.0141746
774.231	0.0142518
774.309	0.0142846
774.387	0.0142129
774.465	0.0142728
774.543	0.0142651
774.621	0.0143125
774.700	0.0143916
774.778	0.0144186
774.856	0.0142190
774.934	0.0144465
775.012	0.0144473
775.090	0.0144110
775.168	0.0142693
775.246	0.0143858
775.325	0.0143949
775.403	0.0143521
775.481	0.0144199
775.559	0.0143346
775.637	0.0143237
775.715	0.0143010
775.793	0.0142537
775.871	0.0142949
775.950	0.0141170
776.028	0.0142177
776.106	0.0143491
776.184	0.0140693
776.262	0.0141057
776.340	0.0143315
776.418	0.0142335
776.496	0.0142758
776.575	0.0143032
776.653	0.0144479
776.731	0.0142899
776.809	0.0142210
776.887	0.0142458
776.965	0.0142493
777.043	0.0143573
777.121	0.0144057
777.200	0.0142170
777.278	0.0141527
777.356	0.0141869
777.434	0.0143658
777.512	0.0143075
777.590	0.0142756
777.668	0.0142455
777.746	0.0142804
777.825	0.0142159
777.903	0.0142561
777.981	0.0142314
778.059	0.0143446
778.137	0.0143665
778.215	0.0142882
778.293	0.0142706
778.371	0.0142458
778.450	0.0143917
778.528	0.0143294
778.606	0.0143265
778.684	0.0142414
778.762	0.0142722
778.840	0.0143230
778.918	0.0143144
778.996	0.0143237
779.075	0.0143617
779.153	0.0142286
779.231	0.0142043
779.309	0.0143420
779.387	0.0144223
779.465	0.0142894
779.543	0.0143399
779.621	0.0142713
779.700	0.0143783
779.778	0.0143259
779.856	0.0142548
779.934	0.0143496
780.012	0.0143019
780.090	0.0143531
780.168	0.0142739
780.246	0.0143011
780.325	0.0143073
780.403	0.0143612
780.481	0.0142545
780.559	0.0143001
780.637	0.0142310
780.715	0.0142461
780.793	0.0142307
780.871	0.0144277
780.950	0.0142303
781.028	0.0142108
781.106	0.0143683
781.184	0.0141631
781.262	0.0141518
781.340	0.0142671
781.418	0.0142970
781.496	0.0143306
781.575	0.0142004
781.653	0.0143525
781.731	0.0141183
781.809	0.0141095
781.887	0.0141883
781.965	0.0142200
782.043	0.0143331
782.121	0.0142012
782.200	0.0142575
782.278	0.0143548
782.356	0.0143053
782.434	0.0141792
782.512	0.0141697
782.590	0.0141456
782.668	0.0142448
782.746	0.0142491
782.825	0.0141242
782.903	0.0140980
782.981	0.0143085
783.059	0.0142034
783.137	0.0141598
783.215	0.0143494
783.293	0.0143718
783.371	0.0142685
783.450	0.0143957
783.528	0.0144281
783.606	0.0144571
783.684	0.0143260
783.762	0.0144395
783.840	0.0142561
783.918	0.0143716
783.996	0.0144672
784.075	0.0143066
784.153	0.0143416
784.231	0.0143150
784.309	0.0143459
784.387	0.0144389
784.465	0.0144302
784.543	0.0142614
784.621	0.0142637
784.700	0.0143040
784.778	0.0143909
784.856	0.0142799
784.934	0.0143335
785.012	0.0142189
785.090	0.0143417
785.168	0.0142244
785.246	0.0143592
785.325	0.0143011
785.403	0.0144448
785.481	0.0143435
785.559	0.0143231
785.637	0.0142453
785.715	0.0142761
785.793	0.0143001
785.871	0.0143265
785.950	0.0142160
786.028	0.0142859
786.106	0.0141229
786.184	0.0142352
786.262	0.0142770
786.340	0.0143151
786.418	0.0143335
786.496	0.0142356
786.575	0.0143602
786.653	0.0142249
786.731	0.0142922
786.809	0.0142913
786.887	0.0142720
786.965	0.0143073
787.043	0.0141847
787.121	0.0142354
787.200	0.0142724
787.278	0.0143360
787.356	0.0143440
787.434	0.0143037
787.512	0.0144164
787.590	0.0143909
787.668	0.0144202
787.746	0.0143199
787.825	0.0142474
787.903	0.0143044
787.981	0.0143501
788.059	0.0142719
788.137	0.0141940
788.215	0.0143089
788.293	0.0144738
788.371	0.0142609
788.450	0.0142334
788.528	0.0143420
788.606	0.0143859
788.684	0.0141139
788.762	0.0142619
788.840	0.0142622
788.918	0.0142083
788.996	0.0142609
789.075	0.0143196
789.153	0.0142890
789.231	0.0142548
789.309	0.0143533
789.387	0.0142286
789.465	0.0143820
789.543	0.0143360
789.621	0.0143645
789.700	0.0143103
789.778	0.0143288
789.856	0.0142949
789.934	0.0143617
790.012	0.0142790
790.090	0.0142741
790.168	0.0143155
790.246	0.0143032
790.325	0.0143938
790.403	0.0143515
790.481	0.0143251
790.559	0.0142551
790.637	0.0143407
790.715	0.0142706
790.793	0.0143255
790.871	0.0142485
790.950	0.0142331
791.028	0.0143365
791.106	0.0143303
791.184	0.0142866
791.262	0.0144808
791.340	0.0143273
791.418	0.0143320
791.496	0.0143828
791.575	0.0142577
791.653	0.0143204
791.731	0.0144218
791.809	0.0144277
791.887	0.0143008
791.965	0.0144067
792.043	0.0142734
792.121	0.0143380
792.200	0.0142355
792.278	0.0143464
792.356	0.0143894
792.434	0.0143177
792.512	0.0143144
792.590	0.0141508
792.668	0.0142348
792.746	0.0144412
792.825	0.0142802
792.903	0.0143802
792.981	0.0143076
793.059	0.0143497
793.137	0.0144207
793.215	0.0143731
793.293	0.0142922
793.371	0.0143295
793.450	0.0142702
793.528	0.0143433
793.606	0.0143187
793.684	0.0142863
793.762	0.0142881
793.840	0.0142899
793.918	0.0143552
793.996	0.0143951
794.075	0.0142500
794.153	0.0143983
794.231	0.0142979
794.309	0.0143138
794.387	0.0143472
794.465	0.0143154
794.543	0.0142102
794.621	0.0143784
794.700	0.0144592
794.778	0.0143036
794.856	0.0142754
794.934	0.0141962
795.012	0.0142313
795.090	0.0144008
795.168	0.0143896
795.246	0.0143802
795.325	0.0141890
795.403	0.0141216
795.481	0.0142097
795.559	0.0142311
795.637	0.0143714
795.715	0.0143154
795.793	0.0142046
795.871	0.0142383
795.950	0.0143699
796.028	0.0141682
796.106	0.0141088
796.184	0.0143210
796.262	0.0143217
796.340	0.0143210
796.418	0.0141040
796.496	0.0142975
796.575	0.0142616
796.653	0.0143341
796.731	0.0142480
796.809	0.0143180
796.887	0.0142857
796.965	0.0143525
797.043	0.0143521
797.121	0.0142343
797.200	0.0141735
797.278	0.0141254
797.356	0.0141747
797.434	0.0143311
797.512	0.0143624
797.590	0.0141663
797.668	0.0142516
797.746	0.0142562
797.825	0.0143172
797.903	0.0142448
797.981	0.0141964
798.059	0.0143945
798.137	0.0142106
798.215	0.0143157
798.293	0.0143650
798.371	0.0143548
798.450	0.0144280
798.528	0.0141560
798.606	0.0141590
798.684	0.0143265
798.762	0.0143866
798.840	0.0144118
798.918	0.0143886
798.996	0.0142837
799.075	0.0143839
799.153	0.0142767
799.231	0.0143676
799.309	0.0142765
799.387	0.0144331
799.465	0.0144585
799.543	0.0141750
799.621	0.0142847
799.700	0.0144097
799.778	0.0143393
799.856	0.0142097
799.934	0.0141505
800.012	0.0144212
800.090	0.0143299
800.168	0.0143263
800.246	0.0143587
800.325	0.0142410
800.403	0.0143655
800.481	0.0142290
800.559	0.0142294
800.637	0.0142815
800.715	0.0141921
800.793	0.0142321
800.871	0.0143978
800.950	0.0143320
801.028	0.0141820
801.106	0.0144181
801.184	0.0143035
801.262	0.0143160
801.340	0.0143448
801.418	0.0142741
801.496	0.0143022
801.575	0.0142526
801.653	0.0142046
801.731	0.0143732
801.809	0.0145224
801.887	0.0143959
801.965	0.0145313
802.043	0.0144124
802.121	0.0143461
802.200	0.0143086
802.278	0.0143755
802.356	0.0143108
802.434	0.0143930
802.512	0.0144366
802.590	0.0143874
802.668	0.0143349
802.746	0.0143126
802.825	0.0143253
802.903	0.0143724
802.981	0.0142544
803.059	0.0142409
803.137	0.0142660
803.215	0.0143404
803.293	0.0142212
803.371	0.0141914
803.450	0.0143920
803.528	0.0144567
803.606	0.0143743
803.684	0.0142616
803.762	0.0143004
803.840	0.0143724
803.918	0.0144152
803.996	0.0145190
804.075	0.0144519
804.153	0.0144357
804.231	0.0144942
804.309	0.0143446
804.387	0.0145037
804.465	0.0143712
804.543	0.0143511
804.621	0.0143438
804.700	0.0142973
804.778	0.0143419
804.856	0.0143087
804.934	0.0142944
805.012	0.0143600
805.090	0.0144219
805.168	0.0143753
805.246	0.0143540
805.325	0.0142619
805.403	0.0144726
805.481	0.0142725
805.559	0.0141732
805.637	0.0142404
805.715	0.0143162
805.793	0.0142529
805.871	0.0141652
805.950	0.0141957
806.028	0.0142612
806.106	0.0143328
806.184	0.0141576
806.262	0.0142603
806.340	0.0144113
806.418	0.0143224
806.496	0.0143168
806.575	0.0142853
806.653	0.0142503
806.731	0.0143301
806.809	0.0144283
806.887	0.0144276
806.965	0.0144330
807.043	0.0145410
807.121	0.0142963
807.200	0.0145013
807.278	0.0143610
807.356	0.0143209
807.434	0.0143703
807.512	0.0143918
807.590	0.0144202
807.668	0.0145024
807.746	0.0143405
807.825	0.0143312
807.903	0.0144682
807.981	0.0144386
808.059	0.0143648
808.137	0.0142626
808.215	0.0145274
808.293	0.0145348
808.371	0.0143852
808.450	0.0142240
808.528	0.0143497
808.606	0.0142484
808.684	0.0142297
808.762	0.0143314
808.840	0.0142956
808.918	0.0141589
808.996	0.0140681
809.075	0.0142397
809.153	0.0142514
809.231	0.0141943
809.309	0.0141165
809.387	0.0142681
809.465	0.0143097
809.543	0.0141556
809.621	0.0140826
809.700	0.0141177
809.778	0.0142412
809.856	0.0143334
809.934	0.0143851
810.012	0.0143623
810.090	0.0142825
810.168	0.0143668
810.246	0.0143680
810.325	0.0143694
810.403	0.0144768
810.481	0.0143266
810.559	0.0143613
810.637	0.0144931
810.715	0.0145174
810.793	0.0144775
810.871	0.0144688
810.950	0.0145356
811.028	0.0144498
811.106	0.0144032
811.184	0.0144405
811.262	0.0143899
811.340	0.0144063
811.418	0.0143246
811.496	0.0144253
811.575	0.0142760
811.653	0.0143462
811.731	0.0142909
811.809	0.0142544
811.887	0.0142795
811.965	0.0143119
812.043	0.0142052
812.121	0.0139960
812.200	0.0141574
812.278	0.0141448
812.356	0.0141339
812.434	0.0141074
812.512	0.0141434
812.590	0.0140948
812.668	0.0141949
812.746	0.0140715
812.825	0.0142962
812.903	0.0143762
812.981	0.0144049
813.059	0.0143301
813.137	0.0142955
813.215	0.0142790
813.293	0.0144099
813.371	0.0143410
813.450	0.0144012
813.528	0.0142912
813.606	0.0142473
813.684	0.0144228
813.762	0.0142909
813.840	0.0142311
813.918	0.0145412
813.996	0.0142252
814.075	0.0143607
814.153	0.0144503
814.231	0.0144492
814.309	0.0144491
814.387	0.0143108
814.465	0.0144625
814.543	0.0142969
814.621	0.0142606
814.700	0.0143181
814.778	0.0142778
814.856	0.0143137
814.934	0.0143215
815.012	0.0142561
815.090	0.0143429
815.168	0.0143349
815.246	0.0142197
815.325	0.0143708
815.403	0.0143135
815.481	0.0142757
815.559	0.0143434
815.637	0.0144563
815.715	0.0143908
815.793	0.0143018
815.871	0.0143040
815.950	0.0144762
816.028	0.0143515
816.106	0.0143056
816.184	0.0143652
816.262	0.0144243
816.340	0.0143354
816.418	0.0143682
816.496	0.0143357
816.575	0.0144174
816.653	0.0143526
816.731	0.0142382
816.809	0.0144371
816.887	0.0142981
816.965	0.0142655
817.043	0.0143379
817.121	0.0142302
817.200	0.0142622
817.278	0.0142551
817.356	0.0142282
817.434	0.0142822
817.512	0.0142281
817.590	0.0142026
817.668	0.0142636
817.746	0.0143523
817.825	0.0142921
817.903	0.0141617
817.981	0.0144003
818.059	0.0143774
818.137	0.0143333
818.215	0.0143740
818.293	0.0142979
818.371	0.0143237
818.450	0.0142019
818.528	0.0142807
818.606	0.0144640
818.684	0.0144408
818.762	0.0143277
818.840	0.0142928
818.918	0.0144937
818.996	0.0142737
819.075	0.0142327
819.153	0.0143327
819.231	0.0142446
819.309	0.0143258
819.387	0.0143074
819.465	0.0143868
819.543	0.0143711
819.621	0.0143685
819.700	0.0143449
819.778	0.0143975
819.856	0.0143821
819.934	0.0143691
820.012	0.0144069
820.090	0.0142376
820.168	0.0143354
820.246	0.0143739
820.325	0.0142980
820.403	0.0141479
820.481	0.0141350
820.559	0.0142291
820.637	0.0142300
820.715	0.0141633
820.793	0.0141735
820.871	0.0143297
820.950	0.0143228
821.028	0.0142586
821.106	0.0142313
821.184	0.0142696
821.262	0.0142827
821.340	0.0142596
821.418	0.0142173
821.496	0.0143254
821.575	0.0143474
821.653	0.0142951
821.731	0.0142201
821.809	0.0141848
821.887	0.0142920
821.965	0.0143020
822.043	0.0142459
822.121	0.0143181
822.200	0.0143479
822.278	0.0143140
822.356	0.0143665
822.434	0.0144438
822.512	0.0144090
822.590	0.0143964
822.668	0.0144370
822.746	0.0144198
822.825	0.0143690
822.903	0.0143916
822.981	0.0143967
823.059	0.0144101
823.137	0.0144611
823.215	0.0144214
823.293	0.0143146
823.371	0.0142780
823.450	0.0141756
823.528	0.0142009
823.606	0.0142946
823.684	0.0143384
823.762	0.0142809
823.840	0.0142581
823.918	0.0142075
823.996	0.0143594
824.075	0.0142683
824.153	0.0141197
824.231	0.0141939
824.309	0.0142253
824.387	0.0142384
824.465	0.0144241
824.543	0.0143713
824.621	0.0142175
824.700	0.0142235
824.778	0.0143436
824.856	0.0142925
824.934	0.0143747
825.012	0.0142390
825.090	0.0143140
825.168	0.0142268
825.246	0.0142619
825.325	0.0143377
825.403	0.0142572
825.481	0.0142815
825.559	0.0142480
825.637	0.0142968
825.715	0.0142696
825.793	0.0145027
825.871	0.0143127
825.950	0.0142340
826.028	0.0143452
826.106	0.0143830
826.184	0.0142106
826.262	0.0143994
826.340	0.0142570
826.418	0.0142596
826.496	0.0142565
826.575	0.0142478
826.653	0.0142573
826.731	0.0143305
826.809	0.0142531
826.887	0.0144695
826.965	0.0142558
827.043	0.0142808
827.121	0.0143934
827.200	0.0144574
827.278	0.0144155
827.356	0.0143710
827.434	0.0142473
827.512	0.0145270
827.590	0.0143256
827.668	0.0144331
827.746	0.0143863
827.825	0.0144049
827.903	0.0144255
827.981	0.0144199
828.059	0.0143693
828.137	0.0144013
828.215	0.0141608
828.293	0.0143452
828.371	0.0143707
828.450	0.0143226
828.528	0.0143348
828.606	0.0142782
828.684	0.0142869
828.762	0.0141874
828.840	0.0144155
828.918	0.0144460
828.996	0.0142356
829.075	0.0142464
829.153	0.0141546
829.231	0.0140767
829.309	0.0142062
829.387	0.0143501
829.465	0.0143393
829.543	0.0143340
829.621	0.0142125
829.700	0.0142874
829.778	0.0143137
829.856	0.0144294
829.934	0.0144395
830.012	0.0143427
830.090	0.0144228
830.168	0.0143941
830.246	0.0143941
830.325	0.0143253
830.403	0.0143208
830.481	0.0144401
830.559	0.0144113
830.637	0.0144510
830.715	0.0142347
830.793	0.0143504
830.871	0.0143472
830.950	0.0144386
831.028	0.0142509
831.106	0.0143008
831.184	0.0143172
831.262	0.0142481
831.340	0.0142508
831.418	0.0142090
831.496	0.0141718
831.575	0.0142869
831.653	0.0143568
831.731	0.0141927
831.809	0.0143179
831.887	0.0143344
831.965	0.0142909
832.043	0.0144262
832.121	0.0143501
832.200	0.0142105
832.278	0.0142978
832.356	0.0143414
832.434	0.0143756
832.512	0.0143053
832.590	0.0142581
832.668	0.0141441
832.746	0.0141071
832.825	0.0142216
832.903	0.0142224
832.981	0.0142169
833.059	0.0143510
833.137	0.0141902
833.215	0.0141730
833.293	0.0142805
833.371	0.0142245
833.450	0.0142143
833.528	0.0143512
833.606	0.0143076
833.684	0.0142439
833.762	0.0142841
833.840	0.0143745
833.918	0.0144199
833.996	0.0142614
834.075	0.0143019
834.153	0.0143485
834.231	0.0144041
834.309	0.0144893
834.387	0.0142793
834.465	0.0142306
834.543	0.0144017
834.621	0.0143818
834.700	0.0142847
834.778	0.0141947
834.856	0.0142723
834.934	0.0143021
835.012	0.0142459
835.090	0.0142741
835.168	0.0141837
835.246	0.0140644
835.325	0.0142168
835.403	0.0141434
835.481	0.0140715
835.559	0.0142878
835.637	0.0142374
835.715	0.0141700
835.793	0.0141438
835.871	0.0142365
835.950	0.0141814
836.028	0.0142198
836.106	0.0142356
836.184	0.0142693
836.262	0.0142324
836.340	0.0142107
836.418	0.0140921
836.496	0.0143256
836.575	0.0142265
836.653	0.0142712
836.731	0.0141997
836.809	0.0141801
836.887	0.0143131
836.965	0.0142568
837.043	0.0143314
837.121	0.0144451
837.200	0.0143769
837.278	0.0142800
837.356	0.0141542
837.434	0.0143650
837.512	0.0143764
837.590	0.0143108
837.668	0.0143253
837.746	0.0141393
837.825	0.0142894
837.903	0.0142676
837.981	0.0142519
838.059	0.0144539
838.137	0.0143630
838.215	0.0142516
838.293	0.0143340
838.371	0.0142595
838.450	0.0142653
838.528	0.0142477
838.606	0.0142611
838.684	0.0143872
838.762	0.0142039
838.840	0.0141960
838.918	0.0142090
838.996	0.0143294
839.075	0.0142155
839.153	0.0142445
839.231	0.0141494
839.309	0.0142760
839.387	0.0141566
839.465	0.0142230
839.543	0.0143081
839.621	0.0143093
839.700	0.0142321
839.778	0.0142305
839.856	0.0143617
839.934	0.0142914
840.012	0.0143092
840.090	0.0143060
840.168	0.0143167
840.246	0.0142677
840.325	0.0143240
840.403	0.0143702
840.481	0.0143896
840.559	0.0143008
840.637	0.0143594
840.715	0.0142955
840.793	0.0142465
840.871	0.0142757
840.950	0.0143188
841.028	0.0143558
841.106	0.0143116
841.184	0.0142281
841.262	0.0143350
841.340	0.0143047
841.418	0.0142295
841.496	0.0141590
841.575	0.0140680
841.653	0.0142191
841.731	0.0142359
841.809	0.0141869
841.887	0.0142004
841.965	0.0142508
842.043	0.0142411
842.121	0.0142783
842.200	0.0143900
842.278	0.0142361
842.356	0.0142982
842.434	0.0143300
842.512	0.0142313
842.590	0.0142661
842.668	0.0143459
842.746	0.0142329
842.825	0.0141965
842.903	0.0142814
842.981	0.0142834
843.059	0.0141689
843.137	0.0143484
843.215	0.0143066
843.293	0.0142459
843.371	0.0142242
843.450	0.0143642
843.528	0.0142485
843.606	0.0142405
843.684	0.0144427
843.762	0.0143550
843.840	0.0142999
843.918	0.0144005
843.996	0.0141806
844.075	0.0143649
844.153	0.0144222
844.231	0.0142312
844.309	0.0142346
844.387	0.0143604
844.465	0.0143970
844.543	0.0143764
844.621	0.0142899
844.700	0.0142204
844.778	0.0143946
844.856	0.0143514
844.934	0.0143816
845.012	0.0143943
845.090	0.0141384
845.168	0.0142816
845.246	0.0142649
845.325	0.0143526
845.403	0.0142969
845.481	0.0143032
845.559	0.0142735
845.637	0.0143547
845.715	0.0142908
845.793	0.0142333
845.871	0.0143053
845.950	0.0143575
846.028	0.0143465
846.106	0.0143373
846.184	0.0141891
846.262	0.0141312
846.340	0.0142747
846.418	0.0143048
846.496	0.0143195
846.575	0.0143262
846.653	0.0143607
846.731	0.0142297
846.809	0.0142646
846.887	0.0143777
846.965	0.0143414
847.043	0.0142921
847.121	0.0142892
847.200	0.0143344
847.278	0.0143799
847.356	0.0143135
847.434	0.0145572
847.512	0.0143661
847.590	0.0141637
847.668	0.0143677
847.746	0.0144578
847.825	0.0143396
847.903	0.0144704
847.981	0.0144862
848.059	0.0143154
848.137	0.0143231
848.215	0.0143833
848.293	0.0143301
848.371	0.0142018
848.450	0.0142520
848.528	0.0143594
848.606	0.0142637
848.684	0.0143638
848.762	0.0142928
848.840	0.0143755
848.918	0.0143259
848.996	0.0142424
849.075	0.0142252
849.153	0.0142646
849.231	0.0144093
849.309	0.0142057
849.387	0.0142531
849.465	0.0141862
849.543	0.0141374
849.621	0.0142173
849.700	0.0142915
849.778	0.0142537
849.856	0.0142291
849.934	0.0142599
850.012	0.0143279
850.090	0.0141190
850.168	0.0141613
850.246	0.0142779
850.325	0.0141637
850.403	0.0142019
850.481	0.0142634
850.559	0.0142402
850.637	0.0141584
850.715	0.0141708
850.793	0.0143179
850.871	0.0143667
850.950	0.0143188
851.028	0.0142585
851.106	0.0142905
851.184	0.0142835
851.262	0.0142529
851.340	0.0143549
851.418	0.0143085
851.496	0.0143697
851.575	0.0143840
851.653	0.0143028
851.731	0.0143620
851.809	0.0142854
851.887	0.0144228
851.965	0.0143450
852.043	0.0143764
852.121	0.0141556
852.200	0.0143237
852.278	0.0143256
852.356	0.0144372
852.434	0.0143439
852.512	0.0143510
852.590	0.0140916
852.668	0.0142822
852.746	0.0143909
852.825	0.0142601
852.903	0.0142737
852.981	0.0143144
853.059	0.0142550
853.137	0.0143217
853.215	0.0141934
853.293	0.0143555
853.371	0.0141878
853.450	0.0143010
853.528	0.0142350
853.606	0.0142966
853.684	0.0142065
853.762	0.0142795
853.840	0.0142417
853.918	0.0143192
853.996	0.0142120
854.075	0.0142023
854.153	0.0143467
854.231	0.0141718
854.309	0.0141907
854.387	0.0142726
854.465	0.0142588
854.543	0.0141740
854.621	0.0141852
854.700	0.0141119
854.778	0.0142796
854.856	0.0142206
854.934	0.0143235
855.012	0.0143941
855.090	0.0142684
855.168	0.0143663
855.246	0.0142909
855.325	0.0143606
855.403	0.0142206
855.481	0.0141981
855.559	0.0143513
855.637	0.0142131
855.715	0.0143034
855.793	0.0143674
855.871	0.0142871
855.950	0.0143209
856.028	0.0142487
856.106	0.0143250
856.184	0.0142359
856.262	0.0143166
856.340	0.0142894
856.418	0.0142030
856.496	0.0142497
856.575	0.0143275
856.653	0.0142229
856.731	0.0142033
856.809	0.0141453
856.887	0.0141930
856.965	0.0142217
857.043	0.0141908
857.121	0.0142721
857.200	0.0142669
857.278	0.0142899
857.356	0.0141921
857.434	0.0140624
857.512	0.0143407
857.590	0.0141641
857.668	0.0143182
857.746	0.0142417
857.825	0.0142206
857.903	0.0143597
857.981	0.0143875
858.059	0.0141269
858.137	0.0142439
858.215	0.0143176
858.293	0.0142613
858.371	0.0142838
858.450	0.0142648
858.528	0.0141257
858.606	0.0142146
858.684	0.0142933
858.762	0.0142869
858.840	0.0142538
858.918	0.0141342
858.996	0.0142262
859.075	0.0142706
859.153	0.0141485
859.231	0.0142273
859.309	0.0142706
859.387	0.0142042
859.465	0.0142914
859.543	0.0145333
859.621	0.0141773
859.700	0.0142431
859.778	0.0142355
859.856	0.0141568
859.934	0.0143556
860.012	0.0142740
860.090	0.0140908
860.168	0.0141990
860.246	0.0141318
860.325	0.0142178
860.403	0.0141711
860.481	0.0141171
860.559	0.0141800
860.637	0.0142774
860.715	0.0143288
860.793	0.0141441
860.871	0.0142725
860.950	0.0141249
861.028	0.0141064
861.106	0.0141095
861.184	0.0141592
861.262	0.0143385
861.340	0.0141754
861.418	0.0141151
861.496	0.0141468
861.575	0.0142702
861.653	0.0142900
861.731	0.0141398
861.809	0.0143042
861.887	0.0141900
861.965	0.0142531
862.043	0.0141750
862.121	0.0141054
862.200	0.0143101
862.278	0.0141553
862.356	0.0143803
862.434	0.0142818
862.512	0.0142673
862.590	0.0142546
862.668	0.0143871
862.746	0.0142606
862.825	0.0143169
862.903	0.0141785
862.981	0.0142990
863.059	0.0142977
863.137	0.0143564
863.215	0.0144411
863.293	0.0144285
863.371	0.0142751
863.450	0.0142941
863.528	0.0143230
863.606	0.0143184
863.684	0.0143660
863.762	0.0143365
863.840	0.0141676
863.918	0.0142519
863.996	0.0142164
864.075	0.0143390
864.153	0.0142953
864.231	0.0143209
864.309	0.0143556
864.387	0.0141343
864.465	0.0142561
864.543	0.0143441
864.621	0.0142410
864.700	0.0144477
864.778	0.0141633
864.856	0.0141439
864.934	0.0142301
865.012	0.0142477
865.090	0.0144393
865.168	0.0142556
865.246	0.0142730
865.325	0.0143339
865.403	0.0142850
865.481	0.0142532
865.559	0.0142516
865.637	0.0144153
865.715	0.0142576
865.793	0.0142263
865.871	0.0142136
865.950	0.0143970
866.028	0.0143088
866.106	0.0143608
866.184	0.0142683
866.262	0.0142149
866.340	0.0143186
866.418	0.0143700
866.496	0.0144157
866.575	0.0143016
866.653	0.0142567
866.731	0.0141586
866.809	0.0142866
866.887	0.0145190
866.965	0.0144429
867.043	0.0143127
867.121	0.0143415
867.200	0.0143947
867.278	0.0143475
867.356	0.0144154
867.434	0.0144860
867.512	0.0144053
867.590	0.0142467
867.668	0.0143450
867.746	0.0143725
867.825	0.0143404
867.903	0.0143821
867.981	0.0143473
868.059	0.0144269
868.137	0.0143779
868.215	0.0141912
868.293	0.0143188
868.371	0.0143483
868.450	0.0143962
868.528	0.0144522
868.606	0.0143948
868.684	0.0144655
868.762	0.0143034
868.840	0.0143372
868.918	0.0142854
868.996	0.0142816
869.075	0.0143237
869.153	0.0142742
869.231	0.0142940
869.309	0.0143292
869.387	0.0142802
869.465	0.0143087
869.543	0.0143551
869.621	0.0141605
869.700	0.0142523
869.778	0.0142811
869.856	0.0143179
869.934	0.0143111
870.012	0.0143077
870.090	0.0143047
870.168	0.0144655
870.246	0.0143707
870.325	0.0144322
870.403	0.0143653
870.481	0.0144641
870.559	0.0143607
870.637	0.0143026
870.715	0.0143113
870.793	0.0143409
870.871	0.0144035
870.950	0.0143671
871.028	0.0143629
871.106	0.0142922
871.184	0.0144187
871.262	0.0142718
871.340	0.0143356
871.418	0.0142134
871.496	0.0141666
871.575	0.0142554
871.653	0.0142987
871.731	0.0143553
871.809	0.0142329
871.887	0.0144218
871.965	0.0144321
872.043	0.0143405
872.121	0.0144547
872.200	0.0142641
872.278	0.0143038
872.356	0.0142737
872.434	0.0141056
872.512	0.0142105
872.590	0.0143089
872.668	0.0142528
872.746	0.0144582
872.825	0.0143570
872.903	0.0142922
872.981	0.0144125
873.059	0.0143951
873.137	0.0143313
873.215	0.0142377
873.293	0.0142485
873.371	0.0142908
873.450	0.0143102
873.528	0.0142233
873.606	0.0142696
873.684	0.0143342
873.762	0.0143690
873.840	0.0142775
873.918	0.0143133
873.996	0.0143898
874.075	0.0143617
874.153	0.0142760
874.231	0.0142943
874.309	0.0142754
874.387	0.0143279
874.465	0.0144664
874.543	0.0142744
874.621	0.0142439
874.700	0.0142358
874.778	0.0142872
874.856	0.0143140
874.934	0.0143726
875.012	0.0142756
875.090	0.0143580
875.168	0.0143362
875.246	0.0142052
875.325	0.0143619
875.403	0.0143642
875.481	0.0142276
875.559	0.0143140
875.637	0.0142925
875.715	0.0142867
875.793	0.0142609
875.871	0.0142093
875.950	0.0141623
876.028	0.0143103
876.106	0.0142109
876.184	0.0141853
876.262	0.0141751
876.340	0.0142957
876.418	0.0141828
876.496	0.0141705
876.575	0.0142766
876.653	0.0142093
876.731	0.0143097
876.809	0.0143169
876.887	0.0143696
876.965	0.0142941
877.043	0.0143311
877.121	0.0144225
877.200	0.0144002
877.278	0.0143848
877.356	0.0142362
877.434	0.0143629
877.512	0.0144185
877.590	0.0142101
877.668	0.0144019
877.746	0.0143204
877.825	0.0143372
877.903	0.0144010
877.981	0.0143499
878.059	0.0143588
878.137	0.0142790
878.215	0.0144444
878.293	0.0142377
878.371	0.0143687
878.450	0.0142511
878.528	0.0142702
878.606	0.0142542
878.684	0.0142751
878.762	0.0142495
878.840	0.0141953
878.918	0.0142432
878.996	0.0142629
879.075	0.0142971
879.153	0.0140907
879.231	0.0142125
879.309	0.0143615
879.387	0.0142642
879.465	0.0142297
879.543	0.0142477
879.621	0.0143755
879.700	0.0142847
879.778	0.0142981
879.856	0.0141670
879.934	0.0143086
880.012	0.0142633
880.090	0.0141067
880.168	0.0141508
880.246	0.0141952
880.325	0.0142078
880.403	0.0141642
880.481	0.0142122
880.559	0.0141874
880.637	0.0142692
880.715	0.0143794
880.793	0.0144530
880.871	0.0143756
880.950	0.0143392
881.028	0.0143348
881.106	0.0143134
881.184	0.0142413
881.262	0.0144169
881.340	0.0144044
881.418	0.0144041
881.496	0.0143237
881.575	0.0142677
881.653	0.0142844
881.731	0.0144465
881.809	0.0142847
881.887	0.0141817
881.965	0.0141425
882.043	0.0143300
882.121	0.0142400
882.200	0.0141173
882.278	0.0143353
882.356	0.0143826
882.434	0.0141973
882.512	0.0142519
882.590	0.0142511
882.668	0.0141054
882.746	0.0142151
882.825	0.0142784
882.903	0.0143124
882.981	0.0142884
883.059	0.0144699
883.137	0.0143792
883.215	0.0143623
883.293	0.0144300
883.371	0.0145324
883.450	0.0143896
883.528	0.0145148
883.606	0.0144643
883.684	0.0143721
883.762	0.0144513
883.840	0.0143063
883.918	0.0142657
883.996	0.0144768
884.075	0.0144469
884.153	0.0142432
884.231	0.0143016
884.309	0.0142578
884.387	0.0141592
884.465	0.0141170
884.543	0.0141579
884.621	0.0142794
884.700	0.0141811
884.778	0.0142397
884.856	0.0142551
884.934	0.0142059
885.012	0.0142589
885.090	0.0142545
885.168	0.0143573
885.246	0.0143279
885.325	0.0142321
885.403	0.0144613
885.481	0.0144171
885.559	0.0143721
885.637	0.0144048
885.715	0.0144450
885.793	0.0145087
885.871	0.0143861
885.950	0.0144115
886.028	0.0144412
886.106	0.0144427
886.184	0.0144169
886.262	0.0144037
886.340	0.0144100
886.418	0.0144207
886.496	0.0144268
886.575	0.0143909
886.653	0.0143858
886.731	0.0142915
886.809	0.0141100
886.887	0.0141814
886.965	0.0143398
887.043	0.0142847
887.121	0.0141883
887.200	0.0140911
887.278	0.0142630
887.356	0.0143953
887.434	0.0142823
887.512	0.0142919
887.590	0.0143848
887.668	0.0144215
887.746	0.0143215
887.825	0.0144444
887.903	0.0145003
887.981	0.0143475
888.059	0.0143463
888.137	0.0143614
888.215	0.0143346
888.293	0.0143761
888.371	0.0142500
888.450	0.0142583
888.528	0.0142741
888.606	0.0143708
888.684	0.0142742
888.762	0.0144397
888.840	0.0144676
888.918	0.0144904
888.996	0.0144846
889.075	0.0144539
889.153	0.0145631
889.231	0.0145551
889.309	0.0145824
889.387	0.0145296
889.465	0.0145338
889.543	0.0145506
889.621	0.0143416
889.700	0.0142606
889.778	0.0144320
889.856	0.0143333
889.934	0.0141741
890.012	0.0141708
890.090	0.0142808
890.168	0.0142490
890.246	0.0142877
890.325	0.0142953
890.403	0.0143591
890.481	0.0143183
890.559	0.0142412
890.637	0.0142847
890.715	0.0144910
890.793	0.0144917
890.871	0.0144401
890.950	0.0144530
891.028	0.0144559
891.106	0.0143505
891.184	0.0144352
891.262	0.0145166
891.340	0.0143710
891.418	0.0142488
891.496	0.0143856
891.575	0.0143589
891.653	0.0143849
891.731	0.0144080
891.809	0.0145319
891.887	0.0143484
891.965	0.0143279
892.043	0.0143127
892.121	0.0144051
892.200	0.0142980
892.278	0.0141784
892.356	0.0141772
892.434	0.0142435
892.512	0.0141948
892.590	0.0140606
892.668	0.0142159
892.746	0.0141933
892.825	0.0142676
892.903	0.0142889
892.981	0.0143520
893.059	0.0143497
893.137	0.0142631
893.215	0.0142950
893.293	0.0144605
893.371	0.0143069
893.450	0.0143519
893.528	0.0143615
893.606	0.0143880
893.684	0.0142957
893.762	0.0143718
893.840	0.0142999
893.918	0.0144206
893.996	0.0144120
894.075	0.0142492
894.153	0.0141814
894.231	0.0143330
894.309	0.0143333
894.387	0.0142706
894.465	0.0143237
894.543	0.0143038
894.621	0.0143436
894.700	0.0143007
894.778	0.0144057
894.856	0.0143897
894.934	0.0144396
895.012	0.0143562
895.090	0.0142656
895.168	0.0142651
895.246	0.0142825
895.325	0.0143684
895.403	0.0143008
895.481	0.0143588
895.559	0.0141956
895.637	0.0142551
895.715	0.0142158
895.793	0.0142325
895.871	0.0142244
895.950	0.0143377
896.028	0.0142755
896.106	0.0142442
896.184	0.0141624
896.262	0.0143615
896.340	0.0142719
896.418	0.0141599
896.496	0.0142055
896.575	0.0142966
896.653	0.0142670
896.731	0.0142622
896.809	0.0142139
896.887	0.0142837
896.965	0.0141945
897.043	0.0143200
897.121	0.0142820
897.200	0.0142820
897.278	0.0143223
897.356	0.0141582
897.434	0.0142715
897.512	0.0143748
897.590	0.0145032
897.668	0.0145252
897.746	0.0144717
897.825	0.0144907
897.903	0.0143149
897.981	0.0144388
898.059	0.0144076
898.137	0.0143971
898.215	0.0143050
898.293	0.0143228
898.371	0.0142670
898.450	0.0142094
898.528	0.0141454
898.606	0.0142829
898.684	0.0141402
898.762	0.0142773
898.840	0.0141630
898.918	0.0141973
898.996	0.0142794
899.075	0.0141670
899.153	0.0143031
899.231	0.0142945
899.309	0.0143478
899.387	0.0145186
899.465	0.0145007
899.543	0.0141882
899.621	0.0141844
899.700	0.0143656
899.778	0.0143169
899.856	0.0145216
899.934	0.0143813
900.012	0.0142526
900.090	0.0143386
900.168	0.0142404
900.246	0.0141851
900.325	0.0142587
900.403	0.0143031
900.481	0.0141474
900.559	0.0142130
900.637	0.0143086
900.715	0.0143188
900.793	0.0143597
900.871	0.0143823
900.950	0.0144024
901.028	0.0143149
901.106	0.0143089
901.184	0.0143867
901.262	0.0142574
901.340	0.0143396
901.418	0.0142609
901.496	0.0141520
901.575	0.0142421
901.653	0.0143996
901.731	0.0141373
901.809	0.0143835
901.887	0.0144389
901.965	0.0144136
902.043	0.0143954
902.121	0.0142178
902.200	0.0144250
902.278	0.0145474
902.356	0.0144986
902.434	0.0145180
902.512	0.0143771
902.590	0.0144086
902.668	0.0142773
902.746	0.0144320
902.825	0.0144245
902.903	0.0142496
902.981	0.0144159
903.059	0.0142863
903.137	0.0139953
903.215	0.0142316
903.293	0.0140778
903.371	0.0141955
903.450	0.0142548
903.528	0.0141864
903.606	0.0143593
903.684	0.0142994
903.762	0.0143857
903.840	0.0144565
903.918	0.0142616
903.996	0.0141999
904.075	0.0144332
904.153	0.0143212
904.231	0.0144054
904.309	0.0142194
904.387	0.0141580
904.465	0.0143429
904.543	0.0143625
904.621	0.0143501
904.700	0.0142390
904.778	0.0143193
904.856	0.0142480
904.934	0.0143047
905.012	0.0142422
905.090	0.0142648
905.168	0.0142711
905.246	0.0144726
905.325	0.0144766
905.403	0.0143619
905.481	0.0145177
905.559	0.0146017
905.637	0.0144514
905.715	0.0142594
905.793	0.0144111
905.871	0.0143394
905.950	0.0143225
906.028	0.0142731
906.106	0.0143245
906.184	0.0142503
906.262	0.0141976
906.340	0.0144004
906.418	0.0142307
906.496	0.0143063
906.575	0.0143449
906.653	0.0142563
906.731	0.0143311
906.809	0.0142992
906.887	0.0143457
906.965	0.0143639
907.043	0.0143537
907.121	0.0144331
907.200	0.0145365
907.278	0.0144736
907.356	0.0143307
907.434	0.0144185
907.512	0.0143486
907.590	0.0143709
907.668	0.0142856
907.746	0.0140578
907.825	0.0142343
907.903	0.0143340
907.981	0.0143025
908.059	0.0143314
908.137	0.0142974
908.215	0.0142311
908.293	0.0143301
908.371	0.0144345
908.450	0.0143697
908.528	0.0144198
908.606	0.0145842
908.684	0.0145481
908.762	0.0144314
908.840	0.0146027
908.918	0.0144955
908.996	0.0144103
909.075	0.0145557
909.153	0.0144319
909.231	0.0144374
909.309	0.0143308
909.387	0.0145444
909.465	0.0143862
909.543	0.0142005
909.621	0.0144260
909.700	0.0143154
909.778	0.0143404
909.856	0.0143005
909.934	0.0142633
910.012	0.0142125
910.090	0.0143919
910.168	0.0142630
910.246	0.0142828
910.325	0.0144055
910.403	0.0143852
910.481	0.0143388
910.559	0.0142793
910.637	0.0144220
910.715	0.0143208
910.793	0.0141891
910.871	0.0142549
910.950	0.0141859
911.028	0.0141772
911.106	0.0141576
911.184	0.0141027
911.262	0.0142033
911.340	0.0142567
911.418	0.0143053
911.496	0.0142677
911.575	0.0144714
911.653	0.0143872
911.731	0.0143852
911.809	0.0144593
911.887	0.0144810
911.965	0.0144857
912.043	0.0144733
912.121	0.0143354
912.200	0.0144502
912.278	0.0144296
912.356	0.0144057
912.434	0.0143976
912.512	0.0144901
912.590	0.0144249
912.668	0.0144520
912.746	0.0143002
912.825	0.0143259
912.903	0.0142748
912.981	0.0142243
913.059	0.0143163
913.137	0.0144999
913.215	0.0143273
913.293	0.0144254
913.371	0.0143728
913.450	0.0142708
913.528	0.0143217
913.606	0.0142291
913.684	0.0144499
913.762	0.0142904
913.840	0.0143785
913.918	0.0144294
913.996	0.0142344
914.075	0.0141267
914.153	0.0142262
914.231	0.0142424
914.309	0.0142384
914.387	0.0142689
914.465	0.0142169
914.543	0.0142815
914.621	0.0144126
914.700	0.0144347
914.778	0.0141434
914.856	0.0144072
914.934	0.0143364
915.012	0.0144147
915.090	0.0143638
915.168	0.0144160
915.246	0.0144935
915.325	0.0144676
915.403	0.0143362
915.481	0.0142818
915.559	0.0145311
915.637	0.0144397
915.715	0.0144098
915.793	0.0142853
915.871	0.0142993
915.950	0.0142825
916.028	0.0142039
916.106	0.0143824
916.184	0.0143398
916.262	0.0143385
916.340	0.0144288
916.418	0.0142532
916.496	0.0142295
916.575	0.0143931
916.653	0.0142817
916.731	0.0143875
916.809	0.0143725
916.887	0.0142826
916.965	0.0142628
917.043	0.0144088
917.121	0.0143138
917.200	0.0142665
917.278	0.0143446
917.356	0.0144101
917.434	0.0141783
917.512	0.0141982
917.590	0.0143009
917.668	0.0142389
917.746	0.0140982
917.825	0.0142572
917.903	0.0141245
917.981	0.0141159
918.059	0.0141048
918.137	0.0141191
918.215	0.0142710
918.293	0.0142596
918.371	0.0142332
918.450	0.0142486
918.528	0.0143710
918.606	0.0143163
918.684	0.0142343
918.762	0.0143736
918.840	0.0143085
918.918	0.0143283
918.996	0.0144107
919.075	0.0143764
919.153	0.0142567
919.231	0.0143049
919.309	0.0141117
919.387	0.0142214
919.465	0.0143330
919.543	0.0143671
919.621	0.0142966
919.700	0.0142225
919.778	0.0144373
919.856	0.0145700
919.934	0.0142078
920.012	0.0143659
920.090	0.0143690
920.168	0.0142519
920.246	0.0142673
920.325	0.0144141
920.403	0.0144048
920.481	0.0141534
920.559	0.0143722
920.637	0.0143184
920.715	0.0142412
920.793	0.0142294
920.871	0.0141066
920.950	0.0142320
921.028	0.0143433
921.106	0.0142702
921.184	0.0142784
921.262	0.0144181
921.340	0.0143912
921.418	0.0144353
921.496	0.0143365
921.575	0.0142579
921.653	0.0143334
921.731	0.0142645
921.809	0.0142433
921.887	0.0143288
921.965	0.0142911
922.043	0.0142834
922.121	0.0143015
922.200	0.0143168
922.278	0.0142733
922.356	0.0143277
922.434	0.0142748
922.512	0.0142457
922.590	0.0144633
922.668	0.0142452
922.746	0.0143979
922.825	0.0143858
922.903	0.0142490
922.981	0.0143462
923.059	0.0145109
923.137	0.0142815
923.215	0.0142995
923.293	0.0142264
923.371	0.0143253
923.450	0.0142352
923.528	0.0142605
923.606	0.0143837
923.684	0.0143770
923.762	0.0142413
923.840	0.0142831
923.918	0.0142220
923.996	0.0142692
924.075	0.0143607
924.153	0.0145639
924.231	0.0143380
924.309	0.0143256
924.387	0.0143401
924.465	0.0143056
924.543	0.0142298
924.621	0.0143779
924.700	0.0143810
924.778	0.0142598
924.856	0.0143616
924.934	0.0144607
925.012	0.0142014
925.090	0.0143544
925.168	0.0143389
925.246	0.0144901
925.325	0.0143143
925.403	0.0142077
925.481	0.0142989
925.559	0.0145129
925.637	0.0143401
925.715	0.0143798
925.793	0.0142607
925.871	0.0142527
925.950	0.0144128
926.028	0.0142213
926.106	0.0142693
926.184	0.0143115
926.262	0.0142941
926.340	0.0142111
926.418	0.0142349
926.496	0.0142634
926.575	0.0142315
926.653	0.0141824
926.731	0.0141824
926.809	0.0142664
926.887	0.0143161
926.965	0.0142022
927.043	0.0142772
927.121	0.0143101
927.200	0.0143964
927.278	0.0144601
927.356	0.0144323
927.434	0.0143077
927.512	0.0142886
927.590	0.0143150
927.668	0.0142764
927.746	0.0143190
927.825	0.0142587
927.903	0.0142988
927.981	0.0143135
928.059	0.0144629
928.137	0.0141599
928.215	0.0141479
928.293	0.0143024
928.371	0.0143356
928.450	0.0142788
928.528	0.0142754
928.606	0.0143222
928.684	0.0145369
928.762	0.0144261
928.840	0.0144046
928.918	0.0142636
928.996	0.0143505
929.075	0.0144888
929.153	0.0144582
929.231	0.0143452
929.309	0.0141977
929.387	0.0142399
929.465	0.0143616
929.543	0.0143152
929.621	0.0143337
929.700	0.0143719
929.778	0.0143494
929.856	0.0143809
929.934	0.0143426
930.012	0.0142857
930.090	0.0142750
930.168	0.0144569
930.246	0.0141769
930.325	0.0142978
930.403	0.0141402
930.481	0.0141953
930.559	0.0142945
930.637	0.0141597
930.715	0.0141681
930.793	0.0142690
930.871	0.0143882
930.950	0.0143568
931.028	0.0142446
931.106	0.0142651
931.184	0.0142915
931.262	0.0142650
931.340	0.0142175
931.418	0.0143363
931.496	0.0144366
931.575	0.0143674
931.653	0.0142961
931.731	0.0143775
931.809	0.0143414
931.887	0.0142863
931.965	0.0143932
932.043	0.0142776
932.121	0.0143058
932.200	0.0143744
932.278	0.0144520
932.356	0.0143526
932.434	0.0144278
932.512	0.0144005
932.590	0.0143318
932.668	0.0143685
932.746	0.0146293
932.825	0.0144383
932.903	0.0143822
932.981	0.0144600
933.059	0.0143546
933.137	0.0142150
933.215	0.0142615
933.293	0.0145041
933.371	0.0143298
933.450	0.0141341
933.528	0.0143520
933.606	0.0143352
933.684	0.0143716
933.762	0.0144215
933.840	0.0143677
933.918	0.0142419
933.996	0.0143604
934.075	0.0143621
934.153	0.0143056
934.231	0.0143110
934.309	0.0143661
934.387	0.0143054
934.465	0.0141668
934.543	0.0143488
934.621	0.0143553
934.700	0.0142850
934.778	0.0142461
934.856	0.0142496
934.934	0.0144096
935.012	0.0143294
935.090	0.0142534
935.168	0.0143706
935.246	0.0142739
935.325	0.0143047
935.403	0.0142804
935.481	0.0142400
935.559	0.0143000
935.637	0.0143731
935.715	0.0142300
935.793	0.0143668
935.871	0.0144083
935.950	0.0143770
936.028	0.0144064
936.106	0.0143620
936.184	0.0143465
936.262	0.0143209
936.340	0.0144258
936.418	0.0143818
936.496	0.0143007
936.575	0.0142697
936.653	0.0144037
936.731	0.0144640
936.809	0.0144554
936.887	0.0141224
936.965	0.0143640
937.043	0.0143705
937.121	0.0144138
937.200	0.0143025
937.278	0.0142840
937.356	0.0142683
937.434	0.0142329
937.512	0.0141187
937.590	0.0144023
937.668	0.0144926
937.746	0.0143188
937.825	0.0142876
937.903	0.0144523
937.981	0.0142506
938.059	0.0142327
938.137	0.0142797
938.215	0.0143368
938.293	0.0141648
938.371	0.0143778
938.450	0.0142268
938.528	0.0142461
938.606	0.0142788
938.684	0.0142943
938.762	0.0141620
938.840	0.0143181
938.918	0.0142436
938.996	0.0143185
939.075	0.0142087
939.153	0.0143568
939.231	0.0142762
939.309	0.0143064
939.387	0.0142722
939.465	0.0144059
939.543	0.0143355
939.621	0.0143630
939.700	0.0142851
939.778	0.0142873
939.856	0.0143989
939.934	0.0142502
940.012	0.0142446
940.090	0.0143159
940.168	0.0142633
940.246	0.0141438
940.325	0.0144144
940.403	0.0141914
940.481	0.0144875
940.559	0.0142163
940.637	0.0142432
940.715	0.0143317
940.793	0.0143408
940.871	0.0142883
940.950	0.0142999
941.028	0.0144191
941.106	0.0141827
941.184	0.0142406
941.262	0.0144039
941.340	0.0142194
941.418	0.0142771
941.496	0.0142719
941.575	0.0142804
941.653	0.0142126
941.731	0.0142925
941.809	0.0143299
941.887	0.0143085
941.965	0.0143659
942.043	0.0142531
942.121	0.0142616
942.200	0.0142140
942.278	0.0142898
942.356	0.0142213
942.434	0.0141438
942.512	0.0142581
942.590	0.0142529
942.668	0.0142165
942.746	0.0142423
942.825	0.0142378
942.903	0.0142186
942.981	0.0143738
943.059	0.0141903
943.137	0.0142110
943.215	0.0143237
943.293	0.0142902
943.371	0.0142057
943.450	0.0142899
943.528	0.0143103
943.606	0.0142966
943.684	0.0143656
943.762	0.0142686
943.840	0.0142563
943.918	0.0141332
943.996	0.0143273
944.075	0.0142445
944.153	0.0142769
944.231	0.0141600
944.309	0.0142552
944.387	0.0142635
944.465	0.0142571
944.543	0.0142331
944.621	0.0143103
944.700	0.0142259
944.778	0.0142362
944.856	0.0143243
944.934	0.0143573
945.012	0.0143262
945.090	0.0142841
945.168	0.0142196
945.246	0.0143043
945.325	0.0143517
945.403	0.0143544
945.481	0.0144102
945.559	0.0142968
945.637	0.0143594
945.715	0.0142281
945.793	0.0142284
945.871	0.0143140
945.950	0.0143272
946.028	0.0143781
946.106	0.0142482
946.184	0.0141921
946.262	0.0143303
946.340	0.0143860
946.418	0.0143555
946.496	0.0143420
946.575	0.0143748
946.653	0.0143257
946.731	0.0142886
946.809	0.0143484
946.887	0.0144241
946.965	0.0143810
947.043	0.0143024
947.121	0.0143752
947.200	0.0143718
947.278	0.0142859
947.356	0.0143396
947.434	0.0142389
947.512	0.0142684
947.590	0.0142815
947.668	0.0144009
947.746	0.0142076
947.825	0.0141288
947.903	0.0143130
947.981	0.0141187
948.059	0.0141853
948.137	0.0143147
948.215	0.0142947
948.293	0.0142735
948.371	0.0142365
948.450	0.0142707
948.528	0.0142824
948.606	0.0142162
948.684	0.0143110
948.762	0.0141986
948.840	0.0141994
948.918	0.0142110
948.996	0.0143919
949.075	0.0143260
949.153	0.0142819
949.231	0.0142842
949.309	0.0142813
949.387	0.0142657
949.465	0.0141998
949.543	0.0142753
949.621	0.0143311
949.700	0.0143738
949.778	0.0143406
949.856	0.0143815
949.934	0.0143391
950.012	0.0143312
950.090	0.0144177
950.168	0.0142969
950.246	0.0143964
950.325	0.0142793
950.403	0.0142547
950.481	0.0143366
950.559	0.0143098
950.637	0.0142017
950.715	0.0143819
950.793	0.0142205
950.871	0.0143037
950.950	0.0143114
951.028	0.0142870
951.106	0.0142642
951.184	0.0142928
951.262	0.0143633
951.340	0.0141701
951.418	0.0142775
951.496	0.0143486
951.575	0.0142593
951.653	0.0143201
951.731	0.0143002
951.809	0.0144429
951.887	0.0144538
951.965	0.0143652
952.043	0.0142436
952.121	0.0142116
952.200	0.0143048
952.278	0.0142750
952.356	0.0143816
952.434	0.0144147
952.512	0.0144039
952.590	0.0142986
952.668	0.0142679
952.746	0.0143859
952.825	0.0143078
952.903	0.0143966
952.981	0.0143965
953.059	0.0143163
953.137	0.0141984
953.215	0.0142693
953.293	0.0142771
953.371	0.0144161
953.450	0.0143478
953.528	0.0142889
953.606	0.0142914
953.684	0.0144145
953.762	0.0143075
953.840	0.0141670
953.918	0.0142972
953.996	0.0141331
954.075	0.0141776
954.153	0.0142836
954.231	0.0142339
954.309	0.0142699
954.387	0.0143745
954.465	0.0143708
954.543	0.0143319
954.621	0.0144177
954.700	0.0143054
954.778	0.0141861
954.856	0.0143699
954.934	0.0144176
955.012	0.0141590
955.090	0.0142368
955.168	0.0144737
955.246	0.0141014
955.325	0.0143388
955.403	0.0143884
955.481	0.0142617
955.559	0.0143094
955.637	0.0143707
955.715	0.0143286
955.793	0.0142158
955.871	0.0143276
955.950	0.0143571
956.028	0.0143107
956.106	0.0143396
956.184	0.0142847
956.262	0.0142993
956.340	0.0143629
956.418	0.0144044
956.496	0.0142761
956.575	0.0144105
956.653	0.0144029
956.731	0.0144164
956.809	0.0144425
956.887	0.0144721
956.965	0.0143434
957.043	0.0142866
957.121	0.0143416
957.200	0.0144280
957.278	0.0143430
957.356	0.0143761
957.434	0.0144311
957.512	0.0142670
957.590	0.0144312
957.668	0.0142917
957.746	0.0142865
957.825	0.0144232
957.903	0.0143503
957.981	0.0142770
958.059	0.0144194
958.137	0.0142704
958.215	0.0142953
958.293	0.0144044
958.371	0.0143481
958.450	0.0142738
958.528	0.0143005
958.606	0.0144073
958.684	0.0144228
958.762	0.0143034
958.840	0.0144613
958.918	0.0142874
958.996	0.0144562
959.075	0.0144366
959.153	0.0143079
959.231	0.0144540
959.309	0.0143015
959.387	0.0144619
959.465	0.0144360
959.543	0.0142938
959.621	0.0144479
959.700	0.0142938
959.778	0.0142683
959.856	0.0142762
959.934	0.0143518
960.012	0.0143951
960.090	0.0143596
960.168	0.0143851
960.246	0.0143109
960.325	0.0142790
960.403	0.0144008
960.481	0.0144110
960.559	0.0144904
960.637	0.0143652
960.715	0.0143378
960.793	0.0144543
960.871	0.0143380
960.950	0.0142948
961.028	0.0143722
961.106	0.0145549
961.184	0.0143970
961.262	0.0142975
961.340	0.0142780
961.418	0.0143706
961.496	0.0141729
961.575	0.0142221
961.653	0.0142307
961.731	0.0144244
961.809	0.0144086
961.887	0.0142821
961.965	0.0143111
962.043	0.0142671
962.121	0.0143193
962.200	0.0143153
962.278	0.0143205
962.356	0.0142480
962.434	0.0142945
962.512	0.0143518
962.590	0.0144093
962.668	0.0142541
962.746	0.0141634
962.825	0.0144533
962.903	0.0143217
962.981	0.0142773
963.059	0.0144243
963.137	0.0143739
963.215	0.0142763
963.293	0.0143050
963.371	0.0143028
963.450	0.0143748
963.528	0.0142965
963.606	0.0143021
963.684	0.0143748
963.762	0.0145315
963.840	0.0142774
963.918	0.0143850
963.996	0.0142908
964.075	0.0144571
964.153	0.0142805
964.231	0.0143269
964.309	0.0143345
964.387	0.0143797
964.465	0.0143321
964.543	0.0142994
964.621	0.0142576
964.700	0.0142061
964.778	0.0141753
964.856	0.0144594
964.934	0.0143365
965.012	0.0143510
965.090	0.0144062
965.168	0.0143484
965.246	0.0142883
965.325	0.0143422
965.403	0.0143489
965.481	0.0142628
965.559	0.0144145
965.637	0.0143598
965.715	0.0143420
965.793	0.0143639
965.871	0.0142721
965.950	0.0142656
966.028	0.0142480
966.106	0.0142837
966.184	0.0144987
966.262	0.0142783
966.340	0.0142533
966.418	0.0142924
966.496	0.0142583
966.575	0.0143110
966.653	0.0142418
966.731	0.0143323
966.809	0.0142367
966.887	0.0142362
966.965	0.0142690
967.043	0.0142075
967.121	0.0143619
967.200	0.0142690
967.278	0.0144224
967.356	0.0143021
967.434	0.0143171
967.512	0.0142823
967.590	0.0143862
967.668	0.0142861
967.746	0.0141717
967.825	0.0143034
967.903	0.0144183
967.981	0.0144179
968.059	0.0141940
968.137	0.0142484
968.215	0.0143340
968.293	0.0144163
968.371	0.0144639
968.450	0.0143040
968.528	0.0143037
968.606	0.0144054
968.684	0.0143923
968.762	0.0143370
968.840	0.0142885
968.918	0.0143509
968.996	0.0143596
969.075	0.0143414
969.153	0.0143554
969.231	0.0143003
969.309	0.0142776
969.387	0.0143952
969.465	0.0144731
969.543	0.0141975
969.621	0.0142732
969.700	0.0141602
969.778	0.0142280
969.856	0.0142969
969.934	0.0142167
970.012	0.0143999
970.090	0.0143289
970.168	0.0141770
970.246	0.0142417
970.325	0.0142351
970.403	0.0142474
970.481	0.0144570
970.559	0.0144189
970.637	0.0142753
970.715	0.0143694
970.793	0.0145036
970.871	0.0143151
970.950	0.0142986
971.028	0.0143131
971.106	0.0143501
971.184	0.0144916
971.262	0.0143747
971.340	0.0144575
971.418	0.0142822
971.496	0.0144144
971.575	0.0143297
971.653	0.0142520
971.731	0.0141794
971.809	0.0143520
971.887	0.0141911
971.965	0.0141923
972.043	0.0142088
972.121	0.0143239
972.200	0.0143156
972.278	0.0142883
972.356	0.0143348
972.434	0.0141658
972.512	0.0144268
972.590	0.0143894
972.668	0.0144034
972.746	0.0142406
972.825	0.0144119
972.903	0.0141741
972.981	0.0142596
973.059	0.0144327
973.137	0.0141700
973.215	0.0143878
973.293	0.0144321
973.371	0.0142220
973.450	0.0141718
973.528	0.0144497
973.606	0.0143725
973.684	0.0143266
973.762	0.0142709
973.840	0.0142943
973.918	0.0143879
973.996	0.0141662
974.075	0.0142005
974.153	0.0142630
974.231	0.0142156
974.309	0.0142797
974.387	0.0143249
974.465	0.0142780
974.543	0.0142363
974.621	0.0143587
974.700	0.0142812
974.778	0.0142948
974.856	0.0144126
974.934	0.0143845
975.012	0.0141371
975.090	0.0142678
975.168	0.0141791
975.246	0.0142068
975.325	0.0141711
975.403	0.0143440
975.481	0.0144736
975.559	0.0144016
975.637	0.0142626
975.715	0.0142664
975.793	0.0143138
975.871	0.0144872
975.950	0.0142919
976.028	0.0142963
976.106	0.0144380
976.184	0.0144289
976.262	0.0143569
976.340	0.0142725
976.418	0.0142555
976.496	0.0142994
976.575	0.0143198
976.653	0.0143259
976.731	0.0144216
976.809	0.0142032
976.887	0.0142937
976.965	0.0142534
977.043	0.0142638
977.121	0.0142625
977.200	0.0142906
977.278	0.0142558
977.356	0.0141582
977.434	0.0143533
977.512	0.0143301
977.590	0.0143913
977.668	0.0144157
977.746	0.0144115
977.825	0.0142555
977.903	0.0142838
977.981	0.0145020
978.059	0.0143501
978.137	0.0142754
978.215	0.0144238
978.293	0.0143948
978.371	0.0144457
978.450	0.0142966
978.528	0.0142991
978.606	0.0143127
978.684	0.0143220
978.762	0.0144862
978.840	0.0143706
978.918	0.0142075
978.996	0.0142431
979.075	0.0143348
979.153	0.0142193
979.231	0.0143066
979.309	0.0142510
979.387	0.0142661
979.465	0.0142161
979.543	0.0142651
979.621	0.0142165
979.700	0.0141183
979.778	0.0142705
979.856	0.0144389
979.934	0.0143633
980.012	0.0142490
980.090	0.0142763
980.168	0.0143804
980.246	0.0141992
980.325	0.0142249
980.403	0.0143241
980.481	0.0143958
980.559	0.0144161
980.637	0.0144316
980.715	0.0143565
980.793	0.0143925
980.871	0.0145004
980.950	0.0143905
981.028	0.0142896
981.106	0.0143626
981.184	0.0144163
981.262	0.0143832
981.340	0.0142941
981.418	0.0142458
981.496	0.0142514
981.575	0.0141754
981.653	0.0142829
981.731	0.0142496
981.809	0.0143019
981.887	0.0142135
981.965	0.0142704
982.043	0.0142532
982.121	0.0141224
982.200	0.0142375
982.278	0.0143014
982.356	0.0141475
982.434	0.0141650
982.512	0.0142689
982.590	0.0143143
982.668	0.0142123
982.746	0.0143146
982.825	0.0142619
982.903	0.0143264
982.981	0.0144205
983.059	0.0141715
983.137	0.0142463
983.215	0.0143356
983.293	0.0143331
983.371	0.0142339
983.450	0.0143574
983.528	0.0142446
983.606	0.0143374
983.684	0.0143302
983.762	0.0142989
983.840	0.0141597
983.918	0.0141505
983.996	0.0142271
984.075	0.0143912
984.153	0.0143779
984.231	0.0143180
984.309	0.0142631
984.387	0.0143098
984.465	0.0143562
984.543	0.0143967
984.621	0.0143313
984.700	0.0142952
984.778	0.0143113
984.856	0.0143775
984.934	0.0142703
985.012	0.0142850
985.090	0.0142776
985.168	0.0141853
985.246	0.0144099
985.325	0.0144607
985.403	0.0143559
985.481	0.0141412
985.559	0.0142005
985.637	0.0143768
985.715	0.0143956
985.793	0.0144211
985.871	0.0143915
985.950	0.0143272
986.028	0.0144128
986.106	0.0145078
986.184	0.0144003
986.262	0.0143119
986.340	0.0144628
986.418	0.0144220
986.496	0.0143391
986.575	0.0142725
986.653	0.0143844
986.731	0.0143448
986.809	0.0144742
986.887	0.0143737
986.965	0.0144183
987.043	0.0143468
987.121	0.0143394
987.200	0.0144025
987.278	0.0143913
987.356	0.0145167
987.434	0.0143761
987.512	0.0143771
987.590	0.0143043
987.668	0.0143866
987.746	0.0142808
987.825	0.0143227
987.903	0.0142552
987.981	0.0143438
988.059	0.0143240
988.137	0.0142432
988.215	0.0141987
988.293	0.0143695
988.371	0.0144399
988.450	0.0143340
988.528	0.0143480
988.606	0.0142685
988.684	0.0144534
988.762	0.0143626
988.840	0.0144007
988.918	0.0143208
988.996	0.0142634
989.075	0.0143657
989.153	0.0144520
989.231	0.0142072
989.309	0.0142377
989.387	0.0143972
989.465	0.0143594
989.543	0.0142902
989.621	0.0143903
989.700	0.0142249
989.778	0.0143743
989.856	0.0143853
989.934	0.0144250
990.012	0.0143909
990.090	0.0143929
990.168	0.0143309
990.246	0.0142563
990.325	0.0143387
990.403	0.0142108
990.481	0.0143702
990.559	0.0141710
990.637	0.0143666
990.715	0.0143390
990.793	0.0143140
990.871	0.0142546
990.950	0.0142584
991.028	0.0141935
991.106	0.0142612
991.184	0.0143307
991.262	0.0142781
991.340	0.0142619
991.418	0.0143604
991.496	0.0143516
991.575	0.0143954
991.653	0.0143979
991.731	0.0143368
991.809	0.0143372
991.887	0.0142279
991.965	0.0142639
992.043	0.0142941
992.121	0.0142642
992.200	0.0144933
992.278	0.0144185
992.356	0.0141677
992.434	0.0144141
992.512	0.0144257
992.590	0.0144805
992.668	0.0144559
992.746	0.0144026
992.825	0.0145661
992.903	0.0142882
992.981	0.0144464
993.059	0.0144422
993.137	0.0143137
993.215	0.0143044
993.293	0.0142540
993.371	0.0143130
993.450	0.0142751
993.528	0.0141869
993.606	0.0143464
993.684	0.0143732
993.762	0.0142719
993.840	0.0142216
993.918	0.0141430
993.996	0.0142231
994.075	0.0142638
994.153	0.0142147
994.231	0.0142945
994.309	0.0143449
994.387	0.0143771
994.465	0.0142907
994.543	0.0142238
994.621	0.0142313
994.700	0.0141387
994.778	0.0143492
994.856	0.0142775
994.934	0.0144138
995.012	0.0144820
995.090	0.0144151
995.168	0.0143485
995.246	0.0144516
995.325	0.0143774
995.403	0.0143575
995.481	0.0143011
995.559	0.0143254
995.637	0.0143111
995.715	0.0142480
995.793	0.0142496
995.871	0.0141878
995.950	0.0142901
996.028	0.0143568
996.106	0.0142892
996.184	0.0143034
996.262	0.0142899
996.340	0.0143496
996.418	0.0142298
996.496	0.0141549
996.575	0.0143163
996.653	0.0143879
996.731	0.0143065
996.809	0.0141772
996.887	0.0141711
996.965	0.0141868
997.043	0.0142229
997.121	0.0141546
997.200	0.0143813
997.278	0.0142280
997.356	0.0141295
997.434	0.0141965
997.512	0.0143828
997.590	0.0142407
997.668	0.0141566
997.746	0.0143034
997.825	0.0142149
997.903	0.0143299
997.981	0.0142158
998.059	0.0142186
998.137	0.0143484
998.215	0.0143985
998.293	0.0143024
998.371	0.0143230
998.450	0.0142292
998.528	0.0143195
998.606	0.0142907
998.684	0.0143376
998.762	0.0141964
998.840	0.0142963
998.918	0.0143742
