05/04/2022	21:10:52	Ver.	4.1	UNKNOWN
Optical Delay	678.996401	Delta X		0.078125	Sweeps	1	Scan Rate	0/0
Coordinates	Axis 1	NaN	Axis 2	NaN	Axis 3	NaN	Axis 4	NaN	Axis 5	NaN	Axis 6	0.000000
TX Power	0.000000	RX Power	0.000000

678.996	0.0144504
679.075	0.0143472
679.153	0.0144447
679.231	0.0142835
679.309	0.0143937
679.387	0.0143966
679.465	0.0144419
679.543	0.0145409
679.621	0.0143565
679.700	0.0144147
679.778	0.0144143
679.856	0.0143389
679.934	0.0145010
680.012	0.0144395
680.090	0.0145589
680.168	0.0144171
680.246	0.0144711
680.325	0.0144665
680.403	0.0144260
680.481	0.0144318
680.559	0.0144317
680.637	0.0145426
680.715	0.0145033
680.793	0.0144005
680.871	0.0144218
680.950	0.0144553
681.028	0.0143070
681.106	0.0142509
681.184	0.0143523
681.262	0.0145273
681.340	0.0143401
681.418	0.0142899
681.496	0.0144762
681.575	0.0144569
681.653	0.0144228
681.731	0.0143282
681.809	0.0143607
681.887	0.0142310
681.965	0.0143854
682.043	0.0144732
682.121	0.0142561
682.200	0.0144008
682.278	0.0143035
682.356	0.0144185
682.434	0.0143999
682.512	0.0142471
682.590	0.0143051
682.668	0.0144108
682.746	0.0144102
682.825	0.0143243
682.903	0.0141733
682.981	0.0143093
683.059	0.0143580
683.137	0.0142068
683.215	0.0142832
683.293	0.0143808
683.371	0.0143085
683.450	0.0142917
683.528	0.0144833
683.606	0.0144085
683.684	0.0143835
683.762	0.0143626
683.840	0.0142766
683.918	0.0143147
683.996	0.0144713
684.075	0.0144121
684.153	0.0143665
684.231	0.0143508
684.309	0.0144591
684.387	0.0144839
684.465	0.0144324
684.543	0.0142969
684.621	0.0144258
684.700	0.0144130
684.778	0.0143297
684.856	0.0143377
684.934	0.0143769
685.012	0.0144294
685.090	0.0143336
685.168	0.0143955
685.246	0.0144278
685.325	0.0143998
685.403	0.0143811
685.481	0.0144788
685.559	0.0146323
685.637	0.0143871
685.715	0.0143009
685.793	0.0143044
685.871	0.0144567
685.950	0.0144833
686.028	0.0143803
686.106	0.0144079
686.184	0.0144831
686.262	0.0144878
686.340	0.0143453
686.418	0.0144275
686.496	0.0145503
686.575	0.0144592
686.653	0.0142817
686.731	0.0142334
686.809	0.0143249
686.887	0.0143932
686.965	0.0143816
687.043	0.0143665
687.121	0.0143216
687.200	0.0143652
687.278	0.0143237
687.356	0.0143505
687.434	0.0144285
687.512	0.0143206
687.590	0.0143666
687.668	0.0143554
687.746	0.0144543
687.825	0.0142995
687.903	0.0144128
687.981	0.0144634
688.059	0.0143916
688.137	0.0146020
688.215	0.0144109
688.293	0.0143817
688.371	0.0145288
688.450	0.0144424
688.528	0.0144212
688.606	0.0145016
688.684	0.0144762
688.762	0.0145838
688.840	0.0144740
688.918	0.0143145
688.996	0.0143866
689.075	0.0143604
689.153	0.0144344
689.231	0.0142443
689.309	0.0142792
689.387	0.0142183
689.465	0.0141081
689.543	0.0143013
689.621	0.0141605
689.700	0.0143111
689.778	0.0142446
689.856	0.0143900
689.934	0.0141623
690.012	0.0143481
690.090	0.0145547
690.168	0.0142873
690.246	0.0144695
690.325	0.0143877
690.403	0.0143150
690.481	0.0144347
690.559	0.0144175
690.637	0.0145898
690.715	0.0145885
690.793	0.0145456
690.871	0.0145478
690.950	0.0145867
691.028	0.0145835
691.106	0.0143349
691.184	0.0144779
691.262	0.0144682
691.340	0.0143497
691.418	0.0144547
691.496	0.0142767
691.575	0.0143154
691.653	0.0144426
691.731	0.0142296
691.809	0.0142027
691.887	0.0142201
691.965	0.0143682
692.043	0.0142763
692.121	0.0144393
692.200	0.0142422
692.278	0.0142992
692.356	0.0142477
692.434	0.0142272
692.512	0.0143948
692.590	0.0144601
692.668	0.0144166
692.746	0.0144537
692.825	0.0142964
692.903	0.0143539
692.981	0.0145155
693.059	0.0143365
693.137	0.0143774
693.215	0.0143833
693.293	0.0143507
693.371	0.0143816
693.450	0.0144728
693.528	0.0145615
693.606	0.0144256
693.684	0.0143649
693.762	0.0142725
693.840	0.0144542
693.918	0.0145132
693.996	0.0145907
694.075	0.0144930
694.153	0.0144617
694.231	0.0144281
694.309	0.0145697
694.387	0.0144542
694.465	0.0145007
694.543	0.0145698
694.621	0.0143956
694.700	0.0142664
694.778	0.0143283
694.856	0.0144382
694.934	0.0143022
695.012	0.0142480
695.090	0.0143278
695.168	0.0143097
695.246	0.0144238
695.325	0.0143660
695.403	0.0144443
695.481	0.0144438
695.559	0.0142941
695.637	0.0144560
695.715	0.0144542
695.793	0.0144901
695.871	0.0146060
695.950	0.0143749
696.028	0.0145426
696.106	0.0146454
696.184	0.0145177
696.262	0.0143693
696.340	0.0143933
696.418	0.0144910
696.496	0.0144347
696.575	0.0144633
696.653	0.0144427
696.731	0.0143967
696.809	0.0144891
696.887	0.0142834
696.965	0.0144781
697.043	0.0144687
697.121	0.0142976
697.200	0.0143680
697.278	0.0144428
697.356	0.0144223
697.434	0.0144108
697.512	0.0144307
697.590	0.0143803
697.668	0.0144001
697.746	0.0143633
697.825	0.0143854
697.903	0.0143164
697.981	0.0145993
698.059	0.0145663
698.137	0.0143754
698.215	0.0144572
698.293	0.0144201
698.371	0.0145696
698.450	0.0144184
698.528	0.0144415
698.606	0.0143228
698.684	0.0143797
698.762	0.0144054
698.840	0.0142245
698.918	0.0144436
698.996	0.0143969
699.075	0.0143939
699.153	0.0142920
699.231	0.0142273
699.309	0.0143694
699.387	0.0144752
699.465	0.0142400
699.543	0.0142912
699.621	0.0143690
699.700	0.0143993
699.778	0.0145123
699.856	0.0145358
699.934	0.0144485
700.012	0.0145075
700.090	0.0146552
700.168	0.0146941
700.246	0.0146095
700.325	0.0144810
700.403	0.0145571
700.481	0.0146382
700.559	0.0144736
700.637	0.0143393
700.715	0.0145348
700.793	0.0144326
700.871	0.0143734
700.950	0.0145086
701.028	0.0144874
701.106	0.0145828
701.184	0.0144663
701.262	0.0144003
701.340	0.0145229
701.418	0.0143716
701.496	0.0142839
701.575	0.0141682
701.653	0.0141416
701.731	0.0143290
701.809	0.0144736
701.887	0.0142862
701.965	0.0142533
702.043	0.0143577
702.121	0.0145004
702.200	0.0143413
702.278	0.0143935
702.356	0.0144051
702.434	0.0145197
702.512	0.0144730
702.590	0.0143506
702.668	0.0142724
702.746	0.0144263
702.825	0.0143675
702.903	0.0143565
702.981	0.0143577
703.059	0.0145065
703.137	0.0145708
703.215	0.0147117
703.293	0.0146614
703.371	0.0145791
703.450	0.0147334
703.528	0.0147352
703.606	0.0143678
703.684	0.0142091
703.762	0.0141953
703.840	0.0140720
703.918	0.0141755
703.996	0.0140276
704.075	0.0142911
704.153	0.0143053
704.231	0.0143649
704.309	0.0144388
704.387	0.0144288
704.465	0.0145281
704.543	0.0145651
704.621	0.0144449
704.700	0.0144865
704.778	0.0145390
704.856	0.0146135
704.934	0.0145787
705.012	0.0147531
705.090	0.0146804
705.168	0.0146370
705.246	0.0145873
705.325	0.0145706
705.403	0.0144601
705.481	0.0146061
705.559	0.0143507
705.637	0.0142457
705.715	0.0141031
705.793	0.0142733
705.871	0.0142682
705.950	0.0141927
706.028	0.0142152
706.106	0.0142550
706.184	0.0143891
706.262	0.0145418
706.340	0.0145456
706.418	0.0144869
706.496	0.0144688
706.575	0.0143813
706.653	0.0143201
706.731	0.0143468
706.809	0.0141328
706.887	0.0141219
706.965	0.0139511
707.043	0.0141107
707.121	0.0142699
707.200	0.0141562
707.278	0.0143784
707.356	0.0147959
707.434	0.0148324
707.512	0.0149018
707.590	0.0151164
707.668	0.0150478
707.746	0.0150776
707.825	0.0148936
707.903	0.0149043
707.981	0.0146859
708.059	0.0145058
708.137	0.0143531
708.215	0.0143407
708.293	0.0141985
708.371	0.0141663
708.450	0.0140970
708.528	0.0141617
708.606	0.0141249
708.684	0.0141245
708.762	0.0141866
708.840	0.0142127
708.918	0.0141373
708.996	0.0141618
709.075	0.0142403
709.153	0.0142568
709.231	0.0143536
709.309	0.0143991
709.387	0.0146687
709.465	0.0144574
709.543	0.0144069
709.621	0.0142553
709.700	0.0142854
709.778	0.0140995
709.856	0.0139542
709.934	0.0137401
710.012	0.0136887
710.090	0.0138516
710.168	0.0139027
710.246	0.0141941
710.325	0.0141196
710.403	0.0146898
710.481	0.0147847
710.559	0.0151455
710.637	0.0155458
710.715	0.0154551
710.793	0.0154737
710.871	0.0154961
710.950	0.0152197
711.028	0.0148850
711.106	0.0147427
711.184	0.0145298
711.262	0.0143311
711.340	0.0140226
711.418	0.0140778
711.496	0.0139044
711.575	0.0138850
711.653	0.0139426
711.731	0.0142014
711.809	0.0141615
711.887	0.0142030
711.965	0.0142355
712.043	0.0143780
712.121	0.0143799
712.200	0.0145082
712.278	0.0144150
712.356	0.0143018
712.434	0.0142383
712.512	0.0142184
712.590	0.0140610
712.668	0.0139220
712.746	0.0136729
712.825	0.0136209
712.903	0.0136374
712.981	0.0136095
713.059	0.0136939
713.137	0.0138009
713.215	0.0140047
713.293	0.0140825
713.371	0.0141869
713.450	0.0145639
713.528	0.0149094
713.606	0.0149349
713.684	0.0150761
713.762	0.0151186
713.840	0.0151868
713.918	0.0152288
713.996	0.0150397
714.075	0.0147164
714.153	0.0147321
714.231	0.0145563
714.309	0.0144613
714.387	0.0142648
714.465	0.0141669
714.543	0.0141716
714.621	0.0140688
714.700	0.0140881
714.778	0.0141818
714.856	0.0143797
714.934	0.0142876
715.012	0.0145131
715.090	0.0145122
715.168	0.0146408
715.246	0.0146339
715.325	0.0146437
715.403	0.0146222
715.481	0.0145231
715.559	0.0143849
715.637	0.0142651
715.715	0.0140036
715.793	0.0139477
715.871	0.0138361
715.950	0.0138834
716.028	0.0138215
716.106	0.0137003
716.184	0.0137211
716.262	0.0137650
716.340	0.0137864
716.418	0.0140089
716.496	0.0141080
716.575	0.0143777
716.653	0.0144941
716.731	0.0146317
716.809	0.0148659
716.887	0.0147164
716.965	0.0148715
717.043	0.0148274
717.121	0.0147964
717.200	0.0146986
717.278	0.0146774
717.356	0.0147146
717.434	0.0146780
717.512	0.0146549
717.590	0.0147571
717.668	0.0144970
717.746	0.0145827
717.825	0.0148206
717.903	0.0145243
717.981	0.0145951
718.059	0.0146668
718.137	0.0147027
718.215	0.0145740
718.293	0.0145206
718.371	0.0143687
718.450	0.0143030
718.528	0.0141580
718.606	0.0141228
718.684	0.0141606
718.762	0.0140979
718.840	0.0140292
718.918	0.0140429
718.996	0.0140405
719.075	0.0141202
719.153	0.0140457
719.231	0.0140878
719.309	0.0138890
719.387	0.0141195
719.465	0.0140897
719.543	0.0141199
719.621	0.0142786
719.700	0.0142891
719.778	0.0143550
719.856	0.0142977
719.934	0.0143296
720.012	0.0142942
720.090	0.0144204
720.168	0.0145146
720.246	0.0143660
720.325	0.0143459
720.403	0.0143401
720.481	0.0143105
720.559	0.0144209
720.637	0.0143790
720.715	0.0144962
720.793	0.0145112
720.871	0.0145512
720.950	0.0147234
721.028	0.0148744
721.106	0.0149097
721.184	0.0148920
721.262	0.0150227
721.340	0.0148329
721.418	0.0147062
721.496	0.0148386
721.575	0.0146434
721.653	0.0145673
721.731	0.0145068
721.809	0.0143632
721.887	0.0144483
721.965	0.0143703
722.043	0.0142328
722.121	0.0142877
722.200	0.0143704
722.278	0.0143143
722.356	0.0143417
722.434	0.0144344
722.512	0.0144429
722.590	0.0143961
722.668	0.0145093
722.746	0.0143092
722.825	0.0142962
722.903	0.0142101
722.981	0.0142179
723.059	0.0142107
723.137	0.0139565
723.215	0.0138540
723.293	0.0139957
723.371	0.0139545
723.450	0.0140242
723.528	0.0140518
723.606	0.0141512
723.684	0.0142960
723.762	0.0144041
723.840	0.0143853
723.918	0.0144186
723.996	0.0144903
724.075	0.0145737
724.153	0.0147113
724.231	0.0145689
724.309	0.0146659
724.387	0.0149573
724.465	0.0150034
724.543	0.0148940
724.621	0.0149210
724.700	0.0147068
724.778	0.0148119
724.856	0.0147352
724.934	0.0148328
725.012	0.0147625
725.090	0.0147198
725.168	0.0146932
725.246	0.0145116
725.325	0.0145182
725.403	0.0146203
725.481	0.0146161
725.559	0.0144564
725.637	0.0145776
725.715	0.0144302
725.793	0.0143943
725.871	0.0142161
725.950	0.0143287
726.028	0.0142616
726.106	0.0142093
726.184	0.0141388
726.262	0.0143449
726.340	0.0142716
726.418	0.0141685
726.496	0.0142348
726.575	0.0141022
726.653	0.0142189
726.731	0.0140585
726.809	0.0140701
726.887	0.0139597
726.965	0.0138728
727.043	0.0140242
727.121	0.0141990
727.200	0.0141222
727.278	0.0141489
727.356	0.0140895
727.434	0.0142412
727.512	0.0142227
727.590	0.0141920
727.668	0.0143588
727.746	0.0145527
727.825	0.0146606
727.903	0.0144494
727.981	0.0143986
728.059	0.0145417
728.137	0.0146729
728.215	0.0147336
728.293	0.0145909
728.371	0.0146181
728.450	0.0145889
728.528	0.0145675
728.606	0.0145869
728.684	0.0146955
728.762	0.0147407
728.840	0.0145943
728.918	0.0146445
728.996	0.0145566
729.075	0.0144328
729.153	0.0147116
729.231	0.0146045
729.309	0.0145995
729.387	0.0145640
729.465	0.0146341
729.543	0.0146616
729.621	0.0145977
729.700	0.0145745
729.778	0.0145756
729.856	0.0145535
729.934	0.0143078
730.012	0.0143547
730.090	0.0143232
730.168	0.0141951
730.246	0.0141354
730.325	0.0141528
730.403	0.0141908
730.481	0.0141875
730.559	0.0141731
730.637	0.0140762
730.715	0.0143015
730.793	0.0142538
730.871	0.0142257
730.950	0.0144039
731.028	0.0144263
731.106	0.0145812
731.184	0.0145300
731.262	0.0146496
731.340	0.0145217
731.418	0.0145364
731.496	0.0146323
731.575	0.0146464
731.653	0.0144554
731.731	0.0145242
731.809	0.0145129
731.887	0.0144253
731.965	0.0143376
732.043	0.0143851
732.121	0.0144676
732.200	0.0144773
732.278	0.0144260
732.356	0.0144512
732.434	0.0143520
732.512	0.0144673
732.590	0.0144727
732.668	0.0143627
732.746	0.0143166
732.825	0.0142972
732.903	0.0143056
732.981	0.0141541
733.059	0.0141802
733.137	0.0143044
733.215	0.0141888
733.293	0.0140860
733.371	0.0141676
733.450	0.0140971
733.528	0.0142163
733.606	0.0143883
733.684	0.0144088
733.762	0.0146640
733.840	0.0146175
733.918	0.0145502
733.996	0.0145979
734.075	0.0147624
734.153	0.0147385
734.231	0.0147820
734.309	0.0148227
734.387	0.0147999
734.465	0.0147282
734.543	0.0145341
734.621	0.0145108
734.700	0.0145741
734.778	0.0145000
734.856	0.0144696
734.934	0.0144056
735.012	0.0143745
735.090	0.0145079
735.168	0.0142948
735.246	0.0144170
735.325	0.0144328
735.403	0.0142989
735.481	0.0141601
735.559	0.0142105
735.637	0.0143677
735.715	0.0142988
735.793	0.0141310
735.871	0.0141106
735.950	0.0140911
736.028	0.0141455
736.106	0.0142502
736.184	0.0140854
736.262	0.0140282
736.340	0.0142183
736.418	0.0141930
736.496	0.0143084
736.575	0.0142548
736.653	0.0143661
736.731	0.0144170
736.809	0.0143983
736.887	0.0142953
736.965	0.0144924
737.043	0.0145243
737.121	0.0147139
737.200	0.0146737
737.278	0.0145544
737.356	0.0146655
737.434	0.0145847
737.512	0.0145627
737.590	0.0145248
737.668	0.0145843
737.746	0.0145856
737.825	0.0146799
737.903	0.0145204
737.981	0.0146046
738.059	0.0147080
738.137	0.0144722
738.215	0.0144670
738.293	0.0145883
738.371	0.0144296
738.450	0.0145435
738.528	0.0144377
738.606	0.0145365
738.684	0.0144463
738.762	0.0143955
738.840	0.0141705
738.918	0.0142568
738.996	0.0143136
739.075	0.0142490
739.153	0.0140149
739.231	0.0142815
739.309	0.0142249
739.387	0.0141630
739.465	0.0141315
739.543	0.0140636
739.621	0.0141518
739.700	0.0141240
739.778	0.0141640
739.856	0.0141805
739.934	0.0141495
740.012	0.0141631
740.090	0.0142353
740.168	0.0141253
740.246	0.0139608
740.325	0.0141909
740.403	0.0142888
740.481	0.0141779
740.559	0.0140585
740.637	0.0143237
740.715	0.0143414
740.793	0.0144254
740.871	0.0145522
740.950	0.0146980
741.028	0.0146147
741.106	0.0144459
741.184	0.0148311
741.262	0.0148766
741.340	0.0149052
741.418	0.0148398
741.496	0.0148364
741.575	0.0147971
741.653	0.0148766
741.731	0.0146651
741.809	0.0145995
741.887	0.0145341
741.965	0.0143842
742.043	0.0144454
742.121	0.0144170
742.200	0.0144061
742.278	0.0142086
742.356	0.0141206
742.434	0.0143191
742.512	0.0142019
742.590	0.0140901
742.668	0.0141599
742.746	0.0142135
742.825	0.0142505
742.903	0.0141836
742.981	0.0143306
743.059	0.0142780
743.137	0.0143593
743.215	0.0141949
743.293	0.0142139
743.371	0.0142296
743.450	0.0142117
743.528	0.0141906
743.606	0.0141167
743.684	0.0141969
743.762	0.0141064
743.840	0.0140889
743.918	0.0141520
743.996	0.0142339
744.075	0.0142181
744.153	0.0142374
744.231	0.0143266
744.309	0.0143846
744.387	0.0144923
744.465	0.0146063
744.543	0.0146980
744.621	0.0146785
744.700	0.0146146
744.778	0.0146963
744.856	0.0148686
744.934	0.0148240
745.012	0.0147009
745.090	0.0148464
745.168	0.0146162
745.246	0.0146447
745.325	0.0146595
745.403	0.0146472
745.481	0.0144455
745.559	0.0144599
745.637	0.0144907
745.715	0.0144250
745.793	0.0143591
745.871	0.0143137
745.950	0.0144546
746.028	0.0143690
746.106	0.0144014
746.184	0.0143607
746.262	0.0141701
746.340	0.0143387
746.418	0.0143150
746.496	0.0141961
746.575	0.0142741
746.653	0.0141711
746.731	0.0141564
746.809	0.0142542
746.887	0.0141236
746.965	0.0142150
747.043	0.0143437
747.121	0.0143626
747.200	0.0143340
747.278	0.0143353
747.356	0.0142728
747.434	0.0142960
747.512	0.0143661
747.590	0.0143758
747.668	0.0143864
747.746	0.0144827
747.825	0.0143402
747.903	0.0143900
747.981	0.0144917
748.059	0.0145345
748.137	0.0143628
748.215	0.0142727
748.293	0.0144913
748.371	0.0143950
748.450	0.0145354
748.528	0.0144727
748.606	0.0145414
748.684	0.0146931
748.762	0.0145888
748.840	0.0145728
748.918	0.0145096
748.996	0.0145303
749.075	0.0145248
749.153	0.0144688
749.231	0.0144226
749.309	0.0143521
749.387	0.0144627
749.465	0.0144141
749.543	0.0143873
749.621	0.0142681
749.700	0.0141029
749.778	0.0141313
749.856	0.0142261
749.934	0.0141200
750.012	0.0141547
750.090	0.0141203
750.168	0.0139302
750.246	0.0141583
750.325	0.0142975
750.403	0.0142824
750.481	0.0142259
750.559	0.0143124
750.637	0.0144273
750.715	0.0145205
750.793	0.0144843
750.871	0.0144272
750.950	0.0144677
751.028	0.0145289
751.106	0.0145893
751.184	0.0146104
751.262	0.0146458
751.340	0.0145261
751.418	0.0143377
751.496	0.0145610
751.575	0.0145106
751.653	0.0145561
751.731	0.0145332
751.809	0.0145298
751.887	0.0144052
751.965	0.0143733
752.043	0.0145758
752.121	0.0146172
752.200	0.0144922
752.278	0.0147488
752.356	0.0146091
752.434	0.0144701
752.512	0.0145235
752.590	0.0142965
752.668	0.0143951
752.746	0.0142874
752.825	0.0143214
752.903	0.0143253
752.981	0.0143179
753.059	0.0143235
753.137	0.0142487
753.215	0.0143668
753.293	0.0141595
753.371	0.0141055
753.450	0.0140659
753.528	0.0142146
753.606	0.0142850
753.684	0.0141483
753.762	0.0142251
753.840	0.0143494
753.918	0.0145020
753.996	0.0142788
754.075	0.0142673
754.153	0.0142751
754.231	0.0143669
754.309	0.0143445
754.387	0.0144035
754.465	0.0143428
754.543	0.0144197
754.621	0.0143528
754.700	0.0144695
754.778	0.0145113
754.856	0.0146453
754.934	0.0145832
755.012	0.0146868
755.090	0.0146864
755.168	0.0147277
755.246	0.0146758
755.325	0.0147836
755.403	0.0146250
755.481	0.0147750
755.559	0.0146763
755.637	0.0146635
755.715	0.0145857
755.793	0.0144918
755.871	0.0145384
755.950	0.0144966
756.028	0.0144569
756.106	0.0144090
756.184	0.0145122
756.262	0.0142825
756.340	0.0142879
756.418	0.0143629
756.496	0.0142480
756.575	0.0141209
756.653	0.0141892
756.731	0.0142615
756.809	0.0142626
756.887	0.0142069
756.965	0.0143010
757.043	0.0142744
757.121	0.0141688
757.200	0.0142900
757.278	0.0143639
757.356	0.0142232
757.434	0.0143534
757.512	0.0141483
757.590	0.0143103
757.668	0.0143566
757.746	0.0143459
757.825	0.0142890
757.903	0.0143931
757.981	0.0144331
758.059	0.0144340
758.137	0.0143671
758.215	0.0144034
758.293	0.0144740
758.371	0.0144563
758.450	0.0144770
758.528	0.0145525
758.606	0.0145384
758.684	0.0146843
758.762	0.0145464
758.840	0.0147671
758.918	0.0146538
758.996	0.0147598
759.075	0.0145823
759.153	0.0144234
759.231	0.0145168
759.309	0.0145371
759.387	0.0145121
759.465	0.0145157
759.543	0.0145544
759.621	0.0145355
759.700	0.0144423
759.778	0.0144456
759.856	0.0144501
759.934	0.0144370
760.012	0.0144447
760.090	0.0144645
760.168	0.0143683
760.246	0.0142764
760.325	0.0142977
760.403	0.0144132
760.481	0.0142296
760.559	0.0141901
760.637	0.0142650
760.715	0.0141830
760.793	0.0142262
760.871	0.0142277
760.950	0.0142096
761.028	0.0142172
761.106	0.0142822
761.184	0.0141373
761.262	0.0142994
761.340	0.0143026
761.418	0.0141642
761.496	0.0143193
761.575	0.0143470
761.653	0.0144051
761.731	0.0142539
761.809	0.0143802
761.887	0.0143648
761.965	0.0144729
762.043	0.0143475
762.121	0.0142667
762.200	0.0143047
762.278	0.0144762
762.356	0.0143846
762.434	0.0142654
762.512	0.0143841
762.590	0.0146226
762.668	0.0145177
762.746	0.0145473
762.825	0.0144152
762.903	0.0146684
762.981	0.0145622
763.059	0.0144267
763.137	0.0144202
763.215	0.0145339
763.293	0.0145567
763.371	0.0145127
763.450	0.0143214
763.528	0.0143040
763.606	0.0142249
763.684	0.0144534
763.762	0.0144386
763.840	0.0144363
763.918	0.0142102
763.996	0.0142167
764.075	0.0140884
764.153	0.0141376
764.231	0.0141351
764.309	0.0142731
764.387	0.0143181
764.465	0.0141539
764.543	0.0142253
764.621	0.0143542
764.700	0.0142531
764.778	0.0142738
764.856	0.0142505
764.934	0.0142271
765.012	0.0142958
765.090	0.0142638
765.168	0.0142030
765.246	0.0143451
765.325	0.0143730
765.403	0.0143555
765.481	0.0143427
765.559	0.0142580
765.637	0.0143946
765.715	0.0144177
765.793	0.0143802
765.871	0.0145104
765.950	0.0144038
766.028	0.0144775
766.106	0.0145910
766.184	0.0143936
766.262	0.0144585
766.340	0.0144503
766.418	0.0143571
766.496	0.0145643
766.575	0.0145032
766.653	0.0144450
766.731	0.0145004
766.809	0.0144913
766.887	0.0144090
766.965	0.0144164
767.043	0.0144291
767.121	0.0144701
767.200	0.0142744
767.278	0.0142561
767.356	0.0142839
767.434	0.0143921
767.512	0.0143206
767.590	0.0142735
767.668	0.0143996
767.746	0.0143597
767.825	0.0144013
767.903	0.0143796
767.981	0.0143784
768.059	0.0143176
768.137	0.0143462
768.215	0.0143272
768.293	0.0142296
768.371	0.0143986
768.450	0.0141980
768.528	0.0141744
768.606	0.0142833
768.684	0.0144439
768.762	0.0144981
768.840	0.0143677
768.918	0.0143399
768.996	0.0144533
769.075	0.0144621
769.153	0.0143180
769.231	0.0144830
769.309	0.0145625
769.387	0.0143621
769.465	0.0144085
769.543	0.0145026
769.621	0.0145690
769.700	0.0144250
769.778	0.0145542
769.856	0.0143790
769.934	0.0145228
770.012	0.0143987
770.090	0.0143283
770.168	0.0143064
770.246	0.0144440
770.325	0.0144293
770.403	0.0144566
770.481	0.0143858
770.559	0.0144621
770.637	0.0145490
770.715	0.0144377
770.793	0.0143835
770.871	0.0144051
770.950	0.0144965
771.028	0.0143353
771.106	0.0144925
771.184	0.0141871
771.262	0.0143049
771.340	0.0144193
771.418	0.0143577
771.496	0.0143494
771.575	0.0143849
771.653	0.0144309
771.731	0.0143436
771.809	0.0143069
771.887	0.0143863
771.965	0.0144607
772.043	0.0143339
772.121	0.0143329
772.200	0.0143449
772.278	0.0143398
772.356	0.0143953
772.434	0.0143937
772.512	0.0144697
772.590	0.0143927
772.668	0.0144453
772.746	0.0144601
772.825	0.0144175
772.903	0.0145023
772.981	0.0146033
773.059	0.0145705
773.137	0.0144678
773.215	0.0144896
773.293	0.0144691
773.371	0.0143612
773.450	0.0144493
773.528	0.0144155
773.606	0.0143604
773.684	0.0144119
773.762	0.0144814
773.840	0.0143307
773.918	0.0144733
773.996	0.0143997
774.075	0.0144375
774.153	0.0144685
774.231	0.0144655
774.309	0.0144512
774.387	0.0142287
774.465	0.0144302
774.543	0.0144377
774.621	0.0144503
774.700	0.0144986
774.778	0.0144475
774.856	0.0143789
774.934	0.0144297
775.012	0.0143401
775.090	0.0143643
775.168	0.0143264
775.246	0.0144654
775.325	0.0144041
775.403	0.0144496
775.481	0.0144038
775.559	0.0144083
775.637	0.0144266
775.715	0.0144504
775.793	0.0144856
775.871	0.0143684
775.950	0.0144302
776.028	0.0143746
776.106	0.0144086
776.184	0.0143364
776.262	0.0143556
776.340	0.0144968
776.418	0.0145128
776.496	0.0144843
776.575	0.0143659
776.653	0.0142921
776.731	0.0144757
776.809	0.0144167
776.887	0.0142249
776.965	0.0142869
777.043	0.0144543
777.121	0.0144267
777.200	0.0144826
777.278	0.0143978
777.356	0.0144686
777.434	0.0143967
777.512	0.0144208
777.590	0.0144172
777.668	0.0144008
777.746	0.0142986
777.825	0.0142928
777.903	0.0143147
777.981	0.0143548
778.059	0.0142387
778.137	0.0144590
778.215	0.0142973
778.293	0.0142808
778.371	0.0142788
778.450	0.0144615
778.528	0.0143360
778.606	0.0144168
778.684	0.0143751
778.762	0.0144353
778.840	0.0143134
778.918	0.0144978
778.996	0.0145560
779.075	0.0142628
779.153	0.0143547
779.231	0.0144822
779.309	0.0144440
779.387	0.0143715
779.465	0.0144738
779.543	0.0144946
779.621	0.0143799
779.700	0.0144612
779.778	0.0145615
779.856	0.0145271
779.934	0.0143707
780.012	0.0145405
780.090	0.0145303
780.168	0.0144927
780.246	0.0144914
780.325	0.0144440
780.403	0.0144594
780.481	0.0145557
780.559	0.0145912
780.637	0.0144743
780.715	0.0143849
780.793	0.0143169
780.871	0.0144508
780.950	0.0142794
781.028	0.0143230
781.106	0.0144691
781.184	0.0145475
781.262	0.0144415
781.340	0.0143267
781.418	0.0143962
781.496	0.0143482
781.575	0.0143922
781.653	0.0144247
781.731	0.0144910
781.809	0.0145380
781.887	0.0144054
781.965	0.0142136
782.043	0.0143594
782.121	0.0143128
782.200	0.0143717
782.278	0.0144254
782.356	0.0144096
782.434	0.0142506
782.512	0.0142309
782.590	0.0142607
782.668	0.0142145
782.746	0.0141897
782.825	0.0142863
782.903	0.0143423
782.981	0.0142545
783.059	0.0143733
783.137	0.0143143
783.215	0.0142700
783.293	0.0144081
783.371	0.0143942
783.450	0.0143528
783.528	0.0145476
783.606	0.0143479
783.684	0.0144626
783.762	0.0145213
783.840	0.0145200
783.918	0.0145191
783.996	0.0143608
784.075	0.0144756
784.153	0.0144889
784.231	0.0144421
784.309	0.0142498
784.387	0.0144121
784.465	0.0144727
784.543	0.0143824
784.621	0.0143978
784.700	0.0143230
784.778	0.0143633
784.856	0.0144625
784.934	0.0144668
785.012	0.0143672
785.090	0.0143637
785.168	0.0142639
785.246	0.0143119
785.325	0.0143596
785.403	0.0143607
785.481	0.0141661
785.559	0.0142187
785.637	0.0143467
785.715	0.0144833
785.793	0.0144263
785.871	0.0143604
785.950	0.0143877
786.028	0.0143860
786.106	0.0141939
786.184	0.0143491
786.262	0.0143771
786.340	0.0143435
786.418	0.0142535
786.496	0.0141621
786.575	0.0143613
786.653	0.0143332
786.731	0.0143816
786.809	0.0143078
786.887	0.0143005
786.965	0.0143684
787.043	0.0143451
787.121	0.0142860
787.200	0.0145006
787.278	0.0142751
787.356	0.0142258
787.434	0.0144273
787.512	0.0143723
787.590	0.0142953
787.668	0.0143652
787.746	0.0143367
787.825	0.0145197
787.903	0.0145028
787.981	0.0144861
788.059	0.0143448
788.137	0.0143654
788.215	0.0142868
788.293	0.0143858
788.371	0.0145531
788.450	0.0144250
788.528	0.0144536
788.606	0.0143764
788.684	0.0144798
788.762	0.0144350
788.840	0.0144424
788.918	0.0143098
788.996	0.0144234
789.075	0.0144497
789.153	0.0143573
789.231	0.0143525
789.309	0.0144499
789.387	0.0144224
789.465	0.0143149
789.543	0.0144289
789.621	0.0144565
789.700	0.0143867
789.778	0.0144071
789.856	0.0145795
789.934	0.0144560
790.012	0.0142889
790.090	0.0143018
790.168	0.0143346
790.246	0.0144587
790.325	0.0142802
790.403	0.0142911
790.481	0.0143607
790.559	0.0142136
790.637	0.0141924
790.715	0.0142534
790.793	0.0144379
790.871	0.0143592
790.950	0.0143204
791.028	0.0141273
791.106	0.0143168
791.184	0.0142984
791.262	0.0143305
791.340	0.0144797
791.418	0.0144287
791.496	0.0143531
791.575	0.0145296
791.653	0.0144444
791.731	0.0143221
791.809	0.0143827
791.887	0.0144311
791.965	0.0143363
792.043	0.0143491
792.121	0.0144839
792.200	0.0143974
792.278	0.0144130
792.356	0.0143533
792.434	0.0144482
792.512	0.0143943
792.590	0.0144297
792.668	0.0145128
792.746	0.0143588
792.825	0.0143661
792.903	0.0145252
792.981	0.0143459
793.059	0.0143777
793.137	0.0144877
793.215	0.0143271
793.293	0.0144875
793.371	0.0145187
793.450	0.0144278
793.528	0.0144134
793.606	0.0144855
793.684	0.0144610
793.762	0.0145473
793.840	0.0144984
793.918	0.0144630
793.996	0.0144332
794.075	0.0145187
794.153	0.0144042
794.231	0.0142815
794.309	0.0144750
794.387	0.0143832
794.465	0.0143121
794.543	0.0144155
794.621	0.0143819
794.700	0.0142393
794.778	0.0144124
794.856	0.0144547
794.934	0.0141794
795.012	0.0142252
795.090	0.0142808
795.168	0.0144209
795.246	0.0142857
795.325	0.0143510
795.403	0.0144495
795.481	0.0144316
795.559	0.0143171
795.637	0.0143448
795.715	0.0143871
795.793	0.0145808
795.871	0.0143139
795.950	0.0143707
796.028	0.0144689
796.106	0.0143079
796.184	0.0144189
796.262	0.0145228
796.340	0.0143588
796.418	0.0144676
796.496	0.0145594
796.575	0.0145316
796.653	0.0144823
796.731	0.0143053
796.809	0.0145615
796.887	0.0143636
796.965	0.0144244
797.043	0.0143309
797.121	0.0144358
797.200	0.0144091
797.278	0.0144193
797.356	0.0144948
797.434	0.0144358
797.512	0.0145232
797.590	0.0143807
797.668	0.0144624
797.746	0.0145055
797.825	0.0143488
797.903	0.0143264
797.981	0.0143853
798.059	0.0144161
798.137	0.0144258
798.215	0.0141833
798.293	0.0144640
798.371	0.0144585
798.450	0.0143716
798.528	0.0142611
798.606	0.0142699
798.684	0.0144657
798.762	0.0143581
798.840	0.0144027
798.918	0.0143964
798.996	0.0144568
799.075	0.0142583
799.153	0.0144452
799.231	0.0144133
799.309	0.0144304
799.387	0.0144533
799.465	0.0144534
799.543	0.0143793
799.621	0.0145309
799.700	0.0143870
799.778	0.0142986
799.856	0.0142831
799.934	0.0143932
800.012	0.0143252
800.090	0.0142232
800.168	0.0143780
800.246	0.0144350
800.325	0.0144110
800.403	0.0144312
800.481	0.0145473
800.559	0.0142668
800.637	0.0143976
800.715	0.0143278
800.793	0.0143899
800.871	0.0144012
800.950	0.0142895
801.028	0.0143754
801.106	0.0144913
801.184	0.0143652
801.262	0.0145040
801.340	0.0144212
801.418	0.0144374
801.496	0.0142937
801.575	0.0143169
801.653	0.0144852
801.731	0.0144161
801.809	0.0142963
801.887	0.0144462
801.965	0.0144321
802.043	0.0144170
802.121	0.0143555
802.200	0.0142821
802.278	0.0143742
802.356	0.0142979
802.434	0.0143340
802.512	0.0143820
802.590	0.0144653
802.668	0.0144030
802.746	0.0143955
802.825	0.0144082
802.903	0.0143845
802.981	0.0142918
803.059	0.0144716
803.137	0.0144333
803.215	0.0144179
803.293	0.0145177
803.371	0.0143981
803.450	0.0143953
803.528	0.0143159
803.606	0.0143542
803.684	0.0144019
803.762	0.0143984
803.840	0.0143774
803.918	0.0144115
803.996	0.0144818
804.075	0.0143163
804.153	0.0143603
804.231	0.0143254
804.309	0.0143031
804.387	0.0144210
804.465	0.0144251
804.543	0.0143230
804.621	0.0144629
804.700	0.0143068
804.778	0.0143250
804.856	0.0143599
804.934	0.0143022
805.012	0.0142400
805.090	0.0143475
805.168	0.0143706
805.246	0.0142588
805.325	0.0143283
805.403	0.0143258
805.481	0.0142727
805.559	0.0143958
805.637	0.0142776
805.715	0.0141933
805.793	0.0142292
805.871	0.0142976
805.950	0.0143361
806.028	0.0143635
806.106	0.0143758
806.184	0.0143414
806.262	0.0142120
806.340	0.0143592
806.418	0.0145219
806.496	0.0144070
806.575	0.0143544
806.653	0.0143937
806.731	0.0144389
806.809	0.0145505
806.887	0.0145464
806.965	0.0144077
807.043	0.0144398
807.121	0.0145068
807.200	0.0144116
807.278	0.0144032
807.356	0.0144317
807.434	0.0143918
807.512	0.0144057
807.590	0.0144836
807.668	0.0143480
807.746	0.0144274
807.825	0.0144918
807.903	0.0142330
807.981	0.0143465
808.059	0.0143560
808.137	0.0142603
808.215	0.0142147
808.293	0.0144216
808.371	0.0143405
808.450	0.0144283
808.528	0.0141653
808.606	0.0143115
808.684	0.0143391
808.762	0.0142634
808.840	0.0144478
808.918	0.0144617
808.996	0.0143463
809.075	0.0143076
809.153	0.0144329
809.231	0.0144185
809.309	0.0142889
809.387	0.0144683
809.465	0.0143913
809.543	0.0143559
809.621	0.0143916
809.700	0.0145193
809.778	0.0143944
809.856	0.0144051
809.934	0.0144216
810.012	0.0144829
810.090	0.0143841
810.168	0.0143552
810.246	0.0144814
810.325	0.0144764
810.403	0.0143763
810.481	0.0144260
810.559	0.0144225
810.637	0.0145403
810.715	0.0145111
810.793	0.0145029
810.871	0.0143642
810.950	0.0143970
811.028	0.0144968
811.106	0.0144011
811.184	0.0142632
811.262	0.0142026
811.340	0.0143672
811.418	0.0143740
811.496	0.0141944
811.575	0.0143546
811.653	0.0143633
811.731	0.0142457
811.809	0.0141967
811.887	0.0141647
811.965	0.0141135
812.043	0.0142531
812.121	0.0142244
812.200	0.0143851
812.278	0.0142803
812.356	0.0144263
812.434	0.0144031
812.512	0.0142341
812.590	0.0143047
812.668	0.0144183
812.746	0.0144466
812.825	0.0143207
812.903	0.0143533
812.981	0.0144071
813.059	0.0143548
813.137	0.0143603
813.215	0.0143923
813.293	0.0143684
813.371	0.0144568
813.450	0.0143257
813.528	0.0143915
813.606	0.0144839
813.684	0.0143696
813.762	0.0142979
813.840	0.0143614
813.918	0.0143897
813.996	0.0144827
814.075	0.0144263
814.153	0.0144362
814.231	0.0144857
814.309	0.0143537
814.387	0.0143937
814.465	0.0144177
814.543	0.0144162
814.621	0.0143114
814.700	0.0142998
814.778	0.0143233
814.856	0.0142466
814.934	0.0144827
815.012	0.0144242
815.090	0.0144089
815.168	0.0144068
815.246	0.0143784
815.325	0.0143217
815.403	0.0143421
815.481	0.0143441
815.559	0.0143828
815.637	0.0144566
815.715	0.0144130
815.793	0.0144143
815.871	0.0143869
815.950	0.0143542
816.028	0.0142969
816.106	0.0143072
816.184	0.0143005
816.262	0.0142428
816.340	0.0143061
816.418	0.0144342
816.496	0.0143938
816.575	0.0142875
816.653	0.0144872
816.731	0.0144404
816.809	0.0143300
816.887	0.0143331
816.965	0.0144132
817.043	0.0144925
817.121	0.0144538
817.200	0.0143887
817.278	0.0143703
817.356	0.0144313
817.434	0.0143947
817.512	0.0143982
817.590	0.0143259
817.668	0.0144063
817.746	0.0143065
817.825	0.0142135
817.903	0.0143331
817.981	0.0143245
818.059	0.0143349
818.137	0.0142330
818.215	0.0143256
818.293	0.0143410
818.371	0.0143462
818.450	0.0143215
818.528	0.0142728
818.606	0.0143751
818.684	0.0144716
818.762	0.0142931
818.840	0.0143587
818.918	0.0142465
818.996	0.0144308
819.075	0.0144618
819.153	0.0144517
819.231	0.0145563
819.309	0.0143258
819.387	0.0143328
819.465	0.0143525
819.543	0.0143550
819.621	0.0144862
819.700	0.0143375
819.778	0.0144132
819.856	0.0144567
819.934	0.0142989
820.012	0.0142821
820.090	0.0143084
820.168	0.0144461
820.246	0.0144273
820.325	0.0145246
820.403	0.0144033
820.481	0.0144833
820.559	0.0144368
820.637	0.0143874
820.715	0.0143295
820.793	0.0143401
820.871	0.0143225
820.950	0.0143556
821.028	0.0144424
821.106	0.0144257
821.184	0.0144091
821.262	0.0142779
821.340	0.0143772
821.418	0.0144743
821.496	0.0143566
821.575	0.0143612
821.653	0.0142786
821.731	0.0143911
821.809	0.0144895
821.887	0.0144050
821.965	0.0142949
822.043	0.0143844
822.121	0.0145269
822.200	0.0143858
822.278	0.0144144
822.356	0.0143330
822.434	0.0143716
822.512	0.0143156
822.590	0.0144723
822.668	0.0145135
822.746	0.0143935
822.825	0.0143687
822.903	0.0143966
822.981	0.0144834
823.059	0.0144298
823.137	0.0144427
823.215	0.0143270
823.293	0.0143032
823.371	0.0142881
823.450	0.0144249
823.528	0.0143854
823.606	0.0144641
823.684	0.0143915
823.762	0.0143437
823.840	0.0144280
823.918	0.0143574
823.996	0.0143215
824.075	0.0143259
824.153	0.0142982
824.231	0.0143488
824.309	0.0142362
824.387	0.0143942
824.465	0.0143616
824.543	0.0142855
824.621	0.0143614
824.700	0.0143485
824.778	0.0143242
824.856	0.0144138
824.934	0.0144145
825.012	0.0142560
825.090	0.0143019
825.168	0.0144044
825.246	0.0143193
825.325	0.0144160
825.403	0.0143438
825.481	0.0143645
825.559	0.0144870
825.637	0.0143210
825.715	0.0143614
825.793	0.0144521
825.871	0.0145225
825.950	0.0143462
826.028	0.0143790
826.106	0.0143730
826.184	0.0144299
826.262	0.0144076
826.340	0.0143645
826.418	0.0145325
826.496	0.0144756
826.575	0.0142809
826.653	0.0143659
826.731	0.0143769
826.809	0.0143792
826.887	0.0144675
826.965	0.0144484
827.043	0.0144233
827.121	0.0144387
827.200	0.0144139
827.278	0.0144349
827.356	0.0144129
827.434	0.0143903
827.512	0.0144770
827.590	0.0145386
827.668	0.0145348
827.746	0.0144068
827.825	0.0142700
827.903	0.0144202
827.981	0.0143676
828.059	0.0144074
828.137	0.0144155
828.215	0.0143600
828.293	0.0143670
828.371	0.0143594
828.450	0.0143272
828.528	0.0144224
828.606	0.0144099
828.684	0.0142942
828.762	0.0142950
828.840	0.0144344
828.918	0.0143816
828.996	0.0144035
829.075	0.0142652
829.153	0.0142262
829.231	0.0142959
829.309	0.0142743
829.387	0.0143257
829.465	0.0144873
829.543	0.0144962
829.621	0.0143176
829.700	0.0144054
829.778	0.0144449
829.856	0.0144008
829.934	0.0145555
830.012	0.0145296
830.090	0.0144354
830.168	0.0144620
830.246	0.0145390
830.325	0.0145267
830.403	0.0145175
830.481	0.0144046
830.559	0.0144167
830.637	0.0144060
830.715	0.0144161
830.793	0.0142636
830.871	0.0143587
830.950	0.0143675
831.028	0.0142814
831.106	0.0144392
831.184	0.0143697
831.262	0.0141856
831.340	0.0140874
831.418	0.0143513
831.496	0.0142908
831.575	0.0142474
831.653	0.0143349
831.731	0.0144263
831.809	0.0143153
831.887	0.0144775
831.965	0.0144147
832.043	0.0143040
832.121	0.0141785
832.200	0.0142451
832.278	0.0144001
832.356	0.0143938
832.434	0.0144070
832.512	0.0142991
832.590	0.0144009
832.668	0.0143568
832.746	0.0141901
832.825	0.0144807
832.903	0.0142814
832.981	0.0144038
833.059	0.0143652
833.137	0.0145393
833.215	0.0144910
833.293	0.0143533
833.371	0.0144839
833.450	0.0145120
833.528	0.0145223
833.606	0.0144444
833.684	0.0144865
833.762	0.0144241
833.840	0.0144297
833.918	0.0143970
833.996	0.0145626
834.075	0.0144194
834.153	0.0144241
834.231	0.0142294
834.309	0.0143034
834.387	0.0144032
834.465	0.0143757
834.543	0.0144387
834.621	0.0143841
834.700	0.0144198
834.778	0.0143143
834.856	0.0143983
834.934	0.0142806
835.012	0.0143142
835.090	0.0143004
835.168	0.0143665
835.246	0.0143913
835.325	0.0144427
835.403	0.0143673
835.481	0.0143385
835.559	0.0143975
835.637	0.0143315
835.715	0.0143797
835.793	0.0142054
835.871	0.0143378
835.950	0.0145112
836.028	0.0144407
836.106	0.0143739
836.184	0.0144009
836.262	0.0143365
836.340	0.0143387
836.418	0.0143898
836.496	0.0144200
836.575	0.0143222
836.653	0.0144228
836.731	0.0143840
836.809	0.0143971
836.887	0.0145001
836.965	0.0144622
837.043	0.0144100
837.121	0.0143249
837.200	0.0144170
837.278	0.0143717
837.356	0.0144679
837.434	0.0144807
837.512	0.0143744
837.590	0.0143685
837.668	0.0143254
837.746	0.0145116
837.825	0.0145046
837.903	0.0144221
837.981	0.0144047
838.059	0.0143713
838.137	0.0144539
838.215	0.0144177
838.293	0.0144098
838.371	0.0142962
838.450	0.0142634
838.528	0.0144653
838.606	0.0144086
838.684	0.0143168
838.762	0.0143359
838.840	0.0144426
838.918	0.0142097
838.996	0.0144395
839.075	0.0143276
839.153	0.0142992
839.231	0.0143958
839.309	0.0143315
839.387	0.0144105
839.465	0.0144677
839.543	0.0144639
839.621	0.0143417
839.700	0.0143927
839.778	0.0145108
839.856	0.0143118
839.934	0.0144209
840.012	0.0144210
840.090	0.0144896
840.168	0.0144388
840.246	0.0144794
840.325	0.0143257
840.403	0.0144235
840.481	0.0144470
840.559	0.0143907
840.637	0.0142345
840.715	0.0143547
840.793	0.0144357
840.871	0.0143552
840.950	0.0143567
841.028	0.0143660
841.106	0.0143927
841.184	0.0143729
841.262	0.0143925
841.340	0.0144127
841.418	0.0144635
841.496	0.0143883
841.575	0.0143225
841.653	0.0142345
841.731	0.0145329
841.809	0.0144732
841.887	0.0144244
841.965	0.0143742
842.043	0.0143508
842.121	0.0144208
842.200	0.0143439
842.278	0.0144146
842.356	0.0143414
842.434	0.0143965
842.512	0.0143121
842.590	0.0144393
842.668	0.0144663
842.746	0.0144846
842.825	0.0143546
842.903	0.0143769
842.981	0.0142933
843.059	0.0142767
843.137	0.0143378
843.215	0.0142793
843.293	0.0143149
843.371	0.0145280
843.450	0.0144237
843.528	0.0144956
843.606	0.0144523
843.684	0.0144386
843.762	0.0143019
843.840	0.0143348
843.918	0.0143648
843.996	0.0143701
844.075	0.0145238
844.153	0.0144611
844.231	0.0145094
844.309	0.0143855
844.387	0.0143082
844.465	0.0144456
844.543	0.0142702
844.621	0.0143001
844.700	0.0143844
844.778	0.0142868
844.856	0.0142019
844.934	0.0144623
845.012	0.0143370
845.090	0.0143683
845.168	0.0143716
845.246	0.0142375
845.325	0.0142023
845.403	0.0143772
845.481	0.0144157
845.559	0.0142619
845.637	0.0145293
845.715	0.0144611
845.793	0.0143716
845.871	0.0144020
845.950	0.0142304
846.028	0.0142715
846.106	0.0141967
846.184	0.0143555
846.262	0.0142643
846.340	0.0143156
846.418	0.0143889
846.496	0.0143293
846.575	0.0142602
846.653	0.0143658
846.731	0.0143435
846.809	0.0144274
846.887	0.0143795
846.965	0.0143364
847.043	0.0144284
847.121	0.0144628
847.200	0.0143390
847.278	0.0144188
847.356	0.0144994
847.434	0.0143685
847.512	0.0143484
847.590	0.0145259
847.668	0.0144337
847.746	0.0143312
847.825	0.0145325
847.903	0.0143394
847.981	0.0144151
848.059	0.0143298
848.137	0.0143512
848.215	0.0143571
848.293	0.0144444
848.371	0.0143973
848.450	0.0143532
848.528	0.0142103
848.606	0.0143257
848.684	0.0145107
848.762	0.0145502
848.840	0.0143003
848.918	0.0143188
848.996	0.0143101
849.075	0.0144927
849.153	0.0144463
849.231	0.0142786
849.309	0.0143402
849.387	0.0143665
849.465	0.0143924
849.543	0.0143716
849.621	0.0143013
849.700	0.0143668
849.778	0.0144830
849.856	0.0142067
849.934	0.0143691
850.012	0.0142171
850.090	0.0143489
850.168	0.0144128
850.246	0.0143590
850.325	0.0143980
850.403	0.0143060
850.481	0.0145187
850.559	0.0143510
850.637	0.0143708
850.715	0.0143513
850.793	0.0144355
850.871	0.0142374
850.950	0.0143829
851.028	0.0145020
851.106	0.0144319
851.184	0.0143420
851.262	0.0143686
851.340	0.0144001
851.418	0.0144247
851.496	0.0144855
851.575	0.0144534
851.653	0.0144718
851.731	0.0144530
851.809	0.0143754
851.887	0.0147028
851.965	0.0145097
852.043	0.0143762
852.121	0.0145159
852.200	0.0144045
852.278	0.0144240
852.356	0.0144024
852.434	0.0144775
852.512	0.0143911
852.590	0.0144535
852.668	0.0145008
852.746	0.0143837
852.825	0.0143736
852.903	0.0143257
852.981	0.0143079
853.059	0.0143506
853.137	0.0143343
853.215	0.0144946
853.293	0.0145725
853.371	0.0144817
853.450	0.0143155
853.528	0.0142049
853.606	0.0143076
853.684	0.0144144
853.762	0.0144973
853.840	0.0143911
853.918	0.0143785
853.996	0.0144303
854.075	0.0144697
854.153	0.0143915
854.231	0.0143138
854.309	0.0144483
854.387	0.0143110
854.465	0.0143536
854.543	0.0144019
854.621	0.0145258
854.700	0.0143186
854.778	0.0143858
854.856	0.0143681
854.934	0.0143576
855.012	0.0144737
855.090	0.0143343
855.168	0.0143061
855.246	0.0145338
855.325	0.0144487
855.403	0.0145160
855.481	0.0144164
855.559	0.0144318
855.637	0.0144617
855.715	0.0142940
855.793	0.0144540
855.871	0.0143368
855.950	0.0144728
856.028	0.0145348
856.106	0.0144847
856.184	0.0142757
856.262	0.0143262
856.340	0.0144234
856.418	0.0144135
856.496	0.0143417
856.575	0.0144215
856.653	0.0143197
856.731	0.0142039
856.809	0.0144302
856.887	0.0143494
856.965	0.0144768
857.043	0.0143307
857.121	0.0143087
857.200	0.0142932
857.278	0.0144580
857.356	0.0144353
857.434	0.0143304
857.512	0.0142887
857.590	0.0143498
857.668	0.0142706
857.746	0.0142475
857.825	0.0144375
857.903	0.0144028
857.981	0.0143127
858.059	0.0142968
858.137	0.0143311
858.215	0.0142833
858.293	0.0144428
858.371	0.0143394
858.450	0.0143615
858.528	0.0143781
858.606	0.0143925
858.684	0.0143698
858.762	0.0143833
858.840	0.0144062
858.918	0.0143001
858.996	0.0143244
859.075	0.0145226
859.153	0.0142973
859.231	0.0143505
859.309	0.0144809
859.387	0.0144582
859.465	0.0143848
859.543	0.0144289
859.621	0.0144171
859.700	0.0144139
859.778	0.0143706
859.856	0.0145364
859.934	0.0144932
860.012	0.0143819
860.090	0.0142657
860.168	0.0143736
860.246	0.0144218
860.325	0.0143995
860.403	0.0143638
860.481	0.0143395
860.559	0.0143548
860.637	0.0142977
860.715	0.0142989
860.793	0.0144363
860.871	0.0143174
860.950	0.0141450
861.028	0.0144850
861.106	0.0143542
861.184	0.0144388
861.262	0.0144553
861.340	0.0143328
861.418	0.0143594
861.496	0.0143999
861.575	0.0143020
861.653	0.0141737
861.731	0.0143610
861.809	0.0144195
861.887	0.0143134
861.965	0.0142921
862.043	0.0143320
862.121	0.0142686
862.200	0.0142972
862.278	0.0143793
862.356	0.0145318
862.434	0.0144466
862.512	0.0143226
862.590	0.0143103
862.668	0.0144431
862.746	0.0144453
862.825	0.0144428
862.903	0.0145498
862.981	0.0142339
863.059	0.0144166
863.137	0.0143899
863.215	0.0144532
863.293	0.0145128
863.371	0.0144388
863.450	0.0144582
863.528	0.0145528
863.606	0.0143584
863.684	0.0144424
863.762	0.0144851
863.840	0.0144055
863.918	0.0142760
863.996	0.0142978
864.075	0.0143633
864.153	0.0142612
864.231	0.0143583
864.309	0.0144237
864.387	0.0143832
864.465	0.0144482
864.543	0.0144037
864.621	0.0143353
864.700	0.0143755
864.778	0.0143680
864.856	0.0143035
864.934	0.0142179
865.012	0.0143867
865.090	0.0142841
865.168	0.0143825
865.246	0.0144094
865.325	0.0144306
865.403	0.0144372
865.481	0.0142188
865.559	0.0143020
865.637	0.0143707
865.715	0.0143437
865.793	0.0143165
865.871	0.0143772
865.950	0.0143034
866.028	0.0144073
866.106	0.0144043
866.184	0.0144250
866.262	0.0142878
866.340	0.0143513
866.418	0.0142516
866.496	0.0144401
866.575	0.0144022
866.653	0.0145464
866.731	0.0144794
866.809	0.0144583
866.887	0.0144141
866.965	0.0145309
867.043	0.0143855
867.121	0.0144820
867.200	0.0145773
867.278	0.0144199
867.356	0.0143086
867.434	0.0145428
867.512	0.0144368
867.590	0.0144478
867.668	0.0143765
867.746	0.0143436
867.825	0.0144329
867.903	0.0144380
867.981	0.0144415
868.059	0.0144254
868.137	0.0144357
868.215	0.0142986
868.293	0.0142834
868.371	0.0144054
868.450	0.0145419
868.528	0.0143693
868.606	0.0142477
868.684	0.0142615
868.762	0.0143431
868.840	0.0143227
868.918	0.0144047
868.996	0.0143947
869.075	0.0144189
869.153	0.0142905
869.231	0.0144147
869.309	0.0143565
869.387	0.0144160
869.465	0.0143514
869.543	0.0143510
869.621	0.0143560
869.700	0.0144264
869.778	0.0145381
869.856	0.0144999
869.934	0.0143267
870.012	0.0143784
870.090	0.0144298
870.168	0.0143983
870.246	0.0143233
870.325	0.0144376
870.403	0.0143627
870.481	0.0143382
870.559	0.0143588
870.637	0.0143426
870.715	0.0144074
870.793	0.0143651
870.871	0.0144527
870.950	0.0144636
871.028	0.0142910
871.106	0.0144710
871.184	0.0144488
871.262	0.0144891
871.340	0.0144801
871.418	0.0144565
871.496	0.0145392
871.575	0.0143458
871.653	0.0144703
871.731	0.0145492
871.809	0.0144044
871.887	0.0145061
871.965	0.0145840
872.043	0.0143885
872.121	0.0143577
872.200	0.0144040
872.278	0.0146147
872.356	0.0144195
872.434	0.0143662
872.512	0.0143264
872.590	0.0144917
872.668	0.0143664
872.746	0.0142963
872.825	0.0143370
872.903	0.0142693
872.981	0.0142628
873.059	0.0143636
873.137	0.0144985
873.215	0.0143777
873.293	0.0143607
873.371	0.0144257
873.450	0.0143138
873.528	0.0143166
873.606	0.0142662
873.684	0.0144366
873.762	0.0144991
873.840	0.0144882
873.918	0.0143573
873.996	0.0143628
874.075	0.0143820
874.153	0.0144726
874.231	0.0144013
874.309	0.0142767
874.387	0.0144123
874.465	0.0144049
874.543	0.0144762
874.621	0.0141972
874.700	0.0143452
874.778	0.0144952
874.856	0.0143310
874.934	0.0143908
875.012	0.0144510
875.090	0.0143785
875.168	0.0143586
875.246	0.0145022
875.325	0.0144694
875.403	0.0143308
875.481	0.0143803
875.559	0.0145267
875.637	0.0143514
875.715	0.0143465
875.793	0.0144702
875.871	0.0144910
875.950	0.0143873
876.028	0.0145022
876.106	0.0145546
876.184	0.0143403
876.262	0.0142959
876.340	0.0144135
876.418	0.0142937
876.496	0.0144878
876.575	0.0144887
876.653	0.0143152
876.731	0.0145015
876.809	0.0144180
876.887	0.0144781
876.965	0.0144941
877.043	0.0143818
877.121	0.0143346
877.200	0.0144560
877.278	0.0144868
877.356	0.0143729
877.434	0.0144761
877.512	0.0142287
877.590	0.0144689
877.668	0.0143831
877.746	0.0144971
877.825	0.0143958
877.903	0.0144022
877.981	0.0145004
878.059	0.0143932
878.137	0.0143819
878.215	0.0144898
878.293	0.0142435
878.371	0.0143435
878.450	0.0144505
878.528	0.0142777
878.606	0.0142678
878.684	0.0143448
878.762	0.0144140
878.840	0.0143240
878.918	0.0144041
878.996	0.0142848
879.075	0.0143729
879.153	0.0144255
879.231	0.0143685
879.309	0.0143037
879.387	0.0143350
879.465	0.0143980
879.543	0.0142637
879.621	0.0143786
879.700	0.0145067
879.778	0.0144028
879.856	0.0144209
879.934	0.0143792
880.012	0.0145059
880.090	0.0144942
880.168	0.0143217
880.246	0.0143978
880.325	0.0143970
880.403	0.0144350
880.481	0.0146214
880.559	0.0145074
880.637	0.0144444
880.715	0.0143425
880.793	0.0143916
880.871	0.0143856
880.950	0.0143075
881.028	0.0143189
881.106	0.0143889
881.184	0.0143366
881.262	0.0142121
881.340	0.0143163
881.418	0.0144640
881.496	0.0143159
881.575	0.0143016
881.653	0.0142373
881.731	0.0145060
881.809	0.0144289
881.887	0.0144173
881.965	0.0144012
882.043	0.0143960
882.121	0.0143292
882.200	0.0144731
882.278	0.0145377
882.356	0.0144057
882.434	0.0143538
882.512	0.0143808
882.590	0.0144918
882.668	0.0144273
882.746	0.0144050
882.825	0.0143574
882.903	0.0144044
882.981	0.0144605
883.059	0.0144086
883.137	0.0145084
883.215	0.0145705
883.293	0.0143129
883.371	0.0144779
883.450	0.0144150
883.528	0.0144493
883.606	0.0144893
883.684	0.0144350
883.762	0.0145358
883.840	0.0143929
883.918	0.0143647
883.996	0.0143365
884.075	0.0144482
884.153	0.0143657
884.231	0.0143907
884.309	0.0143427
884.387	0.0143105
884.465	0.0142999
884.543	0.0144350
884.621	0.0143186
884.700	0.0145477
884.778	0.0144369
884.856	0.0143346
884.934	0.0144713
885.012	0.0146510
885.090	0.0145934
885.168	0.0145181
885.246	0.0145214
885.325	0.0144440
885.403	0.0145071
885.481	0.0145032
885.559	0.0145550
885.637	0.0145670
885.715	0.0143006
885.793	0.0143849
885.871	0.0144773
885.950	0.0144444
886.028	0.0143794
886.106	0.0144071
886.184	0.0145043
886.262	0.0144430
886.340	0.0145490
886.418	0.0143656
886.496	0.0143571
886.575	0.0143936
886.653	0.0144633
886.731	0.0145037
886.809	0.0143207
886.887	0.0144722
886.965	0.0144095
887.043	0.0144940
887.121	0.0143410
887.200	0.0142767
887.278	0.0142896
887.356	0.0143953
887.434	0.0142443
887.512	0.0143018
887.590	0.0143692
887.668	0.0144171
887.746	0.0143587
887.825	0.0143364
887.903	0.0145386
887.981	0.0144901
888.059	0.0144658
888.137	0.0143904
888.215	0.0145080
888.293	0.0143907
888.371	0.0144707
888.450	0.0142715
888.528	0.0143940
888.606	0.0144704
888.684	0.0143845
888.762	0.0143360
888.840	0.0143365
888.918	0.0144173
888.996	0.0144038
889.075	0.0143603
889.153	0.0143689
889.231	0.0142937
889.309	0.0143798
889.387	0.0143814
889.465	0.0143149
889.543	0.0143350
889.621	0.0144004
889.700	0.0143183
889.778	0.0143190
889.856	0.0142926
889.934	0.0144674
890.012	0.0144064
890.090	0.0143426
890.168	0.0143982
890.246	0.0144337
890.325	0.0144001
890.403	0.0144621
890.481	0.0144874
890.559	0.0145478
890.637	0.0144801
890.715	0.0144937
890.793	0.0145366
890.871	0.0145107
890.950	0.0143762
891.028	0.0143308
891.106	0.0144574
891.184	0.0144452
891.262	0.0143134
891.340	0.0144111
891.418	0.0143696
891.496	0.0142959
891.575	0.0144172
891.653	0.0144393
891.731	0.0143166
891.809	0.0142464
891.887	0.0143277
891.965	0.0143276
892.043	0.0143400
892.121	0.0145108
892.200	0.0144380
892.278	0.0143635
892.356	0.0143946
892.434	0.0143864
892.512	0.0144064
892.590	0.0145243
892.668	0.0144649
892.746	0.0144241
892.825	0.0145166
892.903	0.0144802
892.981	0.0144041
893.059	0.0143420
893.137	0.0143031
893.215	0.0144025
893.293	0.0143117
893.371	0.0144271
893.450	0.0143784
893.528	0.0143244
893.606	0.0143579
893.684	0.0144469
893.762	0.0144351
893.840	0.0144175
893.918	0.0143839
893.996	0.0144073
894.075	0.0142314
894.153	0.0144093
894.231	0.0142693
894.309	0.0144634
894.387	0.0144263
894.465	0.0143841
894.543	0.0144345
894.621	0.0143921
894.700	0.0143623
894.778	0.0142547
894.856	0.0144337
894.934	0.0144046
895.012	0.0143752
895.090	0.0144296
895.168	0.0143898
895.246	0.0145085
895.325	0.0144444
895.403	0.0145741
895.481	0.0143652
895.559	0.0144658
895.637	0.0143813
895.715	0.0144611
895.793	0.0142084
895.871	0.0144498
895.950	0.0143432
896.028	0.0143374
896.106	0.0144649
896.184	0.0144244
896.262	0.0143398
896.340	0.0142621
896.418	0.0145167
896.496	0.0144404
896.575	0.0146424
896.653	0.0144318
896.731	0.0142702
896.809	0.0143976
896.887	0.0143864
896.965	0.0143726
897.043	0.0143889
897.121	0.0144615
897.200	0.0144707
897.278	0.0145152
897.356	0.0145533
897.434	0.0143545
897.512	0.0145080
897.590	0.0144743
897.668	0.0144468
897.746	0.0143301
897.825	0.0143878
897.903	0.0143312
897.981	0.0142763
898.059	0.0143688
898.137	0.0144492
898.215	0.0144237
898.293	0.0144174
898.371	0.0143340
898.450	0.0144758
898.528	0.0144128
898.606	0.0144028
898.684	0.0145582
898.762	0.0143966
898.840	0.0143709
898.918	0.0143468
898.996	0.0143647
899.075	0.0144060
899.153	0.0144286
899.231	0.0143478
899.309	0.0144113
899.387	0.0144460
899.465	0.0143392
899.543	0.0144852
899.621	0.0143601
899.700	0.0143605
899.778	0.0143324
899.856	0.0143142
899.934	0.0145076
900.012	0.0143456
900.090	0.0142993
900.168	0.0144283
900.246	0.0143385
900.325	0.0143421
900.403	0.0143629
900.481	0.0144479
900.559	0.0143142
900.637	0.0144398
900.715	0.0143280
900.793	0.0144814
900.871	0.0144115
900.950	0.0144311
901.028	0.0143240
901.106	0.0144028
901.184	0.0142910
901.262	0.0144763
901.340	0.0145004
901.418	0.0143427
901.496	0.0144292
901.575	0.0145222
901.653	0.0143950
901.731	0.0145591
901.809	0.0145037
901.887	0.0144611
901.965	0.0142938
902.043	0.0142690
902.121	0.0144772
902.200	0.0144282
902.278	0.0144637
902.356	0.0142853
902.434	0.0143581
902.512	0.0143495
902.590	0.0143192
902.668	0.0143839
902.746	0.0143289
902.825	0.0142274
902.903	0.0142599
902.981	0.0141903
903.059	0.0142645
903.137	0.0142109
903.215	0.0142988
903.293	0.0144016
903.371	0.0144144
903.450	0.0142164
903.528	0.0143030
903.606	0.0143354
903.684	0.0144669
903.762	0.0145257
903.840	0.0143349
903.918	0.0144114
903.996	0.0144245
904.075	0.0144629
904.153	0.0144368
904.231	0.0144141
904.309	0.0143548
904.387	0.0143062
904.465	0.0143899
904.543	0.0142857
904.621	0.0144624
904.700	0.0144866
904.778	0.0143873
904.856	0.0142625
904.934	0.0145613
905.012	0.0143833
905.090	0.0144038
905.168	0.0143572
905.246	0.0144268
905.325	0.0144966
905.403	0.0143214
905.481	0.0145979
905.559	0.0143984
905.637	0.0143181
905.715	0.0143435
905.793	0.0143118
905.871	0.0143163
905.950	0.0144014
906.028	0.0141863
906.106	0.0142316
906.184	0.0143478
906.262	0.0143050
906.340	0.0141788
906.418	0.0143075
906.496	0.0142543
906.575	0.0143188
906.653	0.0144566
906.731	0.0144247
906.809	0.0142403
906.887	0.0144754
906.965	0.0143518
907.043	0.0144852
907.121	0.0145188
907.200	0.0143297
907.278	0.0143838
907.356	0.0143809
907.434	0.0143619
907.512	0.0142984
907.590	0.0142419
907.668	0.0144298
907.746	0.0144870
907.825	0.0143441
907.903	0.0143459
907.981	0.0144395
908.059	0.0144756
908.137	0.0145033
908.215	0.0144565
908.293	0.0144560
908.371	0.0143567
908.450	0.0144287
908.528	0.0145644
908.606	0.0145054
908.684	0.0143678
908.762	0.0143894
908.840	0.0144644
908.918	0.0143747
908.996	0.0143832
909.075	0.0142982
909.153	0.0143623
909.231	0.0144106
909.309	0.0142248
909.387	0.0143753
909.465	0.0143639
909.543	0.0142831
909.621	0.0142774
909.700	0.0142470
909.778	0.0143170
909.856	0.0142934
909.934	0.0143422
910.012	0.0142994
910.090	0.0144183
910.168	0.0142850
910.246	0.0143482
910.325	0.0143977
910.403	0.0143570
910.481	0.0144199
910.559	0.0143832
910.637	0.0146318
910.715	0.0145557
910.793	0.0143929
910.871	0.0144803
910.950	0.0144274
911.028	0.0143803
911.106	0.0144281
911.184	0.0145085
911.262	0.0143956
911.340	0.0144682
911.418	0.0144179
911.496	0.0143376
911.575	0.0143791
911.653	0.0143946
911.731	0.0143024
911.809	0.0145223
911.887	0.0144751
911.965	0.0145007
912.043	0.0144971
912.121	0.0145056
912.200	0.0144340
912.278	0.0142351
912.356	0.0143997
912.434	0.0143242
912.512	0.0143752
912.590	0.0144481
912.668	0.0144962
912.746	0.0143449
912.825	0.0144164
912.903	0.0144787
912.981	0.0143320
913.059	0.0143694
913.137	0.0145340
913.215	0.0145158
913.293	0.0144958
913.371	0.0142326
913.450	0.0143028
913.528	0.0143217
913.606	0.0143832
913.684	0.0142952
913.762	0.0143536
913.840	0.0144527
913.918	0.0144217
913.996	0.0144124
914.075	0.0143940
914.153	0.0144067
914.231	0.0144460
914.309	0.0145155
914.387	0.0144488
914.465	0.0143778
914.543	0.0143871
914.621	0.0143856
914.700	0.0143481
914.778	0.0144410
914.856	0.0145216
914.934	0.0143234
915.012	0.0143510
915.090	0.0144368
915.168	0.0144338
915.246	0.0143517
915.325	0.0143378
915.403	0.0143742
915.481	0.0144377
915.559	0.0145139
915.637	0.0145345
915.715	0.0145661
915.793	0.0144998
915.871	0.0144352
915.950	0.0143658
916.028	0.0144292
916.106	0.0144446
916.184	0.0144776
916.262	0.0144235
916.340	0.0144471
916.418	0.0144576
916.496	0.0141876
916.575	0.0142928
916.653	0.0143966
916.731	0.0144955
916.809	0.0143508
916.887	0.0142422
916.965	0.0144343
917.043	0.0144262
917.121	0.0144147
917.200	0.0142961
917.278	0.0143982
917.356	0.0144782
917.434	0.0144949
917.512	0.0143501
917.590	0.0144237
917.668	0.0144050
917.746	0.0144580
917.825	0.0144592
917.903	0.0144074
917.981	0.0144563
918.059	0.0144784
918.137	0.0145807
918.215	0.0144672
918.293	0.0144948
918.371	0.0144921
918.450	0.0144592
918.528	0.0144750
918.606	0.0143720
918.684	0.0144140
918.762	0.0144409
918.840	0.0144402
918.918	0.0145157
918.996	0.0144157
919.075	0.0144907
919.153	0.0143405
919.231	0.0143953
919.309	0.0144534
919.387	0.0144655
919.465	0.0144457
919.543	0.0143249
919.621	0.0144834
919.700	0.0143737
919.778	0.0142961
919.856	0.0144518
919.934	0.0143899
920.012	0.0144006
920.090	0.0144302
920.168	0.0144089
920.246	0.0143311
920.325	0.0144194
920.403	0.0143494
920.481	0.0142631
920.559	0.0143730
920.637	0.0144273
920.715	0.0143217
920.793	0.0143826
920.871	0.0144131
920.950	0.0143492
921.028	0.0143523
921.106	0.0144207
921.184	0.0143269
921.262	0.0143605
921.340	0.0143090
921.418	0.0144912
921.496	0.0144560
921.575	0.0143156
921.653	0.0144241
921.731	0.0144259
921.809	0.0144737
921.887	0.0143712
921.965	0.0144324
922.043	0.0143504
922.121	0.0144307
922.200	0.0142352
922.278	0.0144355
922.356	0.0144123
922.434	0.0143211
922.512	0.0145062
922.590	0.0142937
922.668	0.0143726
922.746	0.0144731
922.825	0.0143852
922.903	0.0144168
922.981	0.0144407
923.059	0.0144869
923.137	0.0144483
923.215	0.0143066
923.293	0.0143792
923.371	0.0143942
923.450	0.0145226
923.528	0.0143938
923.606	0.0143951
923.684	0.0143026
923.762	0.0143379
923.840	0.0144538
923.918	0.0142567
923.996	0.0143719
924.075	0.0144096
924.153	0.0144235
924.231	0.0144309
924.309	0.0143657
924.387	0.0142697
924.465	0.0144579
924.543	0.0144107
924.621	0.0144196
924.700	0.0144280
924.778	0.0142033
924.856	0.0144802
924.934	0.0143474
925.012	0.0142533
925.090	0.0143837
925.168	0.0144032
925.246	0.0143937
925.325	0.0143050
925.403	0.0144161
925.481	0.0144529
925.559	0.0143430
925.637	0.0143630
925.715	0.0143800
925.793	0.0145426
925.871	0.0145052
925.950	0.0146036
926.028	0.0144193
926.106	0.0143709
926.184	0.0143779
926.262	0.0143744
926.340	0.0143652
926.418	0.0143626
926.496	0.0143685
926.575	0.0144082
926.653	0.0143579
926.731	0.0142847
926.809	0.0144273
926.887	0.0142529
926.965	0.0142571
927.043	0.0144694
927.121	0.0142847
927.200	0.0144706
927.278	0.0144505
927.356	0.0144743
927.434	0.0144567
927.512	0.0142217
927.590	0.0143316
927.668	0.0144790
927.746	0.0143050
927.825	0.0142889
927.903	0.0143951
927.981	0.0143446
928.059	0.0142954
928.137	0.0144543
928.215	0.0144653
928.293	0.0143736
928.371	0.0145039
928.450	0.0143310
928.528	0.0145138
928.606	0.0144389
928.684	0.0146030
928.762	0.0143736
928.840	0.0143748
928.918	0.0143880
928.996	0.0144582
929.075	0.0143913
929.153	0.0143681
929.231	0.0144994
929.309	0.0144312
929.387	0.0143005
929.465	0.0144033
929.543	0.0144456
929.621	0.0144376
929.700	0.0143978
929.778	0.0144730
929.856	0.0143420
929.934	0.0142706
930.012	0.0142992
930.090	0.0143965
930.168	0.0142066
930.246	0.0143454
930.325	0.0144200
930.403	0.0143710
930.481	0.0144318
930.559	0.0145294
930.637	0.0142766
930.715	0.0143742
930.793	0.0143053
930.871	0.0143763
930.950	0.0143811
931.028	0.0144592
931.106	0.0144115
931.184	0.0143549
931.262	0.0142652
931.340	0.0143352
931.418	0.0144000
931.496	0.0144984
931.575	0.0144165
931.653	0.0144064
931.731	0.0141928
931.809	0.0143683
931.887	0.0144385
931.965	0.0145100
932.043	0.0143359
932.121	0.0143162
932.200	0.0144044
932.278	0.0144163
932.356	0.0143502
932.434	0.0144296
932.512	0.0143800
932.590	0.0144405
932.668	0.0145308
932.746	0.0143804
932.825	0.0146088
932.903	0.0142793
932.981	0.0144131
933.059	0.0145413
933.137	0.0143166
933.215	0.0145260
933.293	0.0142776
933.371	0.0143559
933.450	0.0143568
933.528	0.0143542
933.606	0.0142330
933.684	0.0142413
933.762	0.0143134
933.840	0.0143485
933.918	0.0144981
933.996	0.0142748
934.075	0.0143509
934.153	0.0145448
934.231	0.0144257
934.309	0.0141854
934.387	0.0142875
934.465	0.0144434
934.543	0.0143842
934.621	0.0144437
934.700	0.0144736
934.778	0.0144128
934.856	0.0144101
934.934	0.0143841
935.012	0.0144538
935.090	0.0145065
935.168	0.0144405
935.246	0.0143812
935.325	0.0143697
935.403	0.0143737
935.481	0.0143438
935.559	0.0144855
935.637	0.0143346
935.715	0.0143690
935.793	0.0143456
935.871	0.0143366
935.950	0.0144154
936.028	0.0145114
936.106	0.0143373
936.184	0.0144175
936.262	0.0144380
936.340	0.0143131
936.418	0.0144419
936.496	0.0144592
936.575	0.0144553
936.653	0.0143664
936.731	0.0144224
936.809	0.0144215
936.887	0.0143195
936.965	0.0142923
937.043	0.0145332
937.121	0.0144209
937.200	0.0144275
937.278	0.0144687
937.356	0.0143613
937.434	0.0143929
937.512	0.0143135
937.590	0.0144244
937.668	0.0144542
937.746	0.0143348
937.825	0.0144064
937.903	0.0144365
937.981	0.0142972
938.059	0.0143170
938.137	0.0143119
938.215	0.0143592
938.293	0.0143290
938.371	0.0143361
938.450	0.0144259
938.528	0.0143938
938.606	0.0143078
938.684	0.0144217
938.762	0.0143349
938.840	0.0142580
938.918	0.0142176
938.996	0.0144587
939.075	0.0143143
939.153	0.0142262
939.231	0.0144172
939.309	0.0144386
939.387	0.0143447
939.465	0.0144917
939.543	0.0143842
939.621	0.0143671
939.700	0.0144016
939.778	0.0144818
939.856	0.0144740
939.934	0.0143443
940.012	0.0143974
940.090	0.0144186
940.168	0.0144753
940.246	0.0142405
940.325	0.0142674
940.403	0.0144466
940.481	0.0145185
940.559	0.0142910
940.637	0.0144637
940.715	0.0143114
940.793	0.0144279
940.871	0.0143627
940.950	0.0144269
941.028	0.0144643
941.106	0.0143790
941.184	0.0144411
941.262	0.0143771
941.340	0.0145464
941.418	0.0143681
941.496	0.0144034
941.575	0.0143274
941.653	0.0144054
941.731	0.0144575
941.809	0.0143839
941.887	0.0143855
941.965	0.0143607
942.043	0.0144195
942.121	0.0143751
942.200	0.0145092
942.278	0.0143608
942.356	0.0143594
942.434	0.0142490
942.512	0.0144096
942.590	0.0144267
942.668	0.0144505
942.746	0.0144028
942.825	0.0143697
942.903	0.0142355
942.981	0.0144348
943.059	0.0143887
943.137	0.0144214
943.215	0.0143444
943.293	0.0143369
943.371	0.0143834
943.450	0.0141959
943.528	0.0143275
943.606	0.0142223
943.684	0.0142539
943.762	0.0142904
943.840	0.0143513
943.918	0.0144631
943.996	0.0142899
944.075	0.0143426
944.153	0.0144180
944.231	0.0144334
944.309	0.0144008
944.387	0.0143465
944.465	0.0142411
944.543	0.0143596
944.621	0.0144376
944.700	0.0143710
944.778	0.0143057
944.856	0.0143847
944.934	0.0144106
945.012	0.0143657
945.090	0.0144087
945.168	0.0144232
945.246	0.0144353
945.325	0.0143537
945.403	0.0144453
945.481	0.0144452
945.559	0.0141873
945.637	0.0142887
945.715	0.0145273
945.793	0.0143649
945.871	0.0144120
945.950	0.0143550
946.028	0.0144247
946.106	0.0144981
946.184	0.0143519
946.262	0.0142176
946.340	0.0144928
946.418	0.0144952
946.496	0.0143523
946.575	0.0144221
946.653	0.0144540
946.731	0.0144085
946.809	0.0144140
946.887	0.0144423
946.965	0.0143985
947.043	0.0144208
947.121	0.0142635
947.200	0.0142738
947.278	0.0144671
947.356	0.0143697
947.434	0.0144639
947.512	0.0144038
947.590	0.0143773
947.668	0.0143961
947.746	0.0143075
947.825	0.0142585
947.903	0.0143185
947.981	0.0144615
948.059	0.0144157
948.137	0.0143752
948.215	0.0144522
948.293	0.0144422
948.371	0.0144920
948.450	0.0145136
948.528	0.0144600
948.606	0.0145076
948.684	0.0144556
948.762	0.0143349
948.840	0.0142931
948.918	0.0145562
948.996	0.0145786
949.075	0.0143401
949.153	0.0144103
949.231	0.0143567
949.309	0.0144328
949.387	0.0144875
949.465	0.0144318
949.543	0.0143945
949.621	0.0143243
949.700	0.0143570
949.778	0.0143402
949.856	0.0144287
949.934	0.0144336
950.012	0.0144414
950.090	0.0143951
950.168	0.0143504
950.246	0.0143285
950.325	0.0144894
950.403	0.0144421
950.481	0.0143939
950.559	0.0144936
950.637	0.0146487
950.715	0.0145386
950.793	0.0144821
950.871	0.0143693
950.950	0.0143395
951.028	0.0144560
951.106	0.0144805
951.184	0.0143300
951.262	0.0144509
951.340	0.0143819
951.418	0.0143933
951.496	0.0143850
951.575	0.0144878
951.653	0.0145120
951.731	0.0144537
951.809	0.0143943
951.887	0.0143727
951.965	0.0144280
952.043	0.0143665
952.121	0.0144927
952.200	0.0143921
952.278	0.0143902
952.356	0.0145158
952.434	0.0144402
952.512	0.0145351
952.590	0.0142879
952.668	0.0143684
952.746	0.0145575
952.825	0.0144280
952.903	0.0143313
952.981	0.0144393
953.059	0.0143173
953.137	0.0143301
953.215	0.0143265
953.293	0.0145019
953.371	0.0144928
953.450	0.0143073
953.528	0.0144926
953.606	0.0144115
953.684	0.0144254
953.762	0.0144086
953.840	0.0143812
953.918	0.0144073
953.996	0.0144119
954.075	0.0145673
954.153	0.0145118
954.231	0.0144772
954.309	0.0143842
954.387	0.0144267
954.465	0.0144958
954.543	0.0144025
954.621	0.0144656
954.700	0.0144691
954.778	0.0143568
954.856	0.0143822
954.934	0.0143973
955.012	0.0143305
955.090	0.0144722
955.168	0.0143111
955.246	0.0144637
955.325	0.0145019
955.403	0.0143761
955.481	0.0143268
955.559	0.0144157
955.637	0.0141293
955.715	0.0143210
955.793	0.0143150
955.871	0.0143716
955.950	0.0143876
956.028	0.0144267
956.106	0.0145210
956.184	0.0144911
956.262	0.0144545
956.340	0.0143055
956.418	0.0142197
956.496	0.0144022
956.575	0.0144664
956.653	0.0143246
956.731	0.0145026
956.809	0.0143755
956.887	0.0145599
956.965	0.0144222
957.043	0.0143137
957.121	0.0144141
957.200	0.0143520
957.278	0.0143262
957.356	0.0143376
957.434	0.0143645
957.512	0.0143996
957.590	0.0145721
957.668	0.0143777
957.746	0.0142621
957.825	0.0143330
957.903	0.0145313
957.981	0.0143832
958.059	0.0143427
958.137	0.0143856
958.215	0.0144366
958.293	0.0144509
958.371	0.0144373
958.450	0.0143033
958.528	0.0143906
958.606	0.0145119
958.684	0.0144057
958.762	0.0143677
958.840	0.0144231
958.918	0.0142717
958.996	0.0143520
959.075	0.0143082
959.153	0.0142944
959.231	0.0144205
959.309	0.0143431
959.387	0.0144402
959.465	0.0143169
959.543	0.0144538
959.621	0.0143957
959.700	0.0143842
959.778	0.0146439
959.856	0.0144170
959.934	0.0143781
960.012	0.0144334
960.090	0.0144218
960.168	0.0144409
960.246	0.0142471
960.325	0.0143688
960.403	0.0144269
960.481	0.0144704
960.559	0.0143924
960.637	0.0143073
960.715	0.0143376
960.793	0.0143407
960.871	0.0141434
960.950	0.0142776
961.028	0.0143771
961.106	0.0142836
961.184	0.0142677
961.262	0.0142660
961.340	0.0143784
961.418	0.0143489
961.496	0.0143468
961.575	0.0143065
961.653	0.0144052
961.731	0.0143558
961.809	0.0143847
961.887	0.0144601
961.965	0.0144124
962.043	0.0143996
962.121	0.0144672
962.200	0.0144960
962.278	0.0144000
962.356	0.0143578
962.434	0.0142976
962.512	0.0144441
962.590	0.0143688
962.668	0.0143433
962.746	0.0143591
962.825	0.0144399
962.903	0.0144070
962.981	0.0144682
963.059	0.0144829
963.137	0.0143721
963.215	0.0144145
963.293	0.0143019
963.371	0.0144088
963.450	0.0142071
963.528	0.0141814
963.606	0.0143343
963.684	0.0144691
963.762	0.0143738
963.840	0.0143513
963.918	0.0144180
963.996	0.0143995
964.075	0.0144099
964.153	0.0144167
964.231	0.0142961
964.309	0.0143736
964.387	0.0144968
964.465	0.0143835
964.543	0.0142620
964.621	0.0143715
964.700	0.0143669
964.778	0.0143584
964.856	0.0143742
964.934	0.0144719
965.012	0.0143964
965.090	0.0143738
965.168	0.0144396
965.246	0.0143932
965.325	0.0143010
965.403	0.0144044
965.481	0.0142328
965.559	0.0145316
965.637	0.0144799
965.715	0.0144203
965.793	0.0143938
965.871	0.0142561
965.950	0.0143935
966.028	0.0144638
966.106	0.0143696
966.184	0.0144808
966.262	0.0143381
966.340	0.0144010
966.418	0.0143016
966.496	0.0143334
966.575	0.0144106
966.653	0.0144577
966.731	0.0142938
966.809	0.0143380
966.887	0.0145508
966.965	0.0143221
967.043	0.0144745
967.121	0.0144665
967.200	0.0144087
967.278	0.0143974
967.356	0.0143665
967.434	0.0144488
967.512	0.0144580
967.590	0.0144075
967.668	0.0144645
967.746	0.0144094
967.825	0.0144240
967.903	0.0144446
967.981	0.0143825
968.059	0.0143743
968.137	0.0145081
968.215	0.0143833
968.293	0.0143359
968.371	0.0144625
968.450	0.0144065
968.528	0.0143728
968.606	0.0143764
968.684	0.0143732
968.762	0.0144014
968.840	0.0145969
968.918	0.0145159
968.996	0.0143302
969.075	0.0142754
969.153	0.0144288
969.231	0.0143674
969.309	0.0145905
969.387	0.0143928
969.465	0.0144327
969.543	0.0144480
969.621	0.0144254
969.700	0.0145392
969.778	0.0144112
969.856	0.0144140
969.934	0.0144252
970.012	0.0143990
970.090	0.0144832
970.168	0.0144190
970.246	0.0144617
970.325	0.0144193
970.403	0.0144419
970.481	0.0143985
970.559	0.0144612
970.637	0.0143932
970.715	0.0143990
970.793	0.0143681
970.871	0.0144868
970.950	0.0144862
971.028	0.0143668
971.106	0.0144797
971.184	0.0143838
971.262	0.0144431
971.340	0.0146274
971.418	0.0145408
971.496	0.0143427
971.575	0.0143398
971.653	0.0145163
971.731	0.0145437
971.809	0.0145203
971.887	0.0143846
971.965	0.0144370
972.043	0.0144555
972.121	0.0144644
972.200	0.0145257
972.278	0.0144495
972.356	0.0144628
972.434	0.0144716
972.512	0.0142978
972.590	0.0145035
972.668	0.0144809
972.746	0.0142901
972.825	0.0144764
972.903	0.0145603
972.981	0.0144603
973.059	0.0144190
973.137	0.0144183
973.215	0.0143527
973.293	0.0142542
973.371	0.0144076
973.450	0.0144623
973.528	0.0144427
973.606	0.0144488
973.684	0.0143953
973.762	0.0144576
973.840	0.0144656
973.918	0.0144760
973.996	0.0144267
974.075	0.0144573
974.153	0.0144913
974.231	0.0145574
974.309	0.0143649
974.387	0.0144620
974.465	0.0143570
974.543	0.0143096
974.621	0.0144105
974.700	0.0145422
974.778	0.0144935
974.856	0.0143790
974.934	0.0144476
975.012	0.0143040
975.090	0.0144794
975.168	0.0145599
975.246	0.0145099
975.325	0.0143279
975.403	0.0145220
975.481	0.0144337
975.559	0.0143901
975.637	0.0144438
975.715	0.0144228
975.793	0.0143378
975.871	0.0143507
975.950	0.0143780
976.028	0.0143801
976.106	0.0144518
976.184	0.0143865
976.262	0.0144670
976.340	0.0143547
976.418	0.0144765
976.496	0.0144370
976.575	0.0144778
976.653	0.0143818
976.731	0.0143307
976.809	0.0144711
976.887	0.0145068
976.965	0.0145252
977.043	0.0145953
977.121	0.0143980
977.200	0.0143660
977.278	0.0144828
977.356	0.0144573
977.434	0.0144345
977.512	0.0143398
977.590	0.0143742
977.668	0.0143725
977.746	0.0145697
977.825	0.0144862
977.903	0.0143957
977.981	0.0142476
978.059	0.0143961
978.137	0.0144695
978.215	0.0143141
978.293	0.0143991
978.371	0.0143852
978.450	0.0145367
978.528	0.0143433
978.606	0.0144022
978.684	0.0144433
978.762	0.0143970
978.840	0.0143764
978.918	0.0144032
978.996	0.0145484
979.075	0.0143423
979.153	0.0144277
979.231	0.0144736
979.309	0.0144698
979.387	0.0143514
979.465	0.0143878
979.543	0.0143043
979.621	0.0143392
979.700	0.0144192
979.778	0.0144320
979.856	0.0144329
979.934	0.0144443
980.012	0.0144410
980.090	0.0143052
980.168	0.0143705
980.246	0.0144607
980.325	0.0144800
980.403	0.0144652
980.481	0.0145400
980.559	0.0143290
980.637	0.0143153
980.715	0.0145157
980.793	0.0144971
980.871	0.0144894
980.950	0.0143812
981.028	0.0144080
981.106	0.0143066
981.184	0.0143623
981.262	0.0144005
981.340	0.0143104
981.418	0.0143621
981.496	0.0143384
981.575	0.0143623
981.653	0.0144129
981.731	0.0143505
981.809	0.0142937
981.887	0.0144373
981.965	0.0144057
982.043	0.0144678
982.121	0.0144825
982.200	0.0145185
982.278	0.0143965
982.356	0.0142350
982.434	0.0143537
982.512	0.0144093
982.590	0.0144449
982.668	0.0144558
982.746	0.0144563
982.825	0.0144434
982.903	0.0143897
982.981	0.0144720
983.059	0.0142787
983.137	0.0144444
983.215	0.0143767
983.293	0.0144163
983.371	0.0144448
983.450	0.0145554
983.528	0.0143771
983.606	0.0144381
983.684	0.0145762
983.762	0.0145639
983.840	0.0144657
983.918	0.0143437
983.996	0.0145827
984.075	0.0145415
984.153	0.0143537
984.231	0.0144853
984.309	0.0144009
984.387	0.0144468
984.465	0.0145314
984.543	0.0145080
984.621	0.0144265
984.700	0.0145190
984.778	0.0143790
984.856	0.0144512
984.934	0.0145805
985.012	0.0144630
985.090	0.0145489
985.168	0.0145607
985.246	0.0143428
985.325	0.0143581
985.403	0.0143495
985.481	0.0145667
985.559	0.0144922
985.637	0.0144477
985.715	0.0144514
985.793	0.0144324
985.871	0.0143880
985.950	0.0144556
986.028	0.0143529
986.106	0.0144654
986.184	0.0144532
986.262	0.0143559
986.340	0.0145064
986.418	0.0143988
986.496	0.0143501
986.575	0.0142620
986.653	0.0142802
986.731	0.0144511
986.809	0.0145214
986.887	0.0144002
986.965	0.0143855
987.043	0.0144277
987.121	0.0143715
987.200	0.0145756
987.278	0.0143578
987.356	0.0144679
987.434	0.0143574
987.512	0.0145617
987.590	0.0143684
987.668	0.0143780
987.746	0.0146010
987.825	0.0144783
987.903	0.0143594
987.981	0.0143418
988.059	0.0143980
988.137	0.0145183
988.215	0.0143961
988.293	0.0144449
988.371	0.0144508
988.450	0.0143452
988.528	0.0143595
988.606	0.0143482
988.684	0.0143721
988.762	0.0145452
988.840	0.0143423
988.918	0.0144895
988.996	0.0144469
989.075	0.0144224
989.153	0.0144707
989.231	0.0145078
989.309	0.0145009
989.387	0.0144680
989.465	0.0144009
989.543	0.0144054
989.621	0.0143894
989.700	0.0143668
989.778	0.0144255
989.856	0.0144196
989.934	0.0143870
990.012	0.0144924
990.090	0.0144695
990.168	0.0145538
990.246	0.0145205
990.325	0.0144656
990.403	0.0146110
990.481	0.0144024
990.559	0.0144337
990.637	0.0144268
990.715	0.0143403
990.793	0.0143851
990.871	0.0144727
990.950	0.0144138
991.028	0.0143092
991.106	0.0142896
991.184	0.0143179
991.262	0.0144458
991.340	0.0142607
991.418	0.0142203
991.496	0.0143728
991.575	0.0144106
991.653	0.0144445
991.731	0.0143575
991.809	0.0144331
991.887	0.0144959
991.965	0.0144714
992.043	0.0145135
992.121	0.0144136
992.200	0.0143014
992.278	0.0143939
992.356	0.0143861
992.434	0.0141855
992.512	0.0144922
992.590	0.0144627
992.668	0.0141019
992.746	0.0142962
992.825	0.0144653
992.903	0.0142641
992.981	0.0141764
993.059	0.0142619
993.137	0.0142359
993.215	0.0143606
993.293	0.0144565
993.371	0.0143386
993.450	0.0143187
993.528	0.0145312
993.606	0.0143404
993.684	0.0142917
993.762	0.0143436
993.840	0.0143623
993.918	0.0144019
993.996	0.0143777
994.075	0.0143999
994.153	0.0144164
994.231	0.0143053
994.309	0.0144202
994.387	0.0144263
994.465	0.0144772
994.543	0.0143700
994.621	0.0144717
994.700	0.0143912
994.778	0.0145238
994.856	0.0143901
994.934	0.0144131
995.012	0.0144033
995.090	0.0142780
995.168	0.0143903
995.246	0.0144731
995.325	0.0143613
995.403	0.0143674
995.481	0.0143854
995.559	0.0144187
995.637	0.0143874
995.715	0.0143756
995.793	0.0143695
995.871	0.0143829
995.950	0.0142808
996.028	0.0143114
996.106	0.0143067
996.184	0.0144389
996.262	0.0146225
996.340	0.0144073
996.418	0.0143626
996.496	0.0143710
996.575	0.0143241
996.653	0.0144328
996.731	0.0144024
996.809	0.0143516
996.887	0.0143506
996.965	0.0143074
997.043	0.0143619
997.121	0.0143826
997.200	0.0142961
997.278	0.0143608
997.356	0.0144113
997.434	0.0144305
997.512	0.0144936
997.590	0.0143447
997.668	0.0143732
997.746	0.0143637
997.825	0.0145097
997.903	0.0143330
997.981	0.0143368
998.059	0.0144388
998.137	0.0143363
998.215	0.0144987
998.293	0.0144968
998.371	0.0143011
998.450	0.0143369
998.528	0.0145780
998.606	0.0144778
998.684	0.0144607
998.762	0.0143488
998.840	0.0143465
998.918	0.0143952
