05/04/2022	21:17:28	Ver.	4.1	UNKNOWN
Optical Delay	678.996401	Delta X		0.078125	Sweeps	1	Scan Rate	0/0
Coordinates	Axis 1	NaN	Axis 2	NaN	Axis 3	NaN	Axis 4	NaN	Axis 5	NaN	Axis 6	0.000000
TX Power	0.000000	RX Power	0.000000

678.996	0.0147075
679.075	0.0145366
679.153	0.0145316
679.231	0.0145081
679.309	0.0146525
679.387	0.0146123
679.465	0.0146268
679.543	0.0146220
679.621	0.0146957
679.700	0.0145341
679.778	0.0146915
679.856	0.0147192
679.934	0.0147601
680.012	0.0150014
680.090	0.0148790
680.168	0.0149591
680.246	0.0149288
680.325	0.0149580
680.403	0.0149715
680.481	0.0149562
680.559	0.0148834
680.637	0.0148598
680.715	0.0149039
680.793	0.0146767
680.871	0.0146562
680.950	0.0146962
681.028	0.0146090
681.106	0.0146859
681.184	0.0145715
681.262	0.0146634
681.340	0.0145791
681.418	0.0145477
681.496	0.0146342
681.575	0.0145526
681.653	0.0146099
681.731	0.0145397
681.809	0.0145654
681.887	0.0144318
681.965	0.0145608
682.043	0.0147285
682.121	0.0147489
682.200	0.0148862
682.278	0.0147686
682.356	0.0146770
682.434	0.0147312
682.512	0.0147237
682.590	0.0149290
682.668	0.0148679
682.746	0.0148266
682.825	0.0147505
682.903	0.0147640
682.981	0.0148453
683.059	0.0149298
683.137	0.0146886
683.215	0.0147139
683.293	0.0147247
683.371	0.0147320
683.450	0.0146052
683.528	0.0145518
683.606	0.0146628
683.684	0.0144991
683.762	0.0147539
683.840	0.0145501
683.918	0.0147008
683.996	0.0145632
684.075	0.0145941
684.153	0.0146212
684.231	0.0145287
684.309	0.0146498
684.387	0.0146181
684.465	0.0147003
684.543	0.0147198
684.621	0.0147392
684.700	0.0147141
684.778	0.0147150
684.856	0.0146563
684.934	0.0146475
685.012	0.0147952
685.090	0.0145525
685.168	0.0146960
685.246	0.0147086
685.325	0.0147809
685.403	0.0146543
685.481	0.0147879
685.559	0.0148331
685.637	0.0148347
685.715	0.0148315
685.793	0.0149265
685.871	0.0149745
685.950	0.0148357
686.028	0.0149400
686.106	0.0149618
686.184	0.0148652
686.262	0.0147894
686.340	0.0146542
686.418	0.0148115
686.496	0.0148389
686.575	0.0146638
686.653	0.0145515
686.731	0.0145712
686.809	0.0146387
686.887	0.0144254
686.965	0.0145180
687.043	0.0145474
687.121	0.0145572
687.200	0.0146094
687.278	0.0145381
687.356	0.0147253
687.434	0.0148744
687.512	0.0146915
687.590	0.0147381
687.668	0.0146896
687.746	0.0148270
687.825	0.0148196
687.903	0.0147958
687.981	0.0149043
688.059	0.0149061
688.137	0.0148409
688.215	0.0148906
688.293	0.0147817
688.371	0.0148066
688.450	0.0149319
688.528	0.0148016
688.606	0.0147880
688.684	0.0148884
688.762	0.0147256
688.840	0.0145567
688.918	0.0146521
688.996	0.0145408
689.075	0.0145592
689.153	0.0146980
689.231	0.0145392
689.309	0.0145299
689.387	0.0147009
689.465	0.0148264
689.543	0.0145203
689.621	0.0145588
689.700	0.0146444
689.778	0.0145264
689.856	0.0146838
689.934	0.0148728
690.012	0.0147388
690.090	0.0148053
690.168	0.0147634
690.246	0.0149496
690.325	0.0148022
690.403	0.0148097
690.481	0.0146468
690.559	0.0148945
690.637	0.0147871
690.715	0.0146973
690.793	0.0146911
690.871	0.0147428
690.950	0.0146433
691.028	0.0145706
691.106	0.0146129
691.184	0.0145905
691.262	0.0145367
691.340	0.0146591
691.418	0.0146257
691.496	0.0147368
691.575	0.0147469
691.653	0.0145943
691.731	0.0147619
691.809	0.0148142
691.887	0.0147404
691.965	0.0147620
692.043	0.0147730
692.121	0.0147931
692.200	0.0149899
692.278	0.0149124
692.356	0.0147285
692.434	0.0147077
692.512	0.0148032
692.590	0.0147839
692.668	0.0148324
692.746	0.0147905
692.825	0.0147084
692.903	0.0147056
692.981	0.0147021
693.059	0.0146840
693.137	0.0146990
693.215	0.0146609
693.293	0.0146915
693.371	0.0146297
693.450	0.0146059
693.528	0.0144406
693.606	0.0147009
693.684	0.0146463
693.762	0.0146111
693.840	0.0146665
693.918	0.0147252
693.996	0.0147025
694.075	0.0146362
694.153	0.0146903
694.231	0.0145599
694.309	0.0147541
694.387	0.0147904
694.465	0.0147352
694.543	0.0147073
694.621	0.0147089
694.700	0.0148897
694.778	0.0149181
694.856	0.0148566
694.934	0.0147803
695.012	0.0148846
695.090	0.0147053
695.168	0.0147407
695.246	0.0147803
695.325	0.0148058
695.403	0.0147220
695.481	0.0145312
695.559	0.0145265
695.637	0.0144400
695.715	0.0145921
695.793	0.0145995
695.871	0.0145403
695.950	0.0147772
696.028	0.0146661
696.106	0.0147397
696.184	0.0147619
696.262	0.0146418
696.340	0.0146280
696.418	0.0145839
696.496	0.0145962
696.575	0.0146056
696.653	0.0145122
696.731	0.0147255
696.809	0.0147167
696.887	0.0148913
696.965	0.0148678
697.043	0.0148298
697.121	0.0147952
697.200	0.0147356
697.278	0.0146927
697.356	0.0144525
697.434	0.0143743
697.512	0.0145405
697.590	0.0145064
697.668	0.0144084
697.746	0.0143955
697.825	0.0146967
697.903	0.0146935
697.981	0.0147717
698.059	0.0149546
698.137	0.0148112
698.215	0.0147862
698.293	0.0148898
698.371	0.0147797
698.450	0.0146809
698.528	0.0146080
698.606	0.0145582
698.684	0.0146596
698.762	0.0145942
698.840	0.0148063
698.918	0.0147951
698.996	0.0146973
699.075	0.0147683
699.153	0.0146862
699.231	0.0145512
699.309	0.0145992
699.387	0.0145818
699.465	0.0146944
699.543	0.0145360
699.621	0.0147510
699.700	0.0147066
699.778	0.0148679
699.856	0.0148801
699.934	0.0149888
700.012	0.0147417
700.090	0.0147820
700.168	0.0148002
700.246	0.0147245
700.325	0.0144868
700.403	0.0142993
700.481	0.0144897
700.559	0.0142619
700.637	0.0142670
700.715	0.0143388
700.793	0.0144382
700.871	0.0145605
700.950	0.0147430
701.028	0.0149019
701.106	0.0149231
701.184	0.0151102
701.262	0.0151381
701.340	0.0151495
701.418	0.0152124
701.496	0.0151918
701.575	0.0151508
701.653	0.0150458
701.731	0.0149629
701.809	0.0148509
701.887	0.0145261
701.965	0.0143294
702.043	0.0142601
702.121	0.0140709
702.200	0.0138435
702.278	0.0140521
702.356	0.0141768
702.434	0.0142330
702.512	0.0145158
702.590	0.0147198
702.668	0.0150101
702.746	0.0152380
702.825	0.0152194
702.903	0.0151657
702.981	0.0154147
703.059	0.0155145
703.137	0.0151503
703.215	0.0148919
703.293	0.0148347
703.371	0.0146291
703.450	0.0143000
703.528	0.0141199
703.606	0.0138935
703.684	0.0138919
703.762	0.0138284
703.840	0.0140375
703.918	0.0143098
703.996	0.0145292
704.075	0.0146931
704.153	0.0149326
704.231	0.0151306
704.309	0.0150803
704.387	0.0153245
704.465	0.0153663
704.543	0.0152939
704.621	0.0154608
704.700	0.0155506
704.778	0.0152119
704.856	0.0150159
704.934	0.0147298
705.012	0.0142872
705.090	0.0139333
705.168	0.0137354
705.246	0.0134718
705.325	0.0132872
705.403	0.0134563
705.481	0.0136997
705.559	0.0139925
705.637	0.0143539
705.715	0.0148174
705.793	0.0152325
705.871	0.0154804
705.950	0.0156460
706.028	0.0156373
706.106	0.0154913
706.184	0.0153774
706.262	0.0153520
706.340	0.0151230
706.418	0.0147427
706.496	0.0145408
706.575	0.0142860
706.653	0.0140971
706.731	0.0142577
706.809	0.0142235
706.887	0.0142855
706.965	0.0143819
707.043	0.0144260
707.121	0.0147408
707.200	0.0150901
707.278	0.0151517
707.356	0.0152884
707.434	0.0154901
707.512	0.0154585
707.590	0.0155582
707.668	0.0155396
707.746	0.0152967
707.825	0.0151376
707.903	0.0151175
707.981	0.0149465
708.059	0.0146037
708.137	0.0142527
708.215	0.0141671
708.293	0.0140038
708.371	0.0139246
708.450	0.0139503
708.528	0.0140437
708.606	0.0139833
708.684	0.0141253
708.762	0.0143099
708.840	0.0145580
708.918	0.0145971
708.996	0.0148874
709.075	0.0149526
709.153	0.0151496
709.231	0.0150873
709.309	0.0152204
709.387	0.0151575
709.465	0.0150050
709.543	0.0150371
709.621	0.0148275
709.700	0.0147823
709.778	0.0146585
709.856	0.0145188
709.934	0.0144270
710.012	0.0145340
710.090	0.0146117
710.168	0.0147234
710.246	0.0148424
710.325	0.0147491
710.403	0.0147907
710.481	0.0148047
710.559	0.0148603
710.637	0.0148070
710.715	0.0148579
710.793	0.0149245
710.871	0.0149448
710.950	0.0149130
711.028	0.0148917
711.106	0.0150054
711.184	0.0148578
711.262	0.0149519
711.340	0.0147552
711.418	0.0147716
711.496	0.0145745
711.575	0.0146290
711.653	0.0145414
711.731	0.0144212
711.809	0.0143845
711.887	0.0143680
711.965	0.0142386
712.043	0.0143609
712.121	0.0144273
712.200	0.0144268
712.278	0.0146152
712.356	0.0145670
712.434	0.0145963
712.512	0.0145187
712.590	0.0145844
712.668	0.0145267
712.746	0.0147071
712.825	0.0147438
712.903	0.0146015
712.981	0.0146888
713.059	0.0145934
713.137	0.0146520
713.215	0.0146686
713.293	0.0144802
713.371	0.0142882
713.450	0.0143666
713.528	0.0142314
713.606	0.0143571
713.684	0.0144106
713.762	0.0144703
713.840	0.0148318
713.918	0.0150570
713.996	0.0152082
714.075	0.0153402
714.153	0.0155546
714.231	0.0157021
714.309	0.0158553
714.387	0.0158322
714.465	0.0156029
714.543	0.0156210
714.621	0.0153993
714.700	0.0151727
714.778	0.0150250
714.856	0.0146564
714.934	0.0143982
715.012	0.0141056
715.090	0.0138982
715.168	0.0137406
715.246	0.0137543
715.325	0.0137550
715.403	0.0138686
715.481	0.0139530
715.559	0.0142276
715.637	0.0142406
715.715	0.0145013
715.793	0.0146913
715.871	0.0146624
715.950	0.0146896
716.028	0.0149054
716.106	0.0150749
716.184	0.0150537
716.262	0.0149117
716.340	0.0150539
716.418	0.0149574
716.496	0.0149029
716.575	0.0148040
716.653	0.0148229
716.731	0.0145999
716.809	0.0146007
716.887	0.0144911
716.965	0.0144923
717.043	0.0144118
717.121	0.0144835
717.200	0.0143506
717.278	0.0143266
717.356	0.0143469
717.434	0.0145346
717.512	0.0145753
717.590	0.0147084
717.668	0.0148383
717.746	0.0149995
717.825	0.0151020
717.903	0.0152348
717.981	0.0152415
718.059	0.0153454
718.137	0.0153667
718.215	0.0154432
718.293	0.0152961
718.371	0.0152074
718.450	0.0151170
718.528	0.0148804
718.606	0.0146145
718.684	0.0144662
718.762	0.0144847
718.840	0.0144823
718.918	0.0142562
718.996	0.0142228
719.075	0.0142300
719.153	0.0142341
719.231	0.0143636
719.309	0.0142897
719.387	0.0144531
719.465	0.0143958
719.543	0.0144917
719.621	0.0148434
719.700	0.0148364
719.778	0.0149540
719.856	0.0148907
719.934	0.0148543
720.012	0.0147108
720.090	0.0147584
720.168	0.0146494
720.246	0.0144802
720.325	0.0145142
720.403	0.0144090
720.481	0.0144088
720.559	0.0144792
720.637	0.0146461
720.715	0.0146247
720.793	0.0145428
720.871	0.0146367
720.950	0.0146811
721.028	0.0147653
721.106	0.0148650
721.184	0.0148205
721.262	0.0147600
721.340	0.0148521
721.418	0.0150774
721.496	0.0152421
721.575	0.0151456
721.653	0.0150906
721.731	0.0153352
721.809	0.0153355
721.887	0.0152776
721.965	0.0150555
722.043	0.0151010
722.121	0.0150100
722.200	0.0148363
722.278	0.0147720
722.356	0.0145598
722.434	0.0145129
722.512	0.0143925
722.590	0.0143938
722.668	0.0145029
722.746	0.0145358
722.825	0.0144321
722.903	0.0143726
722.981	0.0145512
723.059	0.0143771
723.137	0.0143474
723.215	0.0144919
723.293	0.0144199
723.371	0.0147302
723.450	0.0146439
723.528	0.0146369
723.606	0.0146999
723.684	0.0146014
723.762	0.0146273
723.840	0.0147063
723.918	0.0146500
723.996	0.0146619
724.075	0.0148269
724.153	0.0147471
724.231	0.0150575
724.309	0.0149883
724.387	0.0149831
724.465	0.0152326
724.543	0.0152208
724.621	0.0151154
724.700	0.0150323
724.778	0.0150124
724.856	0.0149765
724.934	0.0149931
725.012	0.0148211
725.090	0.0145860
725.168	0.0146424
725.246	0.0146652
725.325	0.0145914
725.403	0.0145609
725.481	0.0144701
725.559	0.0144683
725.637	0.0145428
725.715	0.0146429
725.793	0.0146011
725.871	0.0147395
725.950	0.0147102
726.028	0.0148000
726.106	0.0149596
726.184	0.0150140
726.262	0.0149088
726.340	0.0148622
726.418	0.0149848
726.496	0.0148461
726.575	0.0147158
726.653	0.0146070
726.731	0.0145453
726.809	0.0145840
726.887	0.0145333
726.965	0.0143874
727.043	0.0144392
727.121	0.0142574
727.200	0.0141508
727.278	0.0141962
727.356	0.0142821
727.434	0.0144154
727.512	0.0145805
727.590	0.0146879
727.668	0.0146751
727.746	0.0149062
727.825	0.0148862
727.903	0.0149512
727.981	0.0150237
728.059	0.0149625
728.137	0.0149001
728.215	0.0151135
728.293	0.0150241
728.371	0.0149026
728.450	0.0149527
728.528	0.0149498
728.606	0.0149401
728.684	0.0151006
728.762	0.0149779
728.840	0.0150017
728.918	0.0149787
728.996	0.0149293
729.075	0.0149807
729.153	0.0148067
729.231	0.0147387
729.309	0.0147248
729.387	0.0146769
729.465	0.0145173
729.543	0.0144355
729.621	0.0142865
729.700	0.0141843
729.778	0.0142544
729.856	0.0143111
729.934	0.0143053
730.012	0.0143655
730.090	0.0144984
730.168	0.0146504
730.246	0.0146722
730.325	0.0148914
730.403	0.0149753
730.481	0.0149648
730.559	0.0149837
730.637	0.0149236
730.715	0.0149342
730.793	0.0150352
730.871	0.0150645
730.950	0.0150999
731.028	0.0149857
731.106	0.0148200
731.184	0.0150211
731.262	0.0148489
731.340	0.0148820
731.418	0.0148337
731.496	0.0146921
731.575	0.0148131
731.653	0.0147195
731.731	0.0146518
731.809	0.0146806
731.887	0.0147649
731.965	0.0146946
732.043	0.0148048
732.121	0.0147209
732.200	0.0146976
732.278	0.0147424
732.356	0.0146843
732.434	0.0144941
732.512	0.0145094
732.590	0.0145343
732.668	0.0144980
732.746	0.0144598
732.825	0.0145027
732.903	0.0145737
732.981	0.0145100
733.059	0.0146546
733.137	0.0146618
733.215	0.0147109
733.293	0.0147545
733.371	0.0147006
733.450	0.0149342
733.528	0.0148986
733.606	0.0147166
733.684	0.0147801
733.762	0.0147571
733.840	0.0147021
733.918	0.0147018
733.996	0.0144990
734.075	0.0145612
734.153	0.0144066
734.231	0.0143130
734.309	0.0144601
734.387	0.0145379
734.465	0.0144994
734.543	0.0145425
734.621	0.0146933
734.700	0.0149684
734.778	0.0148216
734.856	0.0149331
734.934	0.0150796
735.012	0.0151524
735.090	0.0153193
735.168	0.0151322
735.246	0.0153118
735.325	0.0153329
735.403	0.0152628
735.481	0.0151537
735.559	0.0150144
735.637	0.0149011
735.715	0.0148775
735.793	0.0147755
735.871	0.0147276
735.950	0.0145356
736.028	0.0143150
736.106	0.0143181
736.184	0.0143027
736.262	0.0142870
736.340	0.0144009
736.418	0.0144693
736.496	0.0144736
736.575	0.0144759
736.653	0.0145580
736.731	0.0144666
736.809	0.0145326
736.887	0.0146156
736.965	0.0145140
737.043	0.0145888
737.121	0.0146011
737.200	0.0146148
737.278	0.0144643
737.356	0.0144556
737.434	0.0144392
737.512	0.0145004
737.590	0.0145219
737.668	0.0144785
737.746	0.0145897
737.825	0.0146023
737.903	0.0148573
737.981	0.0146694
738.059	0.0148356
738.137	0.0148920
738.215	0.0151419
738.293	0.0149726
738.371	0.0149556
738.450	0.0152110
738.528	0.0149696
738.606	0.0149765
738.684	0.0151447
738.762	0.0150597
738.840	0.0148429
738.918	0.0148707
738.996	0.0147585
739.075	0.0147424
739.153	0.0148328
739.231	0.0145997
739.309	0.0145296
739.387	0.0145747
739.465	0.0146107
739.543	0.0145456
739.621	0.0145058
739.700	0.0146706
739.778	0.0146690
739.856	0.0145816
739.934	0.0146190
740.012	0.0147585
740.090	0.0147834
740.168	0.0145876
740.246	0.0146359
740.325	0.0144685
740.403	0.0146636
740.481	0.0145526
740.559	0.0145244
740.637	0.0146619
740.715	0.0145023
740.793	0.0145942
740.871	0.0145553
740.950	0.0145149
741.028	0.0144301
741.106	0.0145061
741.184	0.0145022
741.262	0.0145989
741.340	0.0144849
741.418	0.0145585
741.496	0.0144691
741.575	0.0145623
741.653	0.0145666
741.731	0.0144645
741.809	0.0144384
741.887	0.0145517
741.965	0.0146086
742.043	0.0147057
742.121	0.0147137
742.200	0.0147311
742.278	0.0146993
742.356	0.0149471
742.434	0.0150343
742.512	0.0150384
742.590	0.0150083
742.668	0.0152206
742.746	0.0152020
742.825	0.0151140
742.903	0.0151866
742.981	0.0153065
743.059	0.0151401
743.137	0.0150907
743.215	0.0149999
743.293	0.0149879
743.371	0.0149529
743.450	0.0148759
743.528	0.0146091
743.606	0.0145055
743.684	0.0143959
743.762	0.0145323
743.840	0.0144897
743.918	0.0144828
743.996	0.0145039
744.075	0.0146605
744.153	0.0146893
744.231	0.0146276
744.309	0.0144553
744.387	0.0145815
744.465	0.0146349
744.543	0.0146457
744.621	0.0147412
744.700	0.0146004
744.778	0.0145730
744.856	0.0146407
744.934	0.0145122
745.012	0.0146299
745.090	0.0146918
745.168	0.0146637
745.246	0.0147404
745.325	0.0146033
745.403	0.0145347
745.481	0.0147149
745.559	0.0145834
745.637	0.0145830
745.715	0.0148026
745.793	0.0148349
745.871	0.0147797
745.950	0.0148499
746.028	0.0148244
746.106	0.0147692
746.184	0.0147614
746.262	0.0148585
746.340	0.0147476
746.418	0.0146923
746.496	0.0147515
746.575	0.0147653
746.653	0.0147112
746.731	0.0146623
746.809	0.0147135
746.887	0.0147164
746.965	0.0146897
747.043	0.0145867
747.121	0.0146391
747.200	0.0148372
747.278	0.0146784
747.356	0.0147401
747.434	0.0146872
747.512	0.0148744
747.590	0.0148065
747.668	0.0147570
747.746	0.0146773
747.825	0.0148929
747.903	0.0148539
747.981	0.0148624
748.059	0.0147455
748.137	0.0148499
748.215	0.0146337
748.293	0.0147651
748.371	0.0146329
748.450	0.0147494
748.528	0.0146924
748.606	0.0147590
748.684	0.0148186
748.762	0.0148164
748.840	0.0146267
748.918	0.0147537
748.996	0.0148231
749.075	0.0147496
749.153	0.0147124
749.231	0.0146912
749.309	0.0145760
749.387	0.0146706
749.465	0.0146851
749.543	0.0146198
749.621	0.0145816
749.700	0.0146579
749.778	0.0145084
749.856	0.0145239
749.934	0.0146707
750.012	0.0145776
750.090	0.0146690
750.168	0.0148773
750.246	0.0149966
750.325	0.0147943
750.403	0.0149181
750.481	0.0148603
750.559	0.0148682
750.637	0.0149256
750.715	0.0150046
750.793	0.0148714
750.871	0.0149397
750.950	0.0148102
751.028	0.0147781
751.106	0.0147710
751.184	0.0146152
751.262	0.0146431
751.340	0.0147134
751.418	0.0147012
751.496	0.0146376
751.575	0.0146107
751.653	0.0146520
751.731	0.0145369
751.809	0.0145928
751.887	0.0146898
751.965	0.0147144
752.043	0.0148530
752.121	0.0148075
752.200	0.0147467
752.278	0.0150407
752.356	0.0148306
752.434	0.0147194
752.512	0.0148129
752.590	0.0148927
752.668	0.0148657
752.746	0.0148479
752.825	0.0147773
752.903	0.0147484
752.981	0.0146999
753.059	0.0148405
753.137	0.0147318
753.215	0.0148678
753.293	0.0145338
753.371	0.0145921
753.450	0.0147998
753.528	0.0147434
753.606	0.0145021
753.684	0.0145779
753.762	0.0147018
753.840	0.0146036
753.918	0.0145070
753.996	0.0145014
754.075	0.0146194
754.153	0.0145026
754.231	0.0145820
754.309	0.0144946
754.387	0.0146928
754.465	0.0146933
754.543	0.0146105
754.621	0.0145306
754.700	0.0147713
754.778	0.0147911
754.856	0.0148338
754.934	0.0148295
755.012	0.0148003
755.090	0.0148569
755.168	0.0147678
755.246	0.0147998
755.325	0.0149865
755.403	0.0147974
755.481	0.0146241
755.559	0.0147424
755.637	0.0147663
755.715	0.0146014
755.793	0.0146325
755.871	0.0148207
755.950	0.0147231
756.028	0.0146262
756.106	0.0145354
756.184	0.0145835
756.262	0.0146368
756.340	0.0145889
756.418	0.0148577
756.496	0.0147583
756.575	0.0146552
756.653	0.0147326
756.731	0.0148173
756.809	0.0146584
756.887	0.0147135
756.965	0.0146513
757.043	0.0146317
757.121	0.0147222
757.200	0.0146752
757.278	0.0146908
757.356	0.0147211
757.434	0.0145633
757.512	0.0144920
757.590	0.0144588
757.668	0.0146046
757.746	0.0146506
757.825	0.0144196
757.903	0.0145601
757.981	0.0146819
758.059	0.0146386
758.137	0.0145863
758.215	0.0146931
758.293	0.0147274
758.371	0.0147752
758.450	0.0148452
758.528	0.0147712
758.606	0.0147863
758.684	0.0146446
758.762	0.0146887
758.840	0.0147055
758.918	0.0146236
758.996	0.0148235
759.075	0.0145608
759.153	0.0145205
759.231	0.0146408
759.309	0.0148171
759.387	0.0146961
759.465	0.0146456
759.543	0.0146968
759.621	0.0145158
759.700	0.0145765
759.778	0.0146775
759.856	0.0146394
759.934	0.0148042
760.012	0.0148085
760.090	0.0145534
760.168	0.0148107
760.246	0.0148769
760.325	0.0147591
760.403	0.0148333
760.481	0.0148174
760.559	0.0148310
760.637	0.0148177
760.715	0.0147076
760.793	0.0146862
760.871	0.0146534
760.950	0.0147623
761.028	0.0147953
761.106	0.0146440
761.184	0.0146370
761.262	0.0146896
761.340	0.0146015
761.418	0.0145057
761.496	0.0146255
761.575	0.0146160
761.653	0.0145019
761.731	0.0145467
761.809	0.0146645
761.887	0.0145934
761.965	0.0144884
762.043	0.0146057
762.121	0.0144629
762.200	0.0144673
762.278	0.0146007
762.356	0.0146823
762.434	0.0148209
762.512	0.0147763
762.590	0.0147272
762.668	0.0147813
762.746	0.0148013
762.825	0.0148099
762.903	0.0146394
762.981	0.0148933
763.059	0.0148913
763.137	0.0148064
763.215	0.0147846
763.293	0.0147830
763.371	0.0148685
763.450	0.0148534
763.528	0.0147522
763.606	0.0147469
763.684	0.0148956
763.762	0.0147529
763.840	0.0148191
763.918	0.0148046
763.996	0.0147333
764.075	0.0147214
764.153	0.0148898
764.231	0.0147647
764.309	0.0146571
764.387	0.0147932
764.465	0.0148162
764.543	0.0145628
764.621	0.0145129
764.700	0.0146627
764.778	0.0147283
764.856	0.0147213
764.934	0.0145930
765.012	0.0145486
765.090	0.0146102
765.168	0.0146808
765.246	0.0146973
765.325	0.0146717
765.403	0.0146444
765.481	0.0145831
765.559	0.0145850
765.637	0.0147547
765.715	0.0144887
765.793	0.0146313
765.871	0.0147271
765.950	0.0146535
766.028	0.0146760
766.106	0.0146870
766.184	0.0147980
766.262	0.0147109
766.340	0.0147292
766.418	0.0147850
766.496	0.0148538
766.575	0.0149377
766.653	0.0147417
766.731	0.0147214
766.809	0.0149188
766.887	0.0147499
766.965	0.0146662
767.043	0.0147401
767.121	0.0147259
767.200	0.0147540
767.278	0.0146651
767.356	0.0147255
767.434	0.0147618
767.512	0.0147243
767.590	0.0146580
767.668	0.0148206
767.746	0.0145683
767.825	0.0147719
767.903	0.0148111
767.981	0.0146596
768.059	0.0147073
768.137	0.0146951
768.215	0.0146359
768.293	0.0146587
768.371	0.0146503
768.450	0.0145662
768.528	0.0146613
768.606	0.0146017
768.684	0.0146228
768.762	0.0145705
768.840	0.0146667
768.918	0.0146090
768.996	0.0146961
769.075	0.0146153
769.153	0.0144856
769.231	0.0146261
769.309	0.0146996
769.387	0.0145973
769.465	0.0145847
769.543	0.0146897
769.621	0.0145735
769.700	0.0146616
769.778	0.0145216
769.856	0.0145516
769.934	0.0146552
770.012	0.0147523
770.090	0.0146959
770.168	0.0147079
770.246	0.0146751
770.325	0.0147645
770.403	0.0147231
770.481	0.0148060
770.559	0.0148869
770.637	0.0149348
770.715	0.0147604
770.793	0.0146771
770.871	0.0148748
770.950	0.0148378
771.028	0.0148270
771.106	0.0149731
771.184	0.0148165
771.262	0.0146889
771.340	0.0148436
771.418	0.0147142
771.496	0.0146220
771.575	0.0146925
771.653	0.0146486
771.731	0.0145575
771.809	0.0146149
771.887	0.0146201
771.965	0.0146429
772.043	0.0145438
772.121	0.0146343
772.200	0.0146416
772.278	0.0147613
772.356	0.0146058
772.434	0.0147402
772.512	0.0146837
772.590	0.0146605
772.668	0.0145676
772.746	0.0145800
772.825	0.0146770
772.903	0.0146918
772.981	0.0146809
773.059	0.0146343
773.137	0.0146493
773.215	0.0146019
773.293	0.0146057
773.371	0.0145861
773.450	0.0145616
773.528	0.0146640
773.606	0.0146213
773.684	0.0146671
773.762	0.0146928
773.840	0.0147099
773.918	0.0146993
773.996	0.0147665
774.075	0.0147916
774.153	0.0147770
774.231	0.0147630
774.309	0.0147575
774.387	0.0148721
774.465	0.0148386
774.543	0.0147054
774.621	0.0147369
774.700	0.0147459
774.778	0.0147945
774.856	0.0147661
774.934	0.0148074
775.012	0.0147088
775.090	0.0146718
775.168	0.0144770
775.246	0.0148453
775.325	0.0147359
775.403	0.0146171
775.481	0.0147574
775.559	0.0146674
775.637	0.0147486
775.715	0.0146435
775.793	0.0146738
775.871	0.0147726
775.950	0.0146465
776.028	0.0146910
776.106	0.0147522
776.184	0.0148003
776.262	0.0146767
776.340	0.0146427
776.418	0.0147005
776.496	0.0145634
776.575	0.0145601
776.653	0.0146780
776.731	0.0144355
776.809	0.0145406
776.887	0.0145118
776.965	0.0143900
777.043	0.0144301
777.121	0.0145110
777.200	0.0144254
777.278	0.0144711
777.356	0.0145556
777.434	0.0145326
777.512	0.0145158
777.590	0.0145961
777.668	0.0145358
777.746	0.0145953
777.825	0.0145576
777.903	0.0147034
777.981	0.0147881
778.059	0.0148729
778.137	0.0147449
778.215	0.0147910
778.293	0.0148003
778.371	0.0148761
778.450	0.0148470
778.528	0.0147289
778.606	0.0147031
778.684	0.0148428
778.762	0.0147546
778.840	0.0146796
778.918	0.0147591
778.996	0.0148043
779.075	0.0147768
779.153	0.0147402
779.231	0.0147890
779.309	0.0147939
779.387	0.0147841
779.465	0.0146224
779.543	0.0146536
779.621	0.0147025
779.700	0.0145375
779.778	0.0147137
779.856	0.0146316
779.934	0.0147066
780.012	0.0146266
780.090	0.0146943
780.168	0.0146312
780.246	0.0146980
780.325	0.0146653
780.403	0.0148721
780.481	0.0145432
780.559	0.0145729
780.637	0.0147030
780.715	0.0146919
780.793	0.0146030
780.871	0.0146843
780.950	0.0145135
781.028	0.0147099
781.106	0.0146953
781.184	0.0145602
781.262	0.0146354
781.340	0.0147650
781.418	0.0145887
781.496	0.0145673
781.575	0.0147180
781.653	0.0145525
781.731	0.0146769
781.809	0.0146252
781.887	0.0147282
781.965	0.0146883
782.043	0.0147156
782.121	0.0146390
782.200	0.0147739
782.278	0.0146835
782.356	0.0146999
782.434	0.0148556
782.512	0.0146440
782.590	0.0147000
782.668	0.0147113
782.746	0.0147983
782.825	0.0147134
782.903	0.0147236
782.981	0.0148309
783.059	0.0147236
783.137	0.0147580
783.215	0.0147971
783.293	0.0146775
783.371	0.0147620
783.450	0.0148483
783.528	0.0148149
783.606	0.0146423
783.684	0.0147755
783.762	0.0147231
783.840	0.0147077
783.918	0.0146324
783.996	0.0145748
784.075	0.0147204
784.153	0.0146567
784.231	0.0146185
784.309	0.0145294
784.387	0.0145267
784.465	0.0145370
784.543	0.0145053
784.621	0.0145396
784.700	0.0145219
784.778	0.0146323
784.856	0.0146053
784.934	0.0143812
785.012	0.0146757
785.090	0.0146220
785.168	0.0146522
785.246	0.0147168
785.325	0.0146521
785.403	0.0146666
785.481	0.0145962
785.559	0.0145424
785.637	0.0146372
785.715	0.0146074
785.793	0.0146713
785.871	0.0146674
785.950	0.0148470
786.028	0.0148352
786.106	0.0146724
786.184	0.0147900
786.262	0.0148060
786.340	0.0148354
786.418	0.0147841
786.496	0.0149585
786.575	0.0149143
786.653	0.0147504
786.731	0.0148569
786.809	0.0148933
786.887	0.0148019
786.965	0.0148939
787.043	0.0148203
787.121	0.0148547
787.200	0.0147941
787.278	0.0147721
787.356	0.0148478
787.434	0.0147408
787.512	0.0147377
787.590	0.0147776
787.668	0.0146723
787.746	0.0147449
787.825	0.0146894
787.903	0.0146886
787.981	0.0146090
788.059	0.0147350
788.137	0.0146458
788.215	0.0147408
788.293	0.0147265
788.371	0.0145153
788.450	0.0145896
788.528	0.0146323
788.606	0.0146810
788.684	0.0146248
788.762	0.0146974
788.840	0.0147111
788.918	0.0147128
788.996	0.0146664
789.075	0.0146635
789.153	0.0146837
789.231	0.0145973
789.309	0.0145654
789.387	0.0145996
789.465	0.0146546
789.543	0.0146384
789.621	0.0144492
789.700	0.0146408
789.778	0.0147768
789.856	0.0147049
789.934	0.0146603
790.012	0.0145946
790.090	0.0146320
790.168	0.0146024
790.246	0.0146072
790.325	0.0146854
790.403	0.0146713
790.481	0.0146529
790.559	0.0147418
790.637	0.0147815
790.715	0.0145298
790.793	0.0147218
790.871	0.0148623
790.950	0.0147986
791.028	0.0147466
791.106	0.0147113
791.184	0.0147598
791.262	0.0147527
791.340	0.0147809
791.418	0.0147368
791.496	0.0147982
791.575	0.0146613
791.653	0.0146716
791.731	0.0149033
791.809	0.0147511
791.887	0.0145931
791.965	0.0146620
792.043	0.0145744
792.121	0.0145493
792.200	0.0146470
792.278	0.0147899
792.356	0.0146268
792.434	0.0147444
792.512	0.0147930
792.590	0.0146342
792.668	0.0146050
792.746	0.0147723
792.825	0.0146628
792.903	0.0146690
792.981	0.0145321
793.059	0.0145995
793.137	0.0146963
793.215	0.0146434
793.293	0.0145715
793.371	0.0146743
793.450	0.0145186
793.528	0.0145321
793.606	0.0145937
793.684	0.0146577
793.762	0.0144843
793.840	0.0146349
793.918	0.0146468
793.996	0.0145696
794.075	0.0145405
794.153	0.0145287
794.231	0.0145968
794.309	0.0146669
794.387	0.0147649
794.465	0.0148795
794.543	0.0147250
794.621	0.0146513
794.700	0.0146003
794.778	0.0148198
794.856	0.0146772
794.934	0.0147545
795.012	0.0147430
795.090	0.0146420
795.168	0.0148186
795.246	0.0146767
795.325	0.0146722
795.403	0.0148101
795.481	0.0146473
795.559	0.0147107
795.637	0.0147533
795.715	0.0147558
795.793	0.0147551
795.871	0.0147187
795.950	0.0147042
796.028	0.0147905
796.106	0.0146317
796.184	0.0147422
796.262	0.0147546
796.340	0.0146136
796.418	0.0147357
796.496	0.0147409
796.575	0.0147083
796.653	0.0146395
796.731	0.0147004
796.809	0.0147720
796.887	0.0145963
796.965	0.0145741
797.043	0.0147143
797.121	0.0147195
797.200	0.0148505
797.278	0.0147278
797.356	0.0147392
797.434	0.0148641
797.512	0.0147712
797.590	0.0148054
797.668	0.0147322
797.746	0.0146308
797.825	0.0147518
797.903	0.0147030
797.981	0.0147044
798.059	0.0146194
798.137	0.0147627
798.215	0.0147395
798.293	0.0146632
798.371	0.0145337
798.450	0.0148170
798.528	0.0146200
798.606	0.0146976
798.684	0.0146907
798.762	0.0147367
798.840	0.0146312
798.918	0.0147195
798.996	0.0147175
799.075	0.0145911
799.153	0.0147529
799.231	0.0148361
799.309	0.0145554
799.387	0.0145322
799.465	0.0146775
799.543	0.0147292
799.621	0.0146181
799.700	0.0146239
799.778	0.0146993
799.856	0.0146877
799.934	0.0146854
800.012	0.0145850
800.090	0.0146951
800.168	0.0147580
800.246	0.0145867
800.325	0.0146541
800.403	0.0146595
800.481	0.0148273
800.559	0.0148141
800.637	0.0148359
800.715	0.0146912
800.793	0.0146738
800.871	0.0146602
800.950	0.0147433
801.028	0.0147381
801.106	0.0146545
801.184	0.0146967
801.262	0.0147404
801.340	0.0146851
801.418	0.0147768
801.496	0.0147694
801.575	0.0146730
801.653	0.0147085
801.731	0.0148305
801.809	0.0146320
801.887	0.0146754
801.965	0.0147410
802.043	0.0147558
802.121	0.0148109
802.200	0.0148041
802.278	0.0148441
802.356	0.0148028
802.434	0.0148177
802.512	0.0148155
802.590	0.0147589
802.668	0.0147330
802.746	0.0149191
802.825	0.0146809
802.903	0.0149762
802.981	0.0148235
803.059	0.0148436
803.137	0.0148208
803.215	0.0146929
803.293	0.0147552
803.371	0.0148638
803.450	0.0147613
803.528	0.0146877
803.606	0.0147994
803.684	0.0148428
803.762	0.0147661
803.840	0.0145842
803.918	0.0147937
803.996	0.0148349
804.075	0.0145566
804.153	0.0146480
804.231	0.0145896
804.309	0.0146453
804.387	0.0146789
804.465	0.0146598
804.543	0.0145676
804.621	0.0146216
804.700	0.0146226
804.778	0.0147472
804.856	0.0146420
804.934	0.0147198
805.012	0.0145887
805.090	0.0146397
805.168	0.0146873
805.246	0.0147185
805.325	0.0145753
805.403	0.0146915
805.481	0.0147282
805.559	0.0145796
805.637	0.0146777
805.715	0.0147555
805.793	0.0146407
805.871	0.0147211
805.950	0.0147525
806.028	0.0147159
806.106	0.0147784
806.184	0.0146644
806.262	0.0147947
806.340	0.0148154
806.418	0.0147687
806.496	0.0146786
806.575	0.0147966
806.653	0.0148357
806.731	0.0147785
806.809	0.0148396
806.887	0.0147749
806.965	0.0147649
807.043	0.0147012
807.121	0.0147889
807.200	0.0147218
807.278	0.0146721
807.356	0.0147011
807.434	0.0146315
807.512	0.0147813
807.590	0.0147072
807.668	0.0146290
807.746	0.0146903
807.825	0.0146304
807.903	0.0146797
807.981	0.0146517
808.059	0.0145978
808.137	0.0145162
808.215	0.0145393
808.293	0.0145743
808.371	0.0147311
808.450	0.0147550
808.528	0.0147780
808.606	0.0145907
808.684	0.0149039
808.762	0.0147604
808.840	0.0148724
808.918	0.0147354
808.996	0.0147543
809.075	0.0146260
809.153	0.0146615
809.231	0.0148032
809.309	0.0145876
809.387	0.0146229
809.465	0.0146987
809.543	0.0147141
809.621	0.0147842
809.700	0.0147252
809.778	0.0146352
809.856	0.0145811
809.934	0.0147160
810.012	0.0148062
810.090	0.0148190
810.168	0.0146770
810.246	0.0148495
810.325	0.0147576
810.403	0.0145941
810.481	0.0147794
810.559	0.0147968
810.637	0.0148206
810.715	0.0146935
810.793	0.0147885
810.871	0.0147787
810.950	0.0147532
811.028	0.0148025
811.106	0.0147056
811.184	0.0146677
811.262	0.0147546
811.340	0.0144756
811.418	0.0145433
811.496	0.0145840
811.575	0.0147002
811.653	0.0145785
811.731	0.0145446
811.809	0.0146513
811.887	0.0147600
811.965	0.0146317
812.043	0.0147097
812.121	0.0146041
812.200	0.0145537
812.278	0.0146976
812.356	0.0147473
812.434	0.0146775
812.512	0.0147712
812.590	0.0146461
812.668	0.0147034
812.746	0.0149096
812.825	0.0146848
812.903	0.0145810
812.981	0.0147411
813.059	0.0147683
813.137	0.0146260
813.215	0.0146257
813.293	0.0148495
813.371	0.0147163
813.450	0.0146961
813.528	0.0146304
813.606	0.0146206
813.684	0.0147031
813.762	0.0146861
813.840	0.0146730
813.918	0.0147272
813.996	0.0147249
814.075	0.0147640
814.153	0.0147373
814.231	0.0146789
814.309	0.0146873
814.387	0.0148136
814.465	0.0147679
814.543	0.0147070
814.621	0.0148716
814.700	0.0147411
814.778	0.0147585
814.856	0.0147531
814.934	0.0147927
815.012	0.0147092
815.090	0.0146755
815.168	0.0147115
815.246	0.0146986
815.325	0.0148060
815.403	0.0145901
815.481	0.0146146
815.559	0.0147118
815.637	0.0146795
815.715	0.0146534
815.793	0.0146624
815.871	0.0146657
815.950	0.0147144
816.028	0.0144509
816.106	0.0145422
816.184	0.0145468
816.262	0.0145982
816.340	0.0145828
816.418	0.0147593
816.496	0.0147711
816.575	0.0147548
816.653	0.0146270
816.731	0.0145790
816.809	0.0146670
816.887	0.0147663
816.965	0.0148187
817.043	0.0147022
817.121	0.0146986
817.200	0.0147502
817.278	0.0146754
817.356	0.0147885
817.434	0.0147704
817.512	0.0147993
817.590	0.0147809
817.668	0.0147880
817.746	0.0148926
817.825	0.0148737
817.903	0.0149309
817.981	0.0147469
818.059	0.0146965
818.137	0.0147654
818.215	0.0148612
818.293	0.0147850
818.371	0.0148642
818.450	0.0147582
818.528	0.0149212
818.606	0.0147743
818.684	0.0146397
818.762	0.0146603
818.840	0.0147276
818.918	0.0146931
818.996	0.0146871
819.075	0.0148240
819.153	0.0148890
819.231	0.0147684
819.309	0.0145658
819.387	0.0147679
819.465	0.0146180
819.543	0.0147336
819.621	0.0146880
819.700	0.0146909
819.778	0.0147923
819.856	0.0147774
819.934	0.0145229
820.012	0.0147269
820.090	0.0146966
820.168	0.0147459
820.246	0.0147462
820.325	0.0146581
820.403	0.0147767
820.481	0.0147690
820.559	0.0146098
820.637	0.0146851
820.715	0.0146109
820.793	0.0147067
820.871	0.0146490
820.950	0.0147868
821.028	0.0147186
821.106	0.0147064
821.184	0.0146372
821.262	0.0147377
821.340	0.0148132
821.418	0.0147081
821.496	0.0147797
821.575	0.0147709
821.653	0.0148843
821.731	0.0147965
821.809	0.0148590
821.887	0.0148755
821.965	0.0147585
822.043	0.0147778
822.121	0.0148005
822.200	0.0147221
822.278	0.0148550
822.356	0.0147784
822.434	0.0146435
822.512	0.0146718
822.590	0.0147629
822.668	0.0147404
822.746	0.0148325
822.825	0.0147308
822.903	0.0146401
822.981	0.0145620
823.059	0.0146595
823.137	0.0147216
823.215	0.0147572
823.293	0.0146003
823.371	0.0146754
823.450	0.0147490
823.528	0.0146623
823.606	0.0146652
823.684	0.0147236
823.762	0.0147009
823.840	0.0147054
823.918	0.0147282
823.996	0.0146307
824.075	0.0146410
824.153	0.0147392
824.231	0.0146524
824.309	0.0146453
824.387	0.0148537
824.465	0.0148051
824.543	0.0148491
824.621	0.0146140
824.700	0.0147395
824.778	0.0147753
824.856	0.0146844
824.934	0.0146280
825.012	0.0149052
825.090	0.0147899
825.168	0.0147044
825.246	0.0147480
825.325	0.0147138
825.403	0.0146827
825.481	0.0147636
825.559	0.0147720
825.637	0.0145615
825.715	0.0145728
825.793	0.0145866
825.871	0.0146507
825.950	0.0146341
826.028	0.0146593
826.106	0.0145928
826.184	0.0147150
826.262	0.0147977
826.340	0.0145868
826.418	0.0147152
826.496	0.0148260
826.575	0.0147034
826.653	0.0147590
826.731	0.0146931
826.809	0.0148410
826.887	0.0147530
826.965	0.0146815
827.043	0.0146069
827.121	0.0147579
827.200	0.0147308
827.278	0.0146930
827.356	0.0146384
827.434	0.0147727
827.512	0.0147937
827.590	0.0147820
827.668	0.0146165
827.746	0.0148208
827.825	0.0145996
827.903	0.0146868
827.981	0.0149574
828.059	0.0148344
828.137	0.0147707
828.215	0.0147134
828.293	0.0148513
828.371	0.0147299
828.450	0.0147276
828.528	0.0147545
828.606	0.0147646
828.684	0.0146507
828.762	0.0147276
828.840	0.0147686
828.918	0.0146014
828.996	0.0145747
829.075	0.0145510
829.153	0.0146532
829.231	0.0146574
829.309	0.0146124
829.387	0.0146634
829.465	0.0147312
829.543	0.0145567
829.621	0.0145766
829.700	0.0147104
829.778	0.0147634
829.856	0.0147153
829.934	0.0147720
830.012	0.0148489
830.090	0.0148220
830.168	0.0148897
830.246	0.0147654
830.325	0.0147947
830.403	0.0149025
830.481	0.0148624
830.559	0.0148562
830.637	0.0146268
830.715	0.0148309
830.793	0.0148119
830.871	0.0147594
830.950	0.0146822
831.028	0.0146500
831.106	0.0147024
831.184	0.0148428
831.262	0.0146886
831.340	0.0148337
831.418	0.0147799
831.496	0.0146022
831.575	0.0146826
831.653	0.0146815
831.731	0.0148891
831.809	0.0147470
831.887	0.0148286
831.965	0.0147358
832.043	0.0148130
832.121	0.0147001
832.200	0.0147448
832.278	0.0147762
832.356	0.0146543
832.434	0.0146348
832.512	0.0146872
832.590	0.0145449
832.668	0.0146938
832.746	0.0146258
832.825	0.0146551
832.903	0.0147883
832.981	0.0148447
833.059	0.0146825
833.137	0.0148091
833.215	0.0148560
833.293	0.0146872
833.371	0.0147233
833.450	0.0148904
833.528	0.0146146
833.606	0.0146942
833.684	0.0145622
833.762	0.0145734
833.840	0.0146959
833.918	0.0144600
833.996	0.0146567
834.075	0.0145310
834.153	0.0146704
834.231	0.0145459
834.309	0.0144767
834.387	0.0144952
834.465	0.0146397
834.543	0.0146079
834.621	0.0147113
834.700	0.0147527
834.778	0.0147093
834.856	0.0146543
834.934	0.0146762
835.012	0.0148024
835.090	0.0147920
835.168	0.0147021
835.246	0.0147016
835.325	0.0147502
835.403	0.0146780
835.481	0.0147449
835.559	0.0146901
835.637	0.0145901
835.715	0.0146732
835.793	0.0146819
835.871	0.0147117
835.950	0.0146665
836.028	0.0148489
836.106	0.0148143
836.184	0.0147382
836.262	0.0146581
836.340	0.0148333
836.418	0.0146725
836.496	0.0145541
836.575	0.0146107
836.653	0.0145534
836.731	0.0146776
836.809	0.0147679
836.887	0.0147897
836.965	0.0145694
837.043	0.0146705
837.121	0.0146080
837.200	0.0147595
837.278	0.0147565
837.356	0.0147249
837.434	0.0146342
837.512	0.0146529
837.590	0.0145905
837.668	0.0146562
837.746	0.0146620
837.825	0.0147585
837.903	0.0145468
837.981	0.0145982
838.059	0.0146267
838.137	0.0145052
838.215	0.0145844
838.293	0.0146280
838.371	0.0146077
838.450	0.0146590
838.528	0.0146666
838.606	0.0147060
838.684	0.0146664
838.762	0.0147541
838.840	0.0147421
838.918	0.0148955
838.996	0.0147129
839.075	0.0147633
839.153	0.0147134
839.231	0.0148149
839.309	0.0148872
839.387	0.0148509
839.465	0.0149467
839.543	0.0147004
839.621	0.0146572
839.700	0.0148140
839.778	0.0147288
839.856	0.0147057
839.934	0.0147702
840.012	0.0148206
840.090	0.0147830
840.168	0.0147180
840.246	0.0146247
840.325	0.0146325
840.403	0.0147025
840.481	0.0146463
840.559	0.0147269
840.637	0.0147038
840.715	0.0147650
840.793	0.0147084
840.871	0.0147377
840.950	0.0147675
841.028	0.0147309
841.106	0.0145999
841.184	0.0148173
841.262	0.0149468
841.340	0.0147511
841.418	0.0146516
841.496	0.0146137
841.575	0.0147977
841.653	0.0146973
841.731	0.0148205
841.809	0.0147585
841.887	0.0144742
841.965	0.0147133
842.043	0.0147327
842.121	0.0146927
842.200	0.0147836
842.278	0.0147108
842.356	0.0146207
842.434	0.0146437
842.512	0.0147766
842.590	0.0146638
842.668	0.0145564
842.746	0.0146397
842.825	0.0148103
842.903	0.0146643
842.981	0.0145602
843.059	0.0147914
843.137	0.0149064
843.215	0.0148525
843.293	0.0147547
843.371	0.0148411
843.450	0.0148144
843.528	0.0147970
843.606	0.0148199
843.684	0.0148418
843.762	0.0148013
843.840	0.0149779
843.918	0.0149381
843.996	0.0147958
844.075	0.0147406
844.153	0.0148618
844.231	0.0148491
844.309	0.0148885
844.387	0.0147358
844.465	0.0147652
844.543	0.0147561
844.621	0.0146478
844.700	0.0147503
844.778	0.0147169
844.856	0.0147543
844.934	0.0146294
845.012	0.0148605
845.090	0.0149596
845.168	0.0147362
845.246	0.0146478
845.325	0.0147443
845.403	0.0147271
845.481	0.0147519
845.559	0.0147447
845.637	0.0147102
845.715	0.0147256
845.793	0.0147847
845.871	0.0147372
845.950	0.0147956
846.028	0.0149276
846.106	0.0146969
846.184	0.0147272
846.262	0.0146832
846.340	0.0145560
846.418	0.0146103
846.496	0.0147278
846.575	0.0146420
846.653	0.0145945
846.731	0.0149154
846.809	0.0148255
846.887	0.0147871
846.965	0.0147862
847.043	0.0146294
847.121	0.0147740
847.200	0.0146680
847.278	0.0146387
847.356	0.0147753
847.434	0.0147627
847.512	0.0146449
847.590	0.0148877
847.668	0.0148196
847.746	0.0148350
847.825	0.0149088
847.903	0.0146921
847.981	0.0147760
848.059	0.0148508
848.137	0.0147732
848.215	0.0147177
848.293	0.0146782
848.371	0.0147693
848.450	0.0148492
848.528	0.0146960
848.606	0.0147172
848.684	0.0148422
848.762	0.0147598
848.840	0.0148597
848.918	0.0147862
848.996	0.0148481
849.075	0.0147355
849.153	0.0147738
849.231	0.0148371
849.309	0.0148674
849.387	0.0147564
849.465	0.0147427
849.543	0.0148065
849.621	0.0147001
849.700	0.0148306
849.778	0.0147793
849.856	0.0147861
849.934	0.0146329
850.012	0.0146925
850.090	0.0146442
850.168	0.0147212
850.246	0.0146920
850.325	0.0146432
850.403	0.0146291
850.481	0.0147678
850.559	0.0146763
850.637	0.0147465
850.715	0.0147164
850.793	0.0147973
850.871	0.0145943
850.950	0.0146884
851.028	0.0147990
851.106	0.0147386
851.184	0.0146621
851.262	0.0147196
851.340	0.0146500
851.418	0.0148284
851.496	0.0146944
851.575	0.0147340
851.653	0.0147692
851.731	0.0148476
851.809	0.0147757
851.887	0.0147878
851.965	0.0146178
852.043	0.0147764
852.121	0.0147434
852.200	0.0147632
852.278	0.0147716
852.356	0.0147078
852.434	0.0147604
852.512	0.0148322
852.590	0.0147158
852.668	0.0147019
852.746	0.0147532
852.825	0.0147386
852.903	0.0147048
852.981	0.0148892
853.059	0.0147337
853.137	0.0146715
853.215	0.0147455
853.293	0.0148815
853.371	0.0147997
853.450	0.0147143
853.528	0.0147431
853.606	0.0148100
853.684	0.0146487
853.762	0.0147287
853.840	0.0147200
853.918	0.0146671
853.996	0.0146762
854.075	0.0146645
854.153	0.0146420
854.231	0.0147304
854.309	0.0145778
854.387	0.0145845
854.465	0.0146477
854.543	0.0146655
854.621	0.0146081
854.700	0.0146424
854.778	0.0145285
854.856	0.0146992
854.934	0.0146634
855.012	0.0146803
855.090	0.0147230
855.168	0.0146812
855.246	0.0146795
855.325	0.0146840
855.403	0.0148676
855.481	0.0146774
855.559	0.0146667
855.637	0.0146586
855.715	0.0147785
855.793	0.0148863
855.871	0.0147790
855.950	0.0148730
856.028	0.0148170
856.106	0.0147555
856.184	0.0147211
856.262	0.0148193
856.340	0.0146841
856.418	0.0147414
856.496	0.0147428
856.575	0.0148839
856.653	0.0147699
856.731	0.0147402
856.809	0.0148238
856.887	0.0147543
856.965	0.0146426
857.043	0.0146204
857.121	0.0146809
857.200	0.0147483
857.278	0.0146267
857.356	0.0146540
857.434	0.0145600
857.512	0.0146322
857.590	0.0146847
857.668	0.0147736
857.746	0.0146063
857.825	0.0145848
857.903	0.0146025
857.981	0.0147232
858.059	0.0147037
858.137	0.0146068
858.215	0.0148421
858.293	0.0147467
858.371	0.0145674
858.450	0.0147030
858.528	0.0146815
858.606	0.0146785
858.684	0.0145276
858.762	0.0147326
858.840	0.0147727
858.918	0.0147376
858.996	0.0147379
859.075	0.0146996
859.153	0.0146433
859.231	0.0146973
859.309	0.0147084
859.387	0.0147527
859.465	0.0146178
859.543	0.0147695
859.621	0.0146863
859.700	0.0146416
859.778	0.0147243
859.856	0.0147884
859.934	0.0147475
860.012	0.0148455
860.090	0.0149282
860.168	0.0146513
860.246	0.0148260
860.325	0.0147314
860.403	0.0146510
860.481	0.0148969
860.559	0.0146520
860.637	0.0146542
860.715	0.0146802
860.793	0.0147395
860.871	0.0146606
860.950	0.0146003
861.028	0.0146809
861.106	0.0146904
861.184	0.0147424
861.262	0.0146967
861.340	0.0145690
861.418	0.0147720
861.496	0.0146756
861.575	0.0145602
861.653	0.0145442
861.731	0.0146076
861.809	0.0147431
861.887	0.0145662
861.965	0.0147090
862.043	0.0146625
862.121	0.0146857
862.200	0.0147495
862.278	0.0147553
862.356	0.0146352
862.434	0.0148302
862.512	0.0148853
862.590	0.0147441
862.668	0.0147197
862.746	0.0148061
862.825	0.0148476
862.903	0.0147936
862.981	0.0146844
863.059	0.0147593
863.137	0.0148667
863.215	0.0148232
863.293	0.0146919
863.371	0.0147740
863.450	0.0149060
863.528	0.0147797
863.606	0.0147450
863.684	0.0147345
863.762	0.0148076
863.840	0.0146809
863.918	0.0147791
863.996	0.0147363
864.075	0.0147608
864.153	0.0148585
864.231	0.0146685
864.309	0.0147114
864.387	0.0148509
864.465	0.0149474
864.543	0.0147628
864.621	0.0147379
864.700	0.0147102
864.778	0.0148438
864.856	0.0147989
864.934	0.0146931
865.012	0.0147056
865.090	0.0148207
865.168	0.0147286
865.246	0.0147351
865.325	0.0148055
865.403	0.0147757
865.481	0.0147925
865.559	0.0147112
865.637	0.0148550
865.715	0.0147626
865.793	0.0146845
865.871	0.0147894
865.950	0.0147154
866.028	0.0145908
866.106	0.0145359
866.184	0.0147838
866.262	0.0146942
866.340	0.0147272
866.418	0.0147665
866.496	0.0148220
866.575	0.0147222
866.653	0.0146465
866.731	0.0147823
866.809	0.0147331
866.887	0.0147043
866.965	0.0147845
867.043	0.0148924
867.121	0.0147073
867.200	0.0147747
867.278	0.0148019
867.356	0.0147895
867.434	0.0147425
867.512	0.0146839
867.590	0.0148141
867.668	0.0148144
867.746	0.0147301
867.825	0.0147855
867.903	0.0148109
867.981	0.0147869
868.059	0.0147574
868.137	0.0149114
868.215	0.0147072
868.293	0.0147221
868.371	0.0147688
868.450	0.0147032
868.528	0.0148701
868.606	0.0146471
868.684	0.0146527
868.762	0.0147382
868.840	0.0146301
868.918	0.0146917
868.996	0.0147095
869.075	0.0146213
869.153	0.0147169
869.231	0.0145515
869.309	0.0146628
869.387	0.0144502
869.465	0.0146723
869.543	0.0147557
869.621	0.0148674
869.700	0.0146670
869.778	0.0147633
869.856	0.0147549
869.934	0.0148175
870.012	0.0147985
870.090	0.0147653
870.168	0.0147118
870.246	0.0145995
870.325	0.0147148
870.403	0.0149046
870.481	0.0147527
870.559	0.0147099
870.637	0.0148306
870.715	0.0147062
870.793	0.0147243
870.871	0.0147842
870.950	0.0146615
871.028	0.0148071
871.106	0.0147753
871.184	0.0147382
871.262	0.0147803
871.340	0.0148336
871.418	0.0147990
871.496	0.0148183
871.575	0.0147662
871.653	0.0147626
871.731	0.0147607
871.809	0.0149171
871.887	0.0146786
871.965	0.0147059
872.043	0.0147736
872.121	0.0147594
872.200	0.0148147
872.278	0.0148415
872.356	0.0147906
872.434	0.0147121
872.512	0.0148211
872.590	0.0147384
872.668	0.0146870
872.746	0.0146875
872.825	0.0144776
872.903	0.0146048
872.981	0.0146848
873.059	0.0145916
873.137	0.0146317
873.215	0.0146436
873.293	0.0145695
873.371	0.0146975
873.450	0.0146641
873.528	0.0146831
873.606	0.0146895
873.684	0.0145055
873.762	0.0147586
873.840	0.0147706
873.918	0.0147030
873.996	0.0146635
874.075	0.0146867
874.153	0.0149389
874.231	0.0147334
874.309	0.0146881
874.387	0.0147894
874.465	0.0148025
874.543	0.0147246
874.621	0.0146275
874.700	0.0147600
874.778	0.0147761
874.856	0.0146244
874.934	0.0145721
875.012	0.0147799
875.090	0.0145779
875.168	0.0146547
875.246	0.0146744
875.325	0.0145876
875.403	0.0147038
875.481	0.0147279
875.559	0.0145686
875.637	0.0148056
875.715	0.0147083
875.793	0.0147425
875.871	0.0147227
875.950	0.0147498
876.028	0.0147805
876.106	0.0147453
876.184	0.0147444
876.262	0.0147823
876.340	0.0146864
876.418	0.0147385
876.496	0.0147109
876.575	0.0146995
876.653	0.0147696
876.731	0.0146606
876.809	0.0147449
876.887	0.0148588
876.965	0.0147570
877.043	0.0146458
877.121	0.0147854
877.200	0.0146198
877.278	0.0147450
877.356	0.0148642
877.434	0.0147469
877.512	0.0146024
877.590	0.0146871
877.668	0.0148799
877.746	0.0147997
877.825	0.0147499
877.903	0.0147490
877.981	0.0147790
878.059	0.0147832
878.137	0.0147277
878.215	0.0146964
878.293	0.0147992
878.371	0.0146842
878.450	0.0146282
878.528	0.0147087
878.606	0.0146236
878.684	0.0147060
878.762	0.0148107
878.840	0.0147858
878.918	0.0147213
878.996	0.0147620
879.075	0.0147425
879.153	0.0147614
879.231	0.0148204
879.309	0.0148388
879.387	0.0147823
879.465	0.0148134
879.543	0.0147305
879.621	0.0147338
879.700	0.0147729
879.778	0.0147169
879.856	0.0147448
879.934	0.0147700
880.012	0.0146758
880.090	0.0146836
880.168	0.0147230
880.246	0.0147320
880.325	0.0146259
880.403	0.0146228
880.481	0.0147639
880.559	0.0148000
880.637	0.0148561
880.715	0.0146758
880.793	0.0147507
880.871	0.0146998
880.950	0.0145345
881.028	0.0146196
881.106	0.0147888
881.184	0.0147078
881.262	0.0146709
881.340	0.0147395
881.418	0.0147997
881.496	0.0146468
881.575	0.0148275
881.653	0.0148637
881.731	0.0147587
881.809	0.0147406
881.887	0.0147272
881.965	0.0148023
882.043	0.0147492
882.121	0.0149241
882.200	0.0147836
882.278	0.0146839
882.356	0.0146854
882.434	0.0146678
882.512	0.0147172
882.590	0.0147879
882.668	0.0147668
882.746	0.0147144
882.825	0.0145120
882.903	0.0145238
882.981	0.0147762
883.059	0.0148420
883.137	0.0146412
883.215	0.0147926
883.293	0.0147905
883.371	0.0148001
883.450	0.0147227
883.528	0.0146495
883.606	0.0147500
883.684	0.0147186
883.762	0.0146461
883.840	0.0147118
883.918	0.0146893
883.996	0.0147797
884.075	0.0147144
884.153	0.0146748
884.231	0.0148586
884.309	0.0146745
884.387	0.0145686
884.465	0.0144606
884.543	0.0145980
884.621	0.0146705
884.700	0.0145929
884.778	0.0146552
884.856	0.0147147
884.934	0.0147453
885.012	0.0146339
885.090	0.0146767
885.168	0.0147218
885.246	0.0147033
885.325	0.0145084
885.403	0.0146105
885.481	0.0146227
885.559	0.0146066
885.637	0.0146918
885.715	0.0146770
885.793	0.0146861
885.871	0.0146703
885.950	0.0146230
886.028	0.0146758
886.106	0.0146368
886.184	0.0148081
886.262	0.0147790
886.340	0.0146737
886.418	0.0147458
886.496	0.0147334
886.575	0.0147169
886.653	0.0148088
886.731	0.0147777
886.809	0.0146911
886.887	0.0147566
886.965	0.0146724
887.043	0.0147217
887.121	0.0147829
887.200	0.0146664
887.278	0.0146247
887.356	0.0147494
887.434	0.0147590
887.512	0.0147412
887.590	0.0146452
887.668	0.0147031
887.746	0.0147076
887.825	0.0148366
887.903	0.0147882
887.981	0.0146634
888.059	0.0147736
888.137	0.0146818
888.215	0.0147228
888.293	0.0148244
888.371	0.0147501
888.450	0.0147218
888.528	0.0147554
888.606	0.0146548
888.684	0.0147659
888.762	0.0145972
888.840	0.0146487
888.918	0.0147175
888.996	0.0149259
889.075	0.0147122
889.153	0.0147234
889.231	0.0147406
889.309	0.0146812
889.387	0.0147556
889.465	0.0147108
889.543	0.0147731
889.621	0.0146967
889.700	0.0146838
889.778	0.0147142
889.856	0.0146922
889.934	0.0148396
890.012	0.0146470
890.090	0.0145235
890.168	0.0146144
890.246	0.0147038
890.325	0.0147892
890.403	0.0147684
890.481	0.0148701
890.559	0.0149263
890.637	0.0148324
890.715	0.0148221
890.793	0.0148619
890.871	0.0148428
890.950	0.0149011
891.028	0.0148425
891.106	0.0148038
891.184	0.0149183
891.262	0.0147749
891.340	0.0148592
891.418	0.0148830
891.496	0.0148806
891.575	0.0147825
891.653	0.0148289
891.731	0.0147998
891.809	0.0148357
891.887	0.0147748
891.965	0.0147094
892.043	0.0147040
892.121	0.0146272
892.200	0.0146654
892.278	0.0147856
892.356	0.0147817
892.434	0.0147289
892.512	0.0147504
892.590	0.0146716
892.668	0.0147973
892.746	0.0149321
892.825	0.0147204
892.903	0.0147530
892.981	0.0148947
893.059	0.0148263
893.137	0.0146571
893.215	0.0147279
893.293	0.0148328
893.371	0.0147678
893.450	0.0147097
893.528	0.0147781
893.606	0.0146996
893.684	0.0146523
893.762	0.0147276
893.840	0.0147490
893.918	0.0145388
893.996	0.0145084
894.075	0.0147530
894.153	0.0146433
894.231	0.0146358
894.309	0.0148042
894.387	0.0147861
894.465	0.0147565
894.543	0.0148547
894.621	0.0148763
894.700	0.0148557
894.778	0.0147900
894.856	0.0147552
894.934	0.0147423
895.012	0.0147935
895.090	0.0147705
895.168	0.0146807
895.246	0.0147289
895.325	0.0146162
895.403	0.0146626
895.481	0.0147950
895.559	0.0146523
895.637	0.0147180
895.715	0.0147210
895.793	0.0148127
895.871	0.0146840
895.950	0.0147375
896.028	0.0148452
896.106	0.0147457
896.184	0.0148318
896.262	0.0147370
896.340	0.0146506
896.418	0.0147858
896.496	0.0146191
896.575	0.0149046
896.653	0.0146338
896.731	0.0146000
896.809	0.0146700
896.887	0.0146272
896.965	0.0147359
897.043	0.0147665
897.121	0.0146084
897.200	0.0147305
897.278	0.0147549
897.356	0.0148325
897.434	0.0148289
897.512	0.0148941
897.590	0.0147444
897.668	0.0148579
897.746	0.0147787
897.825	0.0147858
897.903	0.0148481
897.981	0.0147993
898.059	0.0146631
898.137	0.0146484
898.215	0.0147205
898.293	0.0146030
898.371	0.0145485
898.450	0.0146123
898.528	0.0146688
898.606	0.0146150
898.684	0.0146510
898.762	0.0145471
898.840	0.0147232
898.918	0.0148504
898.996	0.0147278
899.075	0.0147179
899.153	0.0148489
899.231	0.0148330
899.309	0.0148766
899.387	0.0148470
899.465	0.0147714
899.543	0.0147677
899.621	0.0146449
899.700	0.0145908
899.778	0.0146037
899.856	0.0147657
899.934	0.0146659
900.012	0.0147221
900.090	0.0145629
900.168	0.0146688
900.246	0.0146954
900.325	0.0146683
900.403	0.0147350
900.481	0.0145588
900.559	0.0146013
900.637	0.0147580
900.715	0.0146963
900.793	0.0146664
900.871	0.0147733
900.950	0.0148653
901.028	0.0146630
901.106	0.0147674
901.184	0.0147629
901.262	0.0148764
901.340	0.0147343
901.418	0.0147634
901.496	0.0147564
901.575	0.0146819
901.653	0.0146159
901.731	0.0147906
901.809	0.0147310
901.887	0.0146617
901.965	0.0146015
902.043	0.0146715
902.121	0.0145966
902.200	0.0147107
902.278	0.0146124
902.356	0.0147404
902.434	0.0146664
902.512	0.0147221
902.590	0.0148135
902.668	0.0147821
902.746	0.0146678
902.825	0.0146227
902.903	0.0148577
902.981	0.0147911
903.059	0.0146288
903.137	0.0146870
903.215	0.0146725
903.293	0.0145498
903.371	0.0145459
903.450	0.0146567
903.528	0.0146393
903.606	0.0147159
903.684	0.0146275
903.762	0.0145805
903.840	0.0147677
903.918	0.0148069
903.996	0.0148428
904.075	0.0149088
904.153	0.0148019
904.231	0.0147198
904.309	0.0147986
904.387	0.0146959
904.465	0.0149234
904.543	0.0147803
904.621	0.0147413
904.700	0.0147758
904.778	0.0147538
904.856	0.0148154
904.934	0.0146883
905.012	0.0145699
905.090	0.0146906
905.168	0.0146764
905.246	0.0146633
905.325	0.0145956
905.403	0.0145654
905.481	0.0147153
905.559	0.0147243
905.637	0.0147501
905.715	0.0147110
905.793	0.0146851
905.871	0.0147897
905.950	0.0147028
906.028	0.0147498
906.106	0.0147161
906.184	0.0146945
906.262	0.0146046
906.340	0.0146157
906.418	0.0147055
906.496	0.0146879
906.575	0.0145737
906.653	0.0146519
906.731	0.0144898
906.809	0.0145399
906.887	0.0147451
906.965	0.0146639
907.043	0.0144312
907.121	0.0146452
907.200	0.0146503
907.278	0.0146017
907.356	0.0146483
907.434	0.0146834
907.512	0.0145860
907.590	0.0147398
907.668	0.0147639
907.746	0.0147491
907.825	0.0146854
907.903	0.0146284
907.981	0.0146507
908.059	0.0145747
908.137	0.0147286
908.215	0.0146954
908.293	0.0145947
908.371	0.0145714
908.450	0.0146951
908.528	0.0145341
908.606	0.0145284
908.684	0.0146497
908.762	0.0145794
908.840	0.0146574
908.918	0.0144714
908.996	0.0146043
909.075	0.0147909
909.153	0.0147303
909.231	0.0146645
909.309	0.0147927
909.387	0.0147749
909.465	0.0147226
909.543	0.0147266
909.621	0.0147084
909.700	0.0147803
909.778	0.0148310
909.856	0.0147626
909.934	0.0147556
910.012	0.0148608
910.090	0.0146008
910.168	0.0146234
910.246	0.0146989
910.325	0.0146895
910.403	0.0147210
910.481	0.0146137
910.559	0.0146127
910.637	0.0146564
910.715	0.0146728
910.793	0.0145562
910.871	0.0146080
910.950	0.0146725
911.028	0.0145291
911.106	0.0146503
911.184	0.0146960
911.262	0.0146605
911.340	0.0147163
911.418	0.0148099
911.496	0.0147043
911.575	0.0146411
911.653	0.0145179
911.731	0.0147234
911.809	0.0147177
911.887	0.0147086
911.965	0.0147701
912.043	0.0148154
912.121	0.0146443
912.200	0.0147194
912.278	0.0146695
912.356	0.0146150
912.434	0.0148193
912.512	0.0146558
912.590	0.0147379
912.668	0.0147367
912.746	0.0147079
912.825	0.0146341
912.903	0.0145988
912.981	0.0146868
913.059	0.0148550
913.137	0.0147557
913.215	0.0146945
913.293	0.0146815
913.371	0.0146194
913.450	0.0148250
913.528	0.0148428
913.606	0.0147485
913.684	0.0147478
913.762	0.0146692
913.840	0.0147306
913.918	0.0146777
913.996	0.0145644
914.075	0.0147279
914.153	0.0146037
914.231	0.0145476
914.309	0.0145583
914.387	0.0147338
914.465	0.0145874
914.543	0.0147198
914.621	0.0146998
914.700	0.0147044
914.778	0.0147195
914.856	0.0146793
914.934	0.0147051
915.012	0.0148061
915.090	0.0146618
915.168	0.0147560
915.246	0.0146920
915.325	0.0146829
915.403	0.0147962
915.481	0.0147456
915.559	0.0146364
915.637	0.0146870
915.715	0.0147306
915.793	0.0148379
915.871	0.0147737
915.950	0.0148439
916.028	0.0147448
916.106	0.0146468
916.184	0.0146008
916.262	0.0147157
916.340	0.0148366
916.418	0.0146517
916.496	0.0147083
916.575	0.0148126
916.653	0.0145975
916.731	0.0147099
916.809	0.0147917
916.887	0.0146491
916.965	0.0146389
917.043	0.0146727
917.121	0.0147132
917.200	0.0147121
917.278	0.0146015
917.356	0.0148059
917.434	0.0147153
917.512	0.0147533
917.590	0.0148585
917.668	0.0147784
917.746	0.0146447
917.825	0.0146590
917.903	0.0146761
917.981	0.0146432
918.059	0.0146201
918.137	0.0147474
918.215	0.0146307
918.293	0.0145367
918.371	0.0145933
918.450	0.0148963
918.528	0.0147810
918.606	0.0147030
918.684	0.0146200
918.762	0.0146366
918.840	0.0146063
918.918	0.0147698
918.996	0.0147435
919.075	0.0146983
919.153	0.0146628
919.231	0.0147636
919.309	0.0146879
919.387	0.0147340
919.465	0.0147480
919.543	0.0146548
919.621	0.0147925
919.700	0.0146812
919.778	0.0147050
919.856	0.0148500
919.934	0.0148578
920.012	0.0146986
920.090	0.0147468
920.168	0.0147065
920.246	0.0147884
920.325	0.0146550
920.403	0.0146874
920.481	0.0146981
920.559	0.0146994
920.637	0.0146754
920.715	0.0147834
920.793	0.0147357
920.871	0.0147306
920.950	0.0147865
921.028	0.0148480
921.106	0.0146855
921.184	0.0146861
921.262	0.0147182
921.340	0.0146596
921.418	0.0145995
921.496	0.0147413
921.575	0.0148074
921.653	0.0146961
921.731	0.0146393
921.809	0.0147272
921.887	0.0147091
921.965	0.0147250
922.043	0.0148659
922.121	0.0147987
922.200	0.0146770
922.278	0.0147430
922.356	0.0147959
922.434	0.0148091
922.512	0.0148273
922.590	0.0146283
922.668	0.0146619
922.746	0.0147095
922.825	0.0146680
922.903	0.0147575
922.981	0.0146907
923.059	0.0148517
923.137	0.0147212
923.215	0.0145463
923.293	0.0146655
923.371	0.0147913
923.450	0.0145995
923.528	0.0148463
923.606	0.0146676
923.684	0.0146461
923.762	0.0146494
923.840	0.0146420
923.918	0.0147402
923.996	0.0147064
924.075	0.0147778
924.153	0.0146878
924.231	0.0146762
924.309	0.0147607
924.387	0.0147019
924.465	0.0148274
924.543	0.0145174
924.621	0.0147607
924.700	0.0147635
924.778	0.0148759
924.856	0.0147012
924.934	0.0146400
925.012	0.0147067
925.090	0.0146127
925.168	0.0147015
925.246	0.0147418
925.325	0.0148260
925.403	0.0147291
925.481	0.0146294
925.559	0.0146825
925.637	0.0146244
925.715	0.0146606
925.793	0.0145758
925.871	0.0147091
925.950	0.0146863
926.028	0.0147294
926.106	0.0146144
926.184	0.0146658
926.262	0.0146050
926.340	0.0147181
926.418	0.0146659
926.496	0.0146259
926.575	0.0146291
926.653	0.0146640
926.731	0.0147491
926.809	0.0146577
926.887	0.0147372
926.965	0.0145797
927.043	0.0145426
927.121	0.0146519
927.200	0.0145586
927.278	0.0145151
927.356	0.0145097
927.434	0.0146669
927.512	0.0146960
927.590	0.0146675
927.668	0.0146780
927.746	0.0146304
927.825	0.0145879
927.903	0.0146169
927.981	0.0146712
928.059	0.0147034
928.137	0.0148129
928.215	0.0147429
928.293	0.0147022
928.371	0.0146324
928.450	0.0145634
928.528	0.0146481
928.606	0.0146691
928.684	0.0147213
928.762	0.0146574
928.840	0.0147086
928.918	0.0145600
928.996	0.0147192
929.075	0.0147655
929.153	0.0146009
929.231	0.0147195
929.309	0.0146976
929.387	0.0146917
929.465	0.0146627
929.543	0.0146846
929.621	0.0147918
929.700	0.0147859
929.778	0.0147136
929.856	0.0146761
929.934	0.0147662
930.012	0.0146272
930.090	0.0148009
930.168	0.0146281
930.246	0.0147026
930.325	0.0148518
930.403	0.0147365
930.481	0.0146523
930.559	0.0147015
930.637	0.0147413
930.715	0.0147043
930.793	0.0147494
930.871	0.0145747
930.950	0.0147948
931.028	0.0147064
931.106	0.0145157
931.184	0.0145101
931.262	0.0145924
931.340	0.0147851
931.418	0.0147485
931.496	0.0146143
931.575	0.0145676
931.653	0.0146005
931.731	0.0146877
931.809	0.0147240
931.887	0.0146635
931.965	0.0147287
932.043	0.0147047
932.121	0.0147296
932.200	0.0146414
932.278	0.0145827
932.356	0.0146452
932.434	0.0148259
932.512	0.0145379
932.590	0.0146215
932.668	0.0146882
932.746	0.0147697
932.825	0.0147132
932.903	0.0146322
932.981	0.0147742
933.059	0.0146059
933.137	0.0147244
933.215	0.0146863
933.293	0.0146201
933.371	0.0146897
933.450	0.0146619
933.528	0.0146553
933.606	0.0146040
933.684	0.0146758
933.762	0.0147309
933.840	0.0147901
933.918	0.0147334
933.996	0.0146126
934.075	0.0145602
934.153	0.0144968
934.231	0.0145886
934.309	0.0146400
934.387	0.0145946
934.465	0.0145301
934.543	0.0145914
934.621	0.0147235
934.700	0.0146637
934.778	0.0146030
934.856	0.0145440
934.934	0.0145743
935.012	0.0146233
935.090	0.0147137
935.168	0.0146620
935.246	0.0146675
935.325	0.0146967
935.403	0.0145807
935.481	0.0144891
935.559	0.0146674
935.637	0.0145621
935.715	0.0147141
935.793	0.0148091
935.871	0.0146904
935.950	0.0145991
936.028	0.0145576
936.106	0.0146894
936.184	0.0147540
936.262	0.0146207
936.340	0.0146758
936.418	0.0147048
936.496	0.0147218
936.575	0.0147687
936.653	0.0146458
936.731	0.0146075
936.809	0.0145770
936.887	0.0145781
936.965	0.0146521
937.043	0.0147171
937.121	0.0146658
937.200	0.0144859
937.278	0.0145242
937.356	0.0146051
937.434	0.0144969
937.512	0.0145851
937.590	0.0146615
937.668	0.0146992
937.746	0.0146732
937.825	0.0145491
937.903	0.0147818
937.981	0.0147489
938.059	0.0147916
938.137	0.0147044
938.215	0.0147106
938.293	0.0147169
938.371	0.0147833
938.450	0.0147040
938.528	0.0148406
938.606	0.0147815
938.684	0.0148629
938.762	0.0148134
938.840	0.0147190
938.918	0.0147268
938.996	0.0147976
939.075	0.0148254
939.153	0.0148148
939.231	0.0147982
939.309	0.0146369
939.387	0.0147424
939.465	0.0146592
939.543	0.0146164
939.621	0.0147204
939.700	0.0147457
939.778	0.0147598
939.856	0.0146438
939.934	0.0147086
940.012	0.0148468
940.090	0.0147904
940.168	0.0148047
940.246	0.0146038
940.325	0.0145632
940.403	0.0147475
940.481	0.0145648
940.559	0.0146431
940.637	0.0147440
940.715	0.0146684
940.793	0.0147508
940.871	0.0147076
940.950	0.0147272
941.028	0.0147872
941.106	0.0147266
941.184	0.0147884
941.262	0.0147568
941.340	0.0147224
941.418	0.0148898
941.496	0.0149364
941.575	0.0147848
941.653	0.0147775
941.731	0.0147873
941.809	0.0148246
941.887	0.0146849
941.965	0.0147529
942.043	0.0148280
942.121	0.0147726
942.200	0.0148037
942.278	0.0146294
942.356	0.0145900
942.434	0.0146220
942.512	0.0147436
942.590	0.0147668
942.668	0.0147665
942.746	0.0147185
942.825	0.0146419
942.903	0.0147532
942.981	0.0146871
943.059	0.0147665
943.137	0.0147354
943.215	0.0148312
943.293	0.0145799
943.371	0.0147382
943.450	0.0147057
943.528	0.0148758
943.606	0.0146953
943.684	0.0147557
943.762	0.0148475
943.840	0.0147171
943.918	0.0145806
943.996	0.0146935
944.075	0.0147408
944.153	0.0147131
944.231	0.0147144
944.309	0.0148370
944.387	0.0149680
944.465	0.0147462
944.543	0.0147520
944.621	0.0147530
944.700	0.0145935
944.778	0.0148227
944.856	0.0148184
944.934	0.0146680
945.012	0.0148499
945.090	0.0148478
945.168	0.0146794
945.246	0.0147647
945.325	0.0147476
945.403	0.0147264
945.481	0.0148087
945.559	0.0146216
945.637	0.0147803
945.715	0.0148514
945.793	0.0148546
945.871	0.0147401
945.950	0.0148119
946.028	0.0147520
946.106	0.0147589
946.184	0.0147721
946.262	0.0147283
946.340	0.0146382
946.418	0.0147113
946.496	0.0147501
946.575	0.0146842
946.653	0.0146964
946.731	0.0147665
946.809	0.0148076
946.887	0.0146390
946.965	0.0146841
947.043	0.0148402
947.121	0.0146324
947.200	0.0146740
947.278	0.0147874
947.356	0.0147580
947.434	0.0147534
947.512	0.0147225
947.590	0.0147141
947.668	0.0147160
947.746	0.0145650
947.825	0.0148029
947.903	0.0148547
947.981	0.0147522
948.059	0.0146662
948.137	0.0147207
948.215	0.0146815
948.293	0.0146773
948.371	0.0147564
948.450	0.0147488
948.528	0.0145697
948.606	0.0147697
948.684	0.0147117
948.762	0.0144766
948.840	0.0146764
948.918	0.0147518
948.996	0.0146788
949.075	0.0147831
949.153	0.0147789
949.231	0.0146391
949.309	0.0146046
949.387	0.0146211
949.465	0.0147651
949.543	0.0147323
949.621	0.0146698
949.700	0.0147758
949.778	0.0146745
949.856	0.0147274
949.934	0.0147157
950.012	0.0148243
950.090	0.0147161
950.168	0.0147318
950.246	0.0147573
950.325	0.0148286
950.403	0.0149077
950.481	0.0148417
950.559	0.0145969
950.637	0.0147555
950.715	0.0146510
950.793	0.0148777
950.871	0.0145758
950.950	0.0146312
951.028	0.0147458
951.106	0.0146025
951.184	0.0147203
951.262	0.0148411
951.340	0.0147314
951.418	0.0146004
951.496	0.0147354
951.575	0.0146990
951.653	0.0147229
951.731	0.0147108
951.809	0.0146931
951.887	0.0147463
951.965	0.0146346
952.043	0.0146478
952.121	0.0147335
952.200	0.0147888
952.278	0.0147324
952.356	0.0147031
952.434	0.0146288
952.512	0.0147474
952.590	0.0146230
952.668	0.0146688
952.746	0.0146352
952.825	0.0147185
952.903	0.0148024
952.981	0.0147346
953.059	0.0147636
953.137	0.0147165
953.215	0.0146703
953.293	0.0147221
953.371	0.0147763
953.450	0.0147485
953.528	0.0146655
953.606	0.0147868
953.684	0.0148018
953.762	0.0148338
953.840	0.0147391
953.918	0.0145920
953.996	0.0145819
954.075	0.0146634
954.153	0.0147214
954.231	0.0147665
954.309	0.0145567
954.387	0.0147140
954.465	0.0147935
954.543	0.0146988
954.621	0.0145289
954.700	0.0146987
954.778	0.0147485
954.856	0.0146181
954.934	0.0146229
955.012	0.0146952
955.090	0.0147375
955.168	0.0145338
955.246	0.0146244
955.325	0.0146527
955.403	0.0147606
955.481	0.0147288
955.559	0.0147604
955.637	0.0146866
955.715	0.0147527
955.793	0.0147896
955.871	0.0146756
955.950	0.0148583
956.028	0.0146766
956.106	0.0146445
956.184	0.0147072
956.262	0.0147220
956.340	0.0148801
956.418	0.0148399
956.496	0.0147658
956.575	0.0147652
956.653	0.0147295
956.731	0.0147118
956.809	0.0146928
956.887	0.0146475
956.965	0.0146864
957.043	0.0146790
957.121	0.0145981
957.200	0.0147029
957.278	0.0146446
957.356	0.0146420
957.434	0.0146865
957.512	0.0145801
957.590	0.0145750
957.668	0.0148323
957.746	0.0146575
957.825	0.0146719
957.903	0.0147332
957.981	0.0145876
958.059	0.0146600
958.137	0.0146633
958.215	0.0146866
958.293	0.0145973
958.371	0.0147441
958.450	0.0147261
958.528	0.0146618
958.606	0.0145590
958.684	0.0147785
958.762	0.0148355
958.840	0.0146227
958.918	0.0147073
958.996	0.0147328
959.075	0.0146964
959.153	0.0146384
959.231	0.0147325
959.309	0.0146131
959.387	0.0148794
959.465	0.0146073
959.543	0.0147076
959.621	0.0146609
959.700	0.0146546
959.778	0.0147195
959.856	0.0146822
959.934	0.0146217
960.012	0.0146287
960.090	0.0148610
960.168	0.0146764
960.246	0.0146820
960.325	0.0146706
960.403	0.0147137
960.481	0.0146375
960.559	0.0147012
960.637	0.0147110
960.715	0.0145397
960.793	0.0146830
960.871	0.0146624
960.950	0.0147612
961.028	0.0146934
961.106	0.0147437
961.184	0.0146445
961.262	0.0148139
961.340	0.0147571
961.418	0.0146545
961.496	0.0146844
961.575	0.0146619
961.653	0.0146746
961.731	0.0145763
961.809	0.0146673
961.887	0.0147836
961.965	0.0146920
962.043	0.0146253
962.121	0.0148436
962.200	0.0147656
962.278	0.0146799
962.356	0.0146760
962.434	0.0148620
962.512	0.0146919
962.590	0.0149192
962.668	0.0146534
962.746	0.0146953
962.825	0.0147265
962.903	0.0147423
962.981	0.0147470
963.059	0.0146464
963.137	0.0146235
963.215	0.0148613
963.293	0.0147504
963.371	0.0147328
963.450	0.0145732
963.528	0.0147561
963.606	0.0145609
963.684	0.0148984
963.762	0.0148280
963.840	0.0146176
963.918	0.0147658
963.996	0.0147430
964.075	0.0146082
964.153	0.0146430
964.231	0.0146709
964.309	0.0146681
964.387	0.0145982
964.465	0.0147868
964.543	0.0147151
964.621	0.0147231
964.700	0.0146880
964.778	0.0146889
964.856	0.0147573
964.934	0.0145883
965.012	0.0148045
965.090	0.0146836
965.168	0.0146806
965.246	0.0147462
965.325	0.0147158
965.403	0.0146268
965.481	0.0146746
965.559	0.0149004
965.637	0.0147982
965.715	0.0146489
965.793	0.0147424
965.871	0.0147476
965.950	0.0146986
966.028	0.0147311
966.106	0.0149014
966.184	0.0148215
966.262	0.0148177
966.340	0.0147614
966.418	0.0146851
966.496	0.0147578
966.575	0.0147925
966.653	0.0146471
966.731	0.0147296
966.809	0.0147662
966.887	0.0147861
966.965	0.0147446
967.043	0.0145644
967.121	0.0145506
967.200	0.0146382
967.278	0.0147742
967.356	0.0146064
967.434	0.0146216
967.512	0.0147423
967.590	0.0148242
967.668	0.0147611
967.746	0.0147856
967.825	0.0146998
967.903	0.0147115
967.981	0.0147768
968.059	0.0147002
968.137	0.0147194
968.215	0.0148264
968.293	0.0147649
968.371	0.0148487
968.450	0.0146716
968.528	0.0145865
968.606	0.0147697
968.684	0.0147905
968.762	0.0146951
968.840	0.0146342
968.918	0.0146597
968.996	0.0147394
969.075	0.0147334
969.153	0.0147183
969.231	0.0147659
969.309	0.0146777
969.387	0.0146508
969.465	0.0147769
969.543	0.0146590
969.621	0.0146117
969.700	0.0147367
969.778	0.0147856
969.856	0.0147182
969.934	0.0148264
970.012	0.0148792
970.090	0.0146622
970.168	0.0146828
970.246	0.0146765
970.325	0.0147586
970.403	0.0147838
970.481	0.0146931
970.559	0.0147713
970.637	0.0148096
970.715	0.0146739
970.793	0.0147643
970.871	0.0146419
970.950	0.0148367
971.028	0.0147203
971.106	0.0148545
971.184	0.0147848
971.262	0.0146707
971.340	0.0147842
971.418	0.0147718
971.496	0.0148687
971.575	0.0146421
971.653	0.0147126
971.731	0.0147787
971.809	0.0146451
971.887	0.0147371
971.965	0.0146770
972.043	0.0147524
972.121	0.0147166
972.200	0.0148701
972.278	0.0147243
972.356	0.0146583
972.434	0.0146172
972.512	0.0146297
972.590	0.0144379
972.668	0.0146343
972.746	0.0146652
972.825	0.0146439
972.903	0.0147710
972.981	0.0146613
973.059	0.0146907
973.137	0.0147166
973.215	0.0147150
973.293	0.0148077
973.371	0.0147803
973.450	0.0146397
973.528	0.0147603
973.606	0.0147482
973.684	0.0148022
973.762	0.0148704
973.840	0.0149010
973.918	0.0148895
973.996	0.0147699
974.075	0.0146867
974.153	0.0146978
974.231	0.0148274
974.309	0.0147076
974.387	0.0148187
974.465	0.0147916
974.543	0.0146661
974.621	0.0146843
974.700	0.0146806
974.778	0.0147939
974.856	0.0146828
974.934	0.0145841
975.012	0.0145908
975.090	0.0146989
975.168	0.0146937
975.246	0.0146080
975.325	0.0148349
975.403	0.0147340
975.481	0.0146598
975.559	0.0145673
975.637	0.0146679
975.715	0.0147275
975.793	0.0146719
975.871	0.0146826
975.950	0.0147540
976.028	0.0146085
976.106	0.0145826
976.184	0.0147155
976.262	0.0147936
976.340	0.0147327
976.418	0.0147624
976.496	0.0147108
976.575	0.0147527
976.653	0.0146011
976.731	0.0146636
976.809	0.0147874
976.887	0.0147973
976.965	0.0147663
977.043	0.0147173
977.121	0.0148589
977.200	0.0147778
977.278	0.0147869
977.356	0.0148871
977.434	0.0147355
977.512	0.0148212
977.590	0.0148919
977.668	0.0147919
977.746	0.0146780
977.825	0.0147018
977.903	0.0147386
977.981	0.0145953
978.059	0.0147943
978.137	0.0147584
978.215	0.0145644
978.293	0.0145364
978.371	0.0145594
978.450	0.0147056
978.528	0.0145858
978.606	0.0144778
978.684	0.0147517
978.762	0.0145243
978.840	0.0146556
978.918	0.0147821
978.996	0.0147243
979.075	0.0147366
979.153	0.0147620
979.231	0.0146539
979.309	0.0148695
979.387	0.0147530
979.465	0.0147351
979.543	0.0147659
979.621	0.0146467
979.700	0.0146854
979.778	0.0147224
979.856	0.0145412
979.934	0.0146369
980.012	0.0146849
980.090	0.0146449
980.168	0.0146757
980.246	0.0146276
980.325	0.0146942
980.403	0.0145795
980.481	0.0145724
980.559	0.0147028
980.637	0.0145521
980.715	0.0144324
980.793	0.0146642
980.871	0.0146790
980.950	0.0145690
981.028	0.0145370
981.106	0.0146566
981.184	0.0146973
981.262	0.0146289
981.340	0.0146861
981.418	0.0147993
981.496	0.0147396
981.575	0.0146545
981.653	0.0148111
981.731	0.0148438
981.809	0.0146643
981.887	0.0146606
981.965	0.0147255
982.043	0.0146584
982.121	0.0145947
982.200	0.0146829
982.278	0.0145841
982.356	0.0146059
982.434	0.0146899
982.512	0.0146294
982.590	0.0145981
982.668	0.0146443
982.746	0.0145435
982.825	0.0146559
982.903	0.0147639
982.981	0.0147582
983.059	0.0146126
983.137	0.0148116
983.215	0.0147846
983.293	0.0146349
983.371	0.0146957
983.450	0.0148170
983.528	0.0148501
983.606	0.0146528
983.684	0.0147082
983.762	0.0147510
983.840	0.0145892
983.918	0.0147243
983.996	0.0147347
984.075	0.0147186
984.153	0.0146413
984.231	0.0146111
984.309	0.0146861
984.387	0.0145982
984.465	0.0146931
984.543	0.0145422
984.621	0.0146989
984.700	0.0145982
984.778	0.0145830
984.856	0.0145921
984.934	0.0145188
985.012	0.0146898
985.090	0.0148184
985.168	0.0146201
985.246	0.0148069
985.325	0.0146530
985.403	0.0147018
985.481	0.0146945
985.559	0.0147510
985.637	0.0147968
985.715	0.0147659
985.793	0.0147715
985.871	0.0147659
985.950	0.0147330
986.028	0.0146456
986.106	0.0148265
986.184	0.0146828
986.262	0.0144495
986.340	0.0146396
986.418	0.0145464
986.496	0.0146832
986.575	0.0146786
986.653	0.0147181
986.731	0.0147112
986.809	0.0146596
986.887	0.0145863
986.965	0.0146553
987.043	0.0147721
987.121	0.0146879
987.200	0.0147803
987.278	0.0146156
987.356	0.0146925
987.434	0.0146267
987.512	0.0147013
987.590	0.0146311
987.668	0.0148360
987.746	0.0146692
987.825	0.0146273
987.903	0.0145538
987.981	0.0145619
988.059	0.0147092
988.137	0.0146481
988.215	0.0145996
988.293	0.0146073
988.371	0.0147289
988.450	0.0146528
988.528	0.0146436
988.606	0.0146307
988.684	0.0147024
988.762	0.0146931
988.840	0.0147757
988.918	0.0148038
988.996	0.0147768
989.075	0.0146365
989.153	0.0148633
989.231	0.0148853
989.309	0.0147862
989.387	0.0147570
989.465	0.0148569
989.543	0.0145969
989.621	0.0146530
989.700	0.0147043
989.778	0.0146538
989.856	0.0146486
989.934	0.0146377
990.012	0.0148191
990.090	0.0146732
990.168	0.0146496
990.246	0.0146408
990.325	0.0147313
990.403	0.0146409
990.481	0.0146359
990.559	0.0147423
990.637	0.0147269
990.715	0.0147001
990.793	0.0148733
990.871	0.0148479
990.950	0.0148068
991.028	0.0149319
991.106	0.0149254
991.184	0.0148672
991.262	0.0148835
991.340	0.0148347
991.418	0.0148720
991.496	0.0146836
991.575	0.0146688
991.653	0.0147892
991.731	0.0146738
991.809	0.0146568
991.887	0.0147623
991.965	0.0146825
992.043	0.0147268
992.121	0.0147456
992.200	0.0146628
992.278	0.0148560
992.356	0.0148981
992.434	0.0147562
992.512	0.0148219
992.590	0.0147734
992.668	0.0147774
992.746	0.0148251
992.825	0.0147040
992.903	0.0148013
992.981	0.0147929
993.059	0.0149557
993.137	0.0148149
993.215	0.0148613
993.293	0.0146095
993.371	0.0147257
993.450	0.0146832
993.528	0.0146472
993.606	0.0145907
993.684	0.0146214
993.762	0.0148513
993.840	0.0148410
993.918	0.0146120
993.996	0.0147118
994.075	0.0148148
994.153	0.0148278
994.231	0.0146791
994.309	0.0147623
994.387	0.0147603
994.465	0.0149325
994.543	0.0146679
994.621	0.0146500
994.700	0.0147900
994.778	0.0148756
994.856	0.0146696
994.934	0.0146920
995.012	0.0147346
995.090	0.0146613
995.168	0.0148740
995.246	0.0147600
995.325	0.0148132
995.403	0.0148667
995.481	0.0149143
995.559	0.0147442
995.637	0.0147176
995.715	0.0148038
995.793	0.0146088
995.871	0.0145794
995.950	0.0145948
996.028	0.0146594
996.106	0.0146266
996.184	0.0145477
996.262	0.0145860
996.340	0.0145989
996.418	0.0146865
996.496	0.0147138
996.575	0.0145551
996.653	0.0146569
996.731	0.0147018
996.809	0.0146965
996.887	0.0147071
996.965	0.0148270
997.043	0.0146881
997.121	0.0147170
997.200	0.0147101
997.278	0.0147216
997.356	0.0147401
997.434	0.0147013
997.512	0.0146973
997.590	0.0147378
997.668	0.0147506
997.746	0.0148183
997.825	0.0146710
997.903	0.0146664
997.981	0.0147385
998.059	0.0146808
998.137	0.0148080
998.215	0.0148855
998.293	0.0147105
998.371	0.0148291
998.450	0.0148677
998.528	0.0146126
998.606	0.0147740
998.684	0.0147971
998.762	0.0147617
998.840	0.0146281
998.918	0.0146079
