05/04/2022	21:17:48	Ver.	4.1	UNKNOWN
Optical Delay	678.996401	Delta X		0.078125	Sweeps	1	Scan Rate	0/0
Coordinates	Axis 1	NaN	Axis 2	NaN	Axis 3	NaN	Axis 4	NaN	Axis 5	NaN	Axis 6	0.000000
TX Power	0.000000	RX Power	0.000000

678.996	0.0140891
679.075	0.0141437
679.153	0.0142233
679.231	0.0141539
679.309	0.0143053
679.387	0.0143110
679.465	0.0141929
679.543	0.0142910
679.621	0.0143553
679.700	0.0144149
679.778	0.0142647
679.856	0.0142381
679.934	0.0142732
680.012	0.0142971
680.090	0.0141061
680.168	0.0141211
680.246	0.0141828
680.325	0.0139561
680.403	0.0141518
680.481	0.0138223
680.559	0.0139439
680.637	0.0140578
680.715	0.0140553
680.793	0.0138268
680.871	0.0139047
680.950	0.0139539
681.028	0.0139554
681.106	0.0140070
681.184	0.0139921
681.262	0.0141409
681.340	0.0141547
681.418	0.0142347
681.496	0.0139996
681.575	0.0140947
681.653	0.0142384
681.731	0.0143446
681.809	0.0142881
681.887	0.0143005
681.965	0.0143294
682.043	0.0143597
682.121	0.0143172
682.200	0.0143563
682.278	0.0142533
682.356	0.0142028
682.434	0.0140380
682.512	0.0140349
682.590	0.0140361
682.668	0.0141631
682.746	0.0140730
682.825	0.0140222
682.903	0.0139813
682.981	0.0140596
683.059	0.0139706
683.137	0.0140757
683.215	0.0139793
683.293	0.0140746
683.371	0.0140059
683.450	0.0140209
683.528	0.0139690
683.606	0.0141882
683.684	0.0142696
683.762	0.0141717
683.840	0.0141441
683.918	0.0142099
683.996	0.0142081
684.075	0.0139802
684.153	0.0140533
684.231	0.0140791
684.309	0.0140498
684.387	0.0141789
684.465	0.0141794
684.543	0.0141788
684.621	0.0139346
684.700	0.0141467
684.778	0.0142628
684.856	0.0143114
684.934	0.0142309
685.012	0.0144058
685.090	0.0143696
685.168	0.0143549
685.246	0.0144229
685.325	0.0144531
685.403	0.0143865
685.481	0.0141482
685.559	0.0142972
685.637	0.0141753
685.715	0.0141064
685.793	0.0140685
685.871	0.0140791
685.950	0.0140502
686.028	0.0138065
686.106	0.0140153
686.184	0.0139960
686.262	0.0138506
686.340	0.0139016
686.418	0.0139256
686.496	0.0139816
686.575	0.0140582
686.653	0.0139394
686.731	0.0140855
686.809	0.0142072
686.887	0.0142216
686.965	0.0141801
687.043	0.0142883
687.121	0.0142725
687.200	0.0141100
687.278	0.0142406
687.356	0.0142757
687.434	0.0143548
687.512	0.0141676
687.590	0.0143191
687.668	0.0142962
687.746	0.0142537
687.825	0.0142190
687.903	0.0140607
687.981	0.0142520
688.059	0.0141428
688.137	0.0140212
688.215	0.0140951
688.293	0.0140496
688.371	0.0140233
688.450	0.0140990
688.528	0.0139692
688.606	0.0143120
688.684	0.0140244
688.762	0.0140574
688.840	0.0140044
688.918	0.0141629
688.996	0.0140555
689.075	0.0141165
689.153	0.0141843
689.231	0.0141748
689.309	0.0141764
689.387	0.0142824
689.465	0.0141990
689.543	0.0142394
689.621	0.0141487
689.700	0.0142374
689.778	0.0142017
689.856	0.0142966
689.934	0.0142248
690.012	0.0140272
690.090	0.0139923
690.168	0.0141319
690.246	0.0141335
690.325	0.0140193
690.403	0.0140246
690.481	0.0139713
690.559	0.0141740
690.637	0.0140038
690.715	0.0140642
690.793	0.0141529
690.871	0.0141012
690.950	0.0139185
691.028	0.0140873
691.106	0.0142562
691.184	0.0141916
691.262	0.0142484
691.340	0.0143262
691.418	0.0141705
691.496	0.0142510
691.575	0.0142247
691.653	0.0142037
691.731	0.0142047
691.809	0.0141656
691.887	0.0141535
691.965	0.0144096
692.043	0.0141508
692.121	0.0140135
692.200	0.0142111
692.278	0.0141110
692.356	0.0140444
692.434	0.0141820
692.512	0.0140326
692.590	0.0139481
692.668	0.0140710
692.746	0.0140466
692.825	0.0138910
692.903	0.0139841
692.981	0.0141344
693.059	0.0141280
693.137	0.0140343
693.215	0.0141619
693.293	0.0141431
693.371	0.0141138
693.450	0.0140965
693.528	0.0140784
693.606	0.0142062
693.684	0.0143276
693.762	0.0142154
693.840	0.0142610
693.918	0.0141495
693.996	0.0140003
694.075	0.0142491
694.153	0.0142307
694.231	0.0142332
694.309	0.0141647
694.387	0.0140289
694.465	0.0142480
694.543	0.0141696
694.621	0.0144241
694.700	0.0141977
694.778	0.0140263
694.856	0.0139801
694.934	0.0141066
695.012	0.0139252
695.090	0.0138005
695.168	0.0140556
695.246	0.0139693
695.325	0.0138511
695.403	0.0139407
695.481	0.0140142
695.559	0.0140717
695.637	0.0141531
695.715	0.0142010
695.793	0.0142037
695.871	0.0142728
695.950	0.0141233
696.028	0.0143447
696.106	0.0140733
696.184	0.0141639
696.262	0.0140874
696.340	0.0141948
696.418	0.0140541
696.496	0.0140767
696.575	0.0140468
696.653	0.0143242
696.731	0.0141848
696.809	0.0142163
696.887	0.0140435
696.965	0.0141067
697.043	0.0139423
697.121	0.0138981
697.200	0.0137895
697.278	0.0137821
697.356	0.0139050
697.434	0.0140321
697.512	0.0142339
697.590	0.0141854
697.668	0.0141996
697.746	0.0141769
697.825	0.0142690
697.903	0.0143509
697.981	0.0142476
698.059	0.0141691
698.137	0.0141635
698.215	0.0141030
698.293	0.0140865
698.371	0.0141483
698.450	0.0142178
698.528	0.0142689
698.606	0.0142091
698.684	0.0141399
698.762	0.0141269
698.840	0.0140681
698.918	0.0140971
698.996	0.0140512
699.075	0.0139680
699.153	0.0139578
699.231	0.0138568
699.309	0.0139701
699.387	0.0140960
699.465	0.0139914
699.543	0.0140586
699.621	0.0143121
699.700	0.0143027
699.778	0.0144199
699.856	0.0144275
699.934	0.0144084
700.012	0.0139814
700.090	0.0139853
700.168	0.0139859
700.246	0.0138148
700.325	0.0138535
700.403	0.0138551
700.481	0.0139250
700.559	0.0139610
700.637	0.0141142
700.715	0.0140781
700.793	0.0142326
700.871	0.0143221
700.950	0.0142924
701.028	0.0143855
701.106	0.0144878
701.184	0.0145050
701.262	0.0145116
701.340	0.0143961
701.418	0.0143220
701.496	0.0142773
701.575	0.0142822
701.653	0.0139983
701.731	0.0139133
701.809	0.0136806
701.887	0.0133713
701.965	0.0133974
702.043	0.0134335
702.121	0.0134624
702.200	0.0137083
702.278	0.0139462
702.356	0.0140706
702.434	0.0143378
702.512	0.0146305
702.590	0.0148154
702.668	0.0150020
702.746	0.0150838
702.825	0.0149157
702.903	0.0148642
702.981	0.0145263
703.059	0.0143455
703.137	0.0141883
703.215	0.0139729
703.293	0.0136527
703.371	0.0135019
703.450	0.0133846
703.528	0.0133027
703.606	0.0133505
703.684	0.0135247
703.762	0.0136726
703.840	0.0139478
703.918	0.0141996
703.996	0.0143838
704.075	0.0145476
704.153	0.0145525
704.231	0.0146986
704.309	0.0149173
704.387	0.0149331
704.465	0.0148232
704.543	0.0147849
704.621	0.0146285
704.700	0.0143043
704.778	0.0140092
704.856	0.0135062
704.934	0.0131316
705.012	0.0129238
705.090	0.0128723
705.168	0.0128259
705.246	0.0130550
705.325	0.0130323
705.403	0.0136549
705.481	0.0140125
705.559	0.0144415
705.637	0.0148254
705.715	0.0150130
705.793	0.0151634
705.871	0.0152865
705.950	0.0150497
706.028	0.0148823
706.106	0.0147428
706.184	0.0144936
706.262	0.0142416
706.340	0.0140184
706.418	0.0138397
706.496	0.0137405
706.575	0.0135490
706.653	0.0135039
706.731	0.0135334
706.809	0.0136821
706.887	0.0138195
706.965	0.0139757
707.043	0.0141493
707.121	0.0143349
707.200	0.0144671
707.278	0.0146664
707.356	0.0147420
707.434	0.0147020
707.512	0.0147179
707.590	0.0148438
707.668	0.0146449
707.746	0.0144511
707.825	0.0142588
707.903	0.0140683
707.981	0.0138744
708.059	0.0137059
708.137	0.0134647
708.215	0.0135788
708.293	0.0134505
708.371	0.0134331
708.450	0.0135109
708.528	0.0135389
708.606	0.0138022
708.684	0.0139203
708.762	0.0141179
708.840	0.0143790
708.918	0.0143521
708.996	0.0143092
709.075	0.0146634
709.153	0.0146828
709.231	0.0144297
709.309	0.0144785
709.387	0.0143959
709.465	0.0142754
709.543	0.0141749
709.621	0.0139947
709.700	0.0139949
709.778	0.0139069
709.856	0.0138648
709.934	0.0139524
710.012	0.0140199
710.090	0.0140228
710.168	0.0141150
710.246	0.0142135
710.325	0.0142728
710.403	0.0141575
710.481	0.0142017
710.559	0.0143665
710.637	0.0143831
710.715	0.0144188
710.793	0.0145501
710.871	0.0144946
710.950	0.0144895
711.028	0.0144054
711.106	0.0143740
711.184	0.0143015
711.262	0.0142570
711.340	0.0141230
711.418	0.0138052
711.496	0.0138083
711.575	0.0136678
711.653	0.0134936
711.731	0.0134722
711.809	0.0135664
711.887	0.0136309
711.965	0.0135350
712.043	0.0137923
712.121	0.0139536
712.200	0.0140855
712.278	0.0141216
712.356	0.0140375
712.434	0.0143206
712.512	0.0143005
712.590	0.0143115
712.668	0.0143791
712.746	0.0145111
712.825	0.0144564
712.903	0.0143167
712.981	0.0141862
713.059	0.0140281
713.137	0.0137582
713.215	0.0138324
713.293	0.0137164
713.371	0.0136820
713.450	0.0135763
713.528	0.0136708
713.606	0.0137888
713.684	0.0141585
713.762	0.0142156
713.840	0.0144568
713.918	0.0146593
713.996	0.0148263
714.075	0.0149596
714.153	0.0151116
714.231	0.0151395
714.309	0.0149733
714.387	0.0149007
714.465	0.0148704
714.543	0.0147829
714.621	0.0144495
714.700	0.0140992
714.778	0.0137737
714.856	0.0135480
714.934	0.0134851
715.012	0.0131853
715.090	0.0132122
715.168	0.0131927
715.246	0.0131013
715.325	0.0133195
715.403	0.0135285
715.481	0.0137173
715.559	0.0139469
715.637	0.0138746
715.715	0.0141512
715.793	0.0142339
715.871	0.0144150
715.950	0.0143923
716.028	0.0142685
716.106	0.0143865
716.184	0.0144873
716.262	0.0143883
716.340	0.0143577
716.418	0.0143336
716.496	0.0142754
716.575	0.0142333
716.653	0.0140508
716.731	0.0140839
716.809	0.0140648
716.887	0.0139682
716.965	0.0138571
717.043	0.0137725
717.121	0.0137558
717.200	0.0138919
717.278	0.0139365
717.356	0.0137572
717.434	0.0141578
717.512	0.0141679
717.590	0.0140445
717.668	0.0143224
717.746	0.0144337
717.825	0.0146146
717.903	0.0146386
717.981	0.0145747
718.059	0.0145686
718.137	0.0145178
718.215	0.0145401
718.293	0.0144671
718.371	0.0143338
718.450	0.0143487
718.528	0.0142657
718.606	0.0139964
718.684	0.0138821
718.762	0.0138341
718.840	0.0138132
718.918	0.0137418
718.996	0.0137199
719.075	0.0136941
719.153	0.0137901
719.231	0.0136978
719.309	0.0136115
719.387	0.0136930
719.465	0.0139596
719.543	0.0139138
719.621	0.0141090
719.700	0.0140823
719.778	0.0141793
719.856	0.0141362
719.934	0.0139133
720.012	0.0137810
720.090	0.0139863
720.168	0.0140515
720.246	0.0139411
720.325	0.0140081
720.403	0.0140550
720.481	0.0141763
720.559	0.0141882
720.637	0.0143604
720.715	0.0144332
720.793	0.0143109
720.871	0.0142667
720.950	0.0143446
721.028	0.0143704
721.106	0.0142860
721.184	0.0142328
721.262	0.0143463
721.340	0.0144256
721.418	0.0145858
721.496	0.0147152
721.575	0.0147272
721.653	0.0145287
721.731	0.0144475
721.809	0.0144290
721.887	0.0145037
721.965	0.0140734
722.043	0.0139655
722.121	0.0139346
722.200	0.0139129
722.278	0.0137399
722.356	0.0138697
722.434	0.0137909
722.512	0.0137411
722.590	0.0137080
722.668	0.0138537
722.746	0.0138568
722.825	0.0137889
722.903	0.0139529
722.981	0.0139029
723.059	0.0139317
723.137	0.0140277
723.215	0.0140723
723.293	0.0142032
723.371	0.0141047
723.450	0.0141093
723.528	0.0141773
723.606	0.0140355
723.684	0.0140907
723.762	0.0141133
723.840	0.0141853
723.918	0.0141986
723.996	0.0144060
724.075	0.0144764
724.153	0.0145094
724.231	0.0144920
724.309	0.0145150
724.387	0.0145104
724.465	0.0145751
724.543	0.0144941
724.621	0.0144806
724.700	0.0144449
724.778	0.0143015
724.856	0.0141730
724.934	0.0140996
725.012	0.0139921
725.090	0.0139052
725.168	0.0138577
725.246	0.0138287
725.325	0.0137968
725.403	0.0136736
725.481	0.0138563
725.559	0.0138679
725.637	0.0139866
725.715	0.0140415
725.793	0.0141418
725.871	0.0143452
725.950	0.0142413
726.028	0.0143719
726.106	0.0144691
726.184	0.0143936
726.262	0.0143482
726.340	0.0143765
726.418	0.0141315
726.496	0.0142017
726.575	0.0139043
726.653	0.0141331
726.731	0.0139742
726.809	0.0140561
726.887	0.0138100
726.965	0.0137370
727.043	0.0139380
727.121	0.0138766
727.200	0.0139466
727.278	0.0139208
727.356	0.0139478
727.434	0.0140661
727.512	0.0140943
727.590	0.0142188
727.668	0.0143674
727.746	0.0142009
727.825	0.0143813
727.903	0.0142838
727.981	0.0141941
728.059	0.0143488
728.137	0.0141656
728.215	0.0142340
728.293	0.0143707
728.371	0.0144132
728.450	0.0144351
728.528	0.0143560
728.606	0.0144059
728.684	0.0143661
728.762	0.0145228
728.840	0.0144911
728.918	0.0142579
728.996	0.0143529
729.075	0.0142110
729.153	0.0141248
729.231	0.0140963
729.309	0.0139314
729.387	0.0138718
729.465	0.0137563
729.543	0.0137317
729.621	0.0135855
729.700	0.0137330
729.778	0.0136664
729.856	0.0137695
729.934	0.0136976
730.012	0.0140536
730.090	0.0139995
730.168	0.0141222
730.246	0.0142807
730.325	0.0142936
730.403	0.0143504
730.481	0.0143668
730.559	0.0144813
730.637	0.0144421
730.715	0.0143763
730.793	0.0144387
730.871	0.0143929
730.950	0.0144334
731.028	0.0142542
731.106	0.0142189
731.184	0.0142389
731.262	0.0142831
731.340	0.0142911
731.418	0.0142319
731.496	0.0140672
731.575	0.0141746
731.653	0.0140967
731.731	0.0140849
731.809	0.0139826
731.887	0.0140587
731.965	0.0139668
732.043	0.0140194
732.121	0.0140225
732.200	0.0139014
732.278	0.0140391
732.356	0.0139428
732.434	0.0139590
732.512	0.0138860
732.590	0.0138982
732.668	0.0139185
732.746	0.0139043
732.825	0.0139545
732.903	0.0139336
732.981	0.0140703
733.059	0.0142071
733.137	0.0143190
733.215	0.0143015
733.293	0.0143325
733.371	0.0141826
733.450	0.0142142
733.528	0.0141730
733.606	0.0143202
733.684	0.0140794
733.762	0.0140598
733.840	0.0140015
733.918	0.0137988
733.996	0.0138920
734.075	0.0138046
734.153	0.0137297
734.231	0.0138983
734.309	0.0139255
734.387	0.0138923
734.465	0.0139852
734.543	0.0142695
734.621	0.0142565
734.700	0.0143240
734.778	0.0143373
734.856	0.0144952
734.934	0.0145959
735.012	0.0147271
735.090	0.0147215
735.168	0.0145390
735.246	0.0147179
735.325	0.0146178
735.403	0.0145161
735.481	0.0144943
735.559	0.0142957
735.637	0.0140671
735.715	0.0139676
735.793	0.0138942
735.871	0.0137208
735.950	0.0137916
736.028	0.0135772
736.106	0.0136739
736.184	0.0136973
736.262	0.0137045
736.340	0.0137176
736.418	0.0139052
736.496	0.0137180
736.575	0.0138933
736.653	0.0140363
736.731	0.0138177
736.809	0.0138972
736.887	0.0139375
736.965	0.0138618
737.043	0.0139257
737.121	0.0138879
737.200	0.0138580
737.278	0.0139782
737.356	0.0139485
737.434	0.0139584
737.512	0.0139523
737.590	0.0139789
737.668	0.0140520
737.746	0.0142583
737.825	0.0143014
737.903	0.0141317
737.981	0.0143108
738.059	0.0143327
738.137	0.0144209
738.215	0.0144278
738.293	0.0144486
738.371	0.0144514
738.450	0.0143320
738.528	0.0144212
738.606	0.0144118
738.684	0.0143575
738.762	0.0142834
738.840	0.0142675
738.918	0.0141586
738.996	0.0141903
739.075	0.0140987
739.153	0.0141238
739.231	0.0141110
739.309	0.0139132
739.387	0.0140388
739.465	0.0140660
739.543	0.0140132
739.621	0.0141473
739.700	0.0140168
739.778	0.0139674
739.856	0.0141145
739.934	0.0140319
740.012	0.0141962
740.090	0.0141178
740.168	0.0140953
740.246	0.0139523
740.325	0.0139654
740.403	0.0139955
740.481	0.0139209
740.559	0.0139560
740.637	0.0141949
740.715	0.0140878
740.793	0.0140455
740.871	0.0138854
740.950	0.0141003
741.028	0.0139552
741.106	0.0138908
741.184	0.0138569
741.262	0.0139432
741.340	0.0139517
741.418	0.0137842
741.496	0.0138156
741.575	0.0139748
741.653	0.0139506
741.731	0.0139128
741.809	0.0139511
741.887	0.0139515
741.965	0.0140399
742.043	0.0141336
742.121	0.0141763
742.200	0.0142616
742.278	0.0143073
742.356	0.0144308
742.434	0.0145612
742.512	0.0144856
742.590	0.0146308
742.668	0.0144860
742.746	0.0146294
742.825	0.0145296
742.903	0.0145335
742.981	0.0146014
743.059	0.0143948
743.137	0.0143621
743.215	0.0142532
743.293	0.0142450
743.371	0.0141823
743.450	0.0140600
743.528	0.0139354
743.606	0.0139947
743.684	0.0140000
743.762	0.0139921
743.840	0.0139503
743.918	0.0138812
743.996	0.0138551
744.075	0.0139066
744.153	0.0139796
744.231	0.0140860
744.309	0.0140296
744.387	0.0139432
744.465	0.0142052
744.543	0.0140836
744.621	0.0140144
744.700	0.0140693
744.778	0.0141766
744.856	0.0140572
744.934	0.0140248
745.012	0.0140287
745.090	0.0138984
745.168	0.0141479
745.246	0.0141032
745.325	0.0140993
745.403	0.0141753
745.481	0.0142742
745.559	0.0143507
745.637	0.0142648
745.715	0.0142509
745.793	0.0142039
745.871	0.0141810
745.950	0.0141911
746.028	0.0141813
746.106	0.0142055
746.184	0.0141088
746.262	0.0141308
746.340	0.0141174
746.418	0.0142280
746.496	0.0140969
746.575	0.0141340
746.653	0.0140987
746.731	0.0139590
746.809	0.0140888
746.887	0.0141699
746.965	0.0140989
747.043	0.0142101
747.121	0.0141120
747.200	0.0140947
747.278	0.0142731
747.356	0.0142149
747.434	0.0142761
747.512	0.0142680
747.590	0.0142245
747.668	0.0143629
747.746	0.0143412
747.825	0.0141282
747.903	0.0140844
747.981	0.0142086
748.059	0.0141494
748.137	0.0141814
748.215	0.0142469
748.293	0.0141476
748.371	0.0140475
748.450	0.0140733
748.528	0.0139646
748.606	0.0140501
748.684	0.0140572
748.762	0.0140886
748.840	0.0140163
748.918	0.0140701
748.996	0.0140469
749.075	0.0138586
749.153	0.0139545
749.231	0.0139903
749.309	0.0139397
749.387	0.0139194
749.465	0.0140022
749.543	0.0139643
749.621	0.0140795
749.700	0.0141071
749.778	0.0141921
749.856	0.0140269
749.934	0.0141698
750.012	0.0142165
750.090	0.0141029
750.168	0.0140965
750.246	0.0142294
750.325	0.0142546
750.403	0.0142538
750.481	0.0142550
750.559	0.0141562
750.637	0.0142707
750.715	0.0142437
750.793	0.0142628
750.871	0.0142800
750.950	0.0140849
751.028	0.0140406
751.106	0.0142006
751.184	0.0141184
751.262	0.0140462
751.340	0.0138712
751.418	0.0138459
751.496	0.0140867
751.575	0.0141248
751.653	0.0141348
751.731	0.0140849
751.809	0.0140901
751.887	0.0142686
751.965	0.0141801
752.043	0.0142167
752.121	0.0141151
752.200	0.0141599
752.278	0.0142343
752.356	0.0143600
752.434	0.0143196
752.512	0.0143407
752.590	0.0141527
752.668	0.0143457
752.746	0.0141299
752.825	0.0142145
752.903	0.0141362
752.981	0.0141120
753.059	0.0141198
753.137	0.0142155
753.215	0.0142359
753.293	0.0140092
753.371	0.0139993
753.450	0.0139415
753.528	0.0141663
753.606	0.0140166
753.684	0.0139273
753.762	0.0140732
753.840	0.0138614
753.918	0.0138962
753.996	0.0139605
754.075	0.0140810
754.153	0.0139726
754.231	0.0139785
754.309	0.0140320
754.387	0.0140492
754.465	0.0141461
754.543	0.0143215
754.621	0.0142372
754.700	0.0142073
754.778	0.0142393
754.856	0.0141881
754.934	0.0141993
755.012	0.0142936
755.090	0.0143130
755.168	0.0142645
755.246	0.0142095
755.325	0.0141649
755.403	0.0142284
755.481	0.0142327
755.559	0.0140804
755.637	0.0140751
755.715	0.0140150
755.793	0.0140300
755.871	0.0140368
755.950	0.0139748
756.028	0.0139979
756.106	0.0141077
756.184	0.0140416
756.262	0.0139973
756.340	0.0140306
756.418	0.0142052
756.496	0.0141866
756.575	0.0141519
756.653	0.0141559
756.731	0.0141887
756.809	0.0141013
756.887	0.0141776
756.965	0.0141103
757.043	0.0140679
757.121	0.0140295
757.200	0.0141603
757.278	0.0141348
757.356	0.0140646
757.434	0.0138529
757.512	0.0139415
757.590	0.0140411
757.668	0.0140135
757.746	0.0140672
757.825	0.0139619
757.903	0.0141574
757.981	0.0141091
758.059	0.0140575
758.137	0.0141587
758.215	0.0141781
758.293	0.0140791
758.371	0.0141969
758.450	0.0141432
758.528	0.0141878
758.606	0.0141404
758.684	0.0141003
758.762	0.0141761
758.840	0.0141072
758.918	0.0141364
758.996	0.0142012
759.075	0.0140952
759.153	0.0139904
759.231	0.0140621
759.309	0.0141370
759.387	0.0142056
759.465	0.0140987
759.543	0.0140851
759.621	0.0141089
759.700	0.0142793
759.778	0.0141357
759.856	0.0142272
759.934	0.0143125
760.012	0.0142407
760.090	0.0142833
760.168	0.0141621
760.246	0.0141259
760.325	0.0141444
760.403	0.0141160
760.481	0.0141128
760.559	0.0141374
760.637	0.0142244
760.715	0.0141636
760.793	0.0140111
760.871	0.0141153
760.950	0.0140608
761.028	0.0140395
761.106	0.0141116
761.184	0.0140270
761.262	0.0139721
761.340	0.0140403
761.418	0.0140727
761.496	0.0140205
761.575	0.0141403
761.653	0.0139993
761.731	0.0138960
761.809	0.0139563
761.887	0.0140778
761.965	0.0140742
762.043	0.0140961
762.121	0.0141296
762.200	0.0141519
762.278	0.0139999
762.356	0.0141161
762.434	0.0140936
762.512	0.0142561
762.590	0.0141264
762.668	0.0142493
762.746	0.0142982
762.825	0.0142898
762.903	0.0142844
762.981	0.0143169
763.059	0.0142587
763.137	0.0142401
763.215	0.0143055
763.293	0.0142770
763.371	0.0141239
763.450	0.0142747
763.528	0.0142904
763.606	0.0142142
763.684	0.0141581
763.762	0.0143017
763.840	0.0142180
763.918	0.0141380
763.996	0.0142741
764.075	0.0141487
764.153	0.0141374
764.231	0.0140884
764.309	0.0140748
764.387	0.0141085
764.465	0.0141315
764.543	0.0141904
764.621	0.0141457
764.700	0.0141312
764.778	0.0140481
764.856	0.0141160
764.934	0.0140574
765.012	0.0139883
765.090	0.0140408
765.168	0.0139935
765.246	0.0140409
765.325	0.0139351
765.403	0.0140546
765.481	0.0142324
765.559	0.0139917
765.637	0.0140597
765.715	0.0140280
765.793	0.0141792
765.871	0.0141846
765.950	0.0140569
766.028	0.0140493
766.106	0.0142618
766.184	0.0141942
766.262	0.0141990
766.340	0.0142944
766.418	0.0141397
766.496	0.0141386
766.575	0.0142791
766.653	0.0142483
766.731	0.0141636
766.809	0.0142920
766.887	0.0142311
766.965	0.0142606
767.043	0.0142027
767.121	0.0141571
767.200	0.0140961
767.278	0.0140567
767.356	0.0142466
767.434	0.0143118
767.512	0.0141939
767.590	0.0141425
767.668	0.0143304
767.746	0.0140762
767.825	0.0140794
767.903	0.0142586
767.981	0.0141318
768.059	0.0139756
768.137	0.0141812
768.215	0.0141337
768.293	0.0141159
768.371	0.0140208
768.450	0.0140466
768.528	0.0140711
768.606	0.0138710
768.684	0.0139802
768.762	0.0139887
768.840	0.0140919
768.918	0.0140898
768.996	0.0139398
769.075	0.0141224
769.153	0.0141615
769.231	0.0138959
769.309	0.0140758
769.387	0.0140510
769.465	0.0141083
769.543	0.0141122
769.621	0.0140501
769.700	0.0139926
769.778	0.0142744
769.856	0.0141234
769.934	0.0141636
770.012	0.0141601
770.090	0.0142091
770.168	0.0142854
770.246	0.0142329
770.325	0.0141957
770.403	0.0143193
770.481	0.0143552
770.559	0.0141946
770.637	0.0141821
770.715	0.0142104
770.793	0.0141389
770.871	0.0141991
770.950	0.0142618
771.028	0.0143514
771.106	0.0142991
771.184	0.0142294
771.262	0.0141525
771.340	0.0141518
771.418	0.0141547
771.496	0.0140948
771.575	0.0141137
771.653	0.0142493
771.731	0.0142577
771.809	0.0139547
771.887	0.0140197
771.965	0.0140343
772.043	0.0139882
772.121	0.0141032
772.200	0.0139827
772.278	0.0138330
772.356	0.0139635
772.434	0.0140805
772.512	0.0141336
772.590	0.0141153
772.668	0.0139949
772.746	0.0141149
772.825	0.0140180
772.903	0.0140945
772.981	0.0139881
773.059	0.0139790
773.137	0.0139794
773.215	0.0139128
773.293	0.0139080
773.371	0.0140150
773.450	0.0141658
773.528	0.0139827
773.606	0.0138834
773.684	0.0141574
773.762	0.0140332
773.840	0.0141320
773.918	0.0141437
773.996	0.0141573
774.075	0.0142396
774.153	0.0141089
774.231	0.0141901
774.309	0.0142446
774.387	0.0143238
774.465	0.0141826
774.543	0.0142053
774.621	0.0141761
774.700	0.0142361
774.778	0.0143077
774.856	0.0142805
774.934	0.0142295
775.012	0.0142841
775.090	0.0141625
775.168	0.0140763
775.246	0.0142383
775.325	0.0142023
775.403	0.0141243
775.481	0.0141764
775.559	0.0140939
775.637	0.0141860
775.715	0.0140536
775.793	0.0139590
775.871	0.0141168
775.950	0.0141586
776.028	0.0141664
776.106	0.0141158
776.184	0.0140415
776.262	0.0139095
776.340	0.0139176
776.418	0.0140450
776.496	0.0139248
776.575	0.0140017
776.653	0.0140756
776.731	0.0140955
776.809	0.0141074
776.887	0.0139860
776.965	0.0139136
777.043	0.0139852
777.121	0.0142005
777.200	0.0143256
777.278	0.0140506
777.356	0.0140516
777.434	0.0140344
777.512	0.0142239
777.590	0.0141966
777.668	0.0141750
777.746	0.0142847
777.825	0.0142524
777.903	0.0141509
777.981	0.0143307
778.059	0.0143247
778.137	0.0142036
778.215	0.0142010
778.293	0.0142577
778.371	0.0143638
778.450	0.0143486
778.528	0.0142638
778.606	0.0142250
778.684	0.0140981
778.762	0.0142212
778.840	0.0142390
778.918	0.0141004
778.996	0.0140990
779.075	0.0140080
779.153	0.0140913
779.231	0.0141438
779.309	0.0141239
779.387	0.0140067
779.465	0.0139096
779.543	0.0141190
779.621	0.0140737
779.700	0.0140485
779.778	0.0141326
779.856	0.0140512
779.934	0.0140907
780.012	0.0141022
780.090	0.0139722
780.168	0.0140454
780.246	0.0142397
780.325	0.0141426
780.403	0.0140385
780.481	0.0140089
780.559	0.0140207
780.637	0.0140222
780.715	0.0141426
780.793	0.0140975
780.871	0.0140918
780.950	0.0139635
781.028	0.0141257
781.106	0.0140751
781.184	0.0141900
781.262	0.0141396
781.340	0.0141534
781.418	0.0139801
781.496	0.0141663
781.575	0.0141950
781.653	0.0140327
781.731	0.0140711
781.809	0.0141747
781.887	0.0142594
781.965	0.0141457
782.043	0.0142177
782.121	0.0142917
782.200	0.0142368
782.278	0.0144090
782.356	0.0142171
782.434	0.0140810
782.512	0.0142496
782.590	0.0142677
782.668	0.0141531
782.746	0.0141348
782.825	0.0141045
782.903	0.0141640
782.981	0.0142358
783.059	0.0142772
783.137	0.0142981
783.215	0.0141756
783.293	0.0142317
783.371	0.0143370
783.450	0.0141975
783.528	0.0141986
783.606	0.0142120
783.684	0.0142055
783.762	0.0140617
783.840	0.0142062
783.918	0.0141728
783.996	0.0140000
784.075	0.0140739
784.153	0.0141068
784.231	0.0141926
784.309	0.0140440
784.387	0.0140273
784.465	0.0139808
784.543	0.0140141
784.621	0.0140239
784.700	0.0139342
784.778	0.0139990
784.856	0.0140579
784.934	0.0139500
785.012	0.0140833
785.090	0.0140374
785.168	0.0140314
785.246	0.0139526
785.325	0.0139494
785.403	0.0140874
785.481	0.0140534
785.559	0.0139717
785.637	0.0141815
785.715	0.0141708
785.793	0.0140014
785.871	0.0140822
785.950	0.0142155
786.028	0.0142488
786.106	0.0141783
786.184	0.0141732
786.262	0.0142008
786.340	0.0142079
786.418	0.0143552
786.496	0.0142431
786.575	0.0142488
786.653	0.0141716
786.731	0.0142125
786.809	0.0143746
786.887	0.0142802
786.965	0.0142232
787.043	0.0141879
787.121	0.0143758
787.200	0.0142998
787.278	0.0142417
787.356	0.0142863
787.434	0.0142725
787.512	0.0142229
787.590	0.0141470
787.668	0.0141113
787.746	0.0141160
787.825	0.0141388
787.903	0.0142013
787.981	0.0142614
788.059	0.0142060
788.137	0.0140686
788.215	0.0141345
788.293	0.0142021
788.371	0.0142313
788.450	0.0140100
788.528	0.0140858
788.606	0.0141143
788.684	0.0141077
788.762	0.0141249
788.840	0.0140606
788.918	0.0141348
788.996	0.0141134
789.075	0.0140807
789.153	0.0140214
789.231	0.0140160
789.309	0.0140420
789.387	0.0140833
789.465	0.0140789
789.543	0.0139854
789.621	0.0140284
789.700	0.0140153
789.778	0.0140997
789.856	0.0139973
789.934	0.0139780
790.012	0.0141602
790.090	0.0141608
790.168	0.0142097
790.246	0.0141291
790.325	0.0141150
790.403	0.0141021
790.481	0.0142040
790.559	0.0140771
790.637	0.0141764
790.715	0.0141665
790.793	0.0142759
790.871	0.0141875
790.950	0.0140606
791.028	0.0140868
791.106	0.0142329
791.184	0.0142338
791.262	0.0141452
791.340	0.0142787
791.418	0.0141077
791.496	0.0140731
791.575	0.0141485
791.653	0.0141326
791.731	0.0140637
791.809	0.0140062
791.887	0.0139926
791.965	0.0141866
792.043	0.0142035
792.121	0.0141011
792.200	0.0141920
792.278	0.0141816
792.356	0.0141811
792.434	0.0141769
792.512	0.0140832
792.590	0.0141412
792.668	0.0139693
792.746	0.0140609
792.825	0.0140153
792.903	0.0140085
792.981	0.0139674
793.059	0.0141225
793.137	0.0140879
793.215	0.0140503
793.293	0.0141689
793.371	0.0142197
793.450	0.0140678
793.528	0.0141677
793.606	0.0142663
793.684	0.0141280
793.762	0.0141447
793.840	0.0141512
793.918	0.0141662
793.996	0.0142458
794.075	0.0142208
794.153	0.0141050
794.231	0.0142258
794.309	0.0141231
794.387	0.0142089
794.465	0.0141032
794.543	0.0141312
794.621	0.0141796
794.700	0.0141670
794.778	0.0141915
794.856	0.0141898
794.934	0.0140459
795.012	0.0140613
795.090	0.0141505
795.168	0.0141181
795.246	0.0141073
795.325	0.0141833
795.403	0.0141336
795.481	0.0141613
795.559	0.0143878
795.637	0.0142024
795.715	0.0141160
795.793	0.0140047
795.871	0.0140790
795.950	0.0142390
796.028	0.0142876
796.106	0.0142430
796.184	0.0140252
796.262	0.0141155
796.340	0.0141504
796.418	0.0141071
796.496	0.0141295
796.575	0.0140279
796.653	0.0140649
796.731	0.0141158
796.809	0.0140208
796.887	0.0141030
796.965	0.0140672
797.043	0.0140727
797.121	0.0139990
797.200	0.0140458
797.278	0.0142737
797.356	0.0143072
797.434	0.0140154
797.512	0.0141266
797.590	0.0140874
797.668	0.0141392
797.746	0.0143079
797.825	0.0141251
797.903	0.0142319
797.981	0.0142151
798.059	0.0140918
798.137	0.0142518
798.215	0.0142099
798.293	0.0141078
798.371	0.0141447
798.450	0.0141420
798.528	0.0140038
798.606	0.0141684
798.684	0.0142843
798.762	0.0141738
798.840	0.0140678
798.918	0.0141442
798.996	0.0142178
799.075	0.0143245
799.153	0.0141651
799.231	0.0140698
799.309	0.0141160
799.387	0.0140917
799.465	0.0141692
799.543	0.0141328
799.621	0.0142056
799.700	0.0141270
799.778	0.0141431
799.856	0.0142233
799.934	0.0141443
800.012	0.0142672
800.090	0.0142871
800.168	0.0142342
800.246	0.0142355
800.325	0.0141489
800.403	0.0140170
800.481	0.0141811
800.559	0.0142303
800.637	0.0141467
800.715	0.0141438
800.793	0.0141842
800.871	0.0139540
800.950	0.0140920
801.028	0.0140192
801.106	0.0139669
801.184	0.0140503
801.262	0.0140778
801.340	0.0140440
801.418	0.0141353
801.496	0.0140112
801.575	0.0142558
801.653	0.0141071
801.731	0.0141431
801.809	0.0142238
801.887	0.0141888
801.965	0.0141839
802.043	0.0141618
802.121	0.0142024
802.200	0.0142919
802.278	0.0142191
802.356	0.0142503
802.434	0.0141202
802.512	0.0141042
802.590	0.0140894
802.668	0.0140317
802.746	0.0141597
802.825	0.0140328
802.903	0.0140878
802.981	0.0138561
803.059	0.0140230
803.137	0.0141061
803.215	0.0141164
803.293	0.0141366
803.371	0.0141072
803.450	0.0140340
803.528	0.0140323
803.606	0.0140122
803.684	0.0140408
803.762	0.0140891
803.840	0.0141531
803.918	0.0140637
803.996	0.0141297
804.075	0.0142474
804.153	0.0140635
804.231	0.0140824
804.309	0.0140701
804.387	0.0140040
804.465	0.0140620
804.543	0.0141910
804.621	0.0140074
804.700	0.0140734
804.778	0.0141456
804.856	0.0139968
804.934	0.0141503
805.012	0.0140371
805.090	0.0140794
805.168	0.0142310
805.246	0.0141353
805.325	0.0142345
805.403	0.0142789
805.481	0.0140952
805.559	0.0140984
805.637	0.0141600
805.715	0.0141666
805.793	0.0142182
805.871	0.0142515
805.950	0.0142220
806.028	0.0141597
806.106	0.0140996
806.184	0.0141148
806.262	0.0143079
806.340	0.0142175
806.418	0.0140982
806.496	0.0142424
806.575	0.0142358
806.653	0.0141374
806.731	0.0140474
806.809	0.0141923
806.887	0.0141524
806.965	0.0141766
807.043	0.0141265
807.121	0.0142041
807.200	0.0142649
807.278	0.0143405
807.356	0.0141611
807.434	0.0140549
807.512	0.0142039
807.590	0.0141659
807.668	0.0141729
807.746	0.0142207
807.825	0.0142128
807.903	0.0140789
807.981	0.0141770
808.059	0.0139999
808.137	0.0140125
808.215	0.0141656
808.293	0.0141191
808.371	0.0139230
808.450	0.0140917
808.528	0.0141062
808.606	0.0140466
808.684	0.0141357
808.762	0.0140930
808.840	0.0141101
808.918	0.0141478
808.996	0.0141135
809.075	0.0141383
809.153	0.0139648
809.231	0.0141595
809.309	0.0141536
809.387	0.0142187
809.465	0.0142589
809.543	0.0141584
809.621	0.0142473
809.700	0.0140711
809.778	0.0141826
809.856	0.0142667
809.934	0.0141132
810.012	0.0141696
810.090	0.0142814
810.168	0.0141305
810.246	0.0142372
810.325	0.0140222
810.403	0.0140855
810.481	0.0141291
810.559	0.0141350
810.637	0.0141482
810.715	0.0140114
810.793	0.0141055
810.871	0.0140424
810.950	0.0141613
811.028	0.0140079
811.106	0.0141483
811.184	0.0140985
811.262	0.0141091
811.340	0.0140354
811.418	0.0140432
811.496	0.0140309
811.575	0.0139966
811.653	0.0140842
811.731	0.0140971
811.809	0.0141209
811.887	0.0141116
811.965	0.0141009
812.043	0.0140182
812.121	0.0141216
812.200	0.0141591
812.278	0.0139001
812.356	0.0139877
812.434	0.0139351
812.512	0.0139781
812.590	0.0140654
812.668	0.0140059
812.746	0.0140591
812.825	0.0139084
812.903	0.0139493
812.981	0.0140196
813.059	0.0141376
813.137	0.0140305
813.215	0.0140445
813.293	0.0141150
813.371	0.0139549
813.450	0.0141104
813.528	0.0140832
813.606	0.0142735
813.684	0.0142474
813.762	0.0143236
813.840	0.0142041
813.918	0.0141512
813.996	0.0142717
814.075	0.0141886
814.153	0.0141091
814.231	0.0140903
814.309	0.0140530
814.387	0.0142680
814.465	0.0141940
814.543	0.0141352
814.621	0.0140379
814.700	0.0139921
814.778	0.0142113
814.856	0.0140746
814.934	0.0141679
815.012	0.0142145
815.090	0.0141546
815.168	0.0139931
815.246	0.0139722
815.325	0.0140082
815.403	0.0140327
815.481	0.0140198
815.559	0.0141205
815.637	0.0142097
815.715	0.0141431
815.793	0.0140337
815.871	0.0140372
815.950	0.0140954
816.028	0.0140451
816.106	0.0142022
816.184	0.0140712
816.262	0.0140752
816.340	0.0140590
816.418	0.0142318
816.496	0.0141341
816.575	0.0139557
816.653	0.0139982
816.731	0.0140839
816.809	0.0140514
816.887	0.0141099
816.965	0.0140240
817.043	0.0140805
817.121	0.0140769
817.200	0.0140987
817.278	0.0140942
817.356	0.0141485
817.434	0.0141464
817.512	0.0141124
817.590	0.0141299
817.668	0.0140920
817.746	0.0141972
817.825	0.0141871
817.903	0.0140876
817.981	0.0139866
818.059	0.0140229
818.137	0.0141321
818.215	0.0141890
818.293	0.0140959
818.371	0.0142229
818.450	0.0141882
818.528	0.0141911
818.606	0.0139555
818.684	0.0141441
818.762	0.0141127
818.840	0.0141655
818.918	0.0140465
818.996	0.0142746
819.075	0.0142140
819.153	0.0142172
819.231	0.0140642
819.309	0.0141950
819.387	0.0141249
819.465	0.0140515
819.543	0.0141365
819.621	0.0141594
819.700	0.0140614
819.778	0.0142341
819.856	0.0141776
819.934	0.0141769
820.012	0.0141530
820.090	0.0141559
820.168	0.0142130
820.246	0.0141467
820.325	0.0141525
820.403	0.0141757
820.481	0.0140610
820.559	0.0141954
820.637	0.0143475
820.715	0.0142428
820.793	0.0141341
820.871	0.0142456
820.950	0.0141522
821.028	0.0142080
821.106	0.0142872
821.184	0.0140912
821.262	0.0140913
821.340	0.0141907
821.418	0.0142702
821.496	0.0142029
821.575	0.0141353
821.653	0.0141194
821.731	0.0142537
821.809	0.0142307
821.887	0.0142064
821.965	0.0142835
822.043	0.0140694
822.121	0.0141521
822.200	0.0141528
822.278	0.0142245
822.356	0.0140994
822.434	0.0139313
822.512	0.0141378
822.590	0.0141447
822.668	0.0140018
822.746	0.0142120
822.825	0.0141006
822.903	0.0140733
822.981	0.0140850
823.059	0.0141607
823.137	0.0140884
823.215	0.0140960
823.293	0.0141575
823.371	0.0140231
823.450	0.0139541
823.528	0.0141255
823.606	0.0140720
823.684	0.0142010
823.762	0.0141723
823.840	0.0140832
823.918	0.0141111
823.996	0.0141275
824.075	0.0139146
824.153	0.0143404
824.231	0.0142154
824.309	0.0140431
824.387	0.0142342
824.465	0.0141681
824.543	0.0141786
824.621	0.0142220
824.700	0.0140342
824.778	0.0140221
824.856	0.0141488
824.934	0.0140868
825.012	0.0141322
825.090	0.0141882
825.168	0.0143256
825.246	0.0141457
825.325	0.0140512
825.403	0.0141588
825.481	0.0141154
825.559	0.0140634
825.637	0.0141947
825.715	0.0141125
825.793	0.0142495
825.871	0.0141104
825.950	0.0140998
826.028	0.0142396
826.106	0.0141815
826.184	0.0141188
826.262	0.0141616
826.340	0.0140514
826.418	0.0142086
826.496	0.0142311
826.575	0.0142309
826.653	0.0140728
826.731	0.0141759
826.809	0.0141330
826.887	0.0141632
826.965	0.0141090
827.043	0.0140968
827.121	0.0143369
827.200	0.0140968
827.278	0.0141076
827.356	0.0142554
827.434	0.0142313
827.512	0.0142719
827.590	0.0141745
827.668	0.0141810
827.746	0.0141458
827.825	0.0141681
827.903	0.0139613
827.981	0.0140942
828.059	0.0142419
828.137	0.0140308
828.215	0.0140850
828.293	0.0142178
828.371	0.0142379
828.450	0.0139806
828.528	0.0141409
828.606	0.0141342
828.684	0.0141210
828.762	0.0141842
828.840	0.0140937
828.918	0.0140945
828.996	0.0141785
829.075	0.0139944
829.153	0.0140272
829.231	0.0141481
829.309	0.0140829
829.387	0.0141653
829.465	0.0141032
829.543	0.0141253
829.621	0.0140742
829.700	0.0141808
829.778	0.0141761
829.856	0.0140962
829.934	0.0142034
830.012	0.0141336
830.090	0.0140167
830.168	0.0140835
830.246	0.0141467
830.325	0.0142393
830.403	0.0140120
830.481	0.0140293
830.559	0.0139663
830.637	0.0141332
830.715	0.0140483
830.793	0.0140102
830.871	0.0141763
830.950	0.0139100
831.028	0.0140568
831.106	0.0140359
831.184	0.0141068
831.262	0.0140194
831.340	0.0141112
831.418	0.0141058
831.496	0.0143114
831.575	0.0142805
831.653	0.0140479
831.731	0.0143384
831.809	0.0142738
831.887	0.0142627
831.965	0.0142525
832.043	0.0140703
832.121	0.0142718
832.200	0.0140618
832.278	0.0139815
832.356	0.0139912
832.434	0.0138605
832.512	0.0139797
832.590	0.0140596
832.668	0.0141656
832.746	0.0141877
832.825	0.0141599
832.903	0.0139577
832.981	0.0140881
833.059	0.0141171
833.137	0.0141743
833.215	0.0139484
833.293	0.0139565
833.371	0.0141762
833.450	0.0141275
833.528	0.0139739
833.606	0.0139296
833.684	0.0140139
833.762	0.0140092
833.840	0.0139152
833.918	0.0140771
833.996	0.0139983
834.075	0.0141277
834.153	0.0141381
834.231	0.0141199
834.309	0.0139546
834.387	0.0140139
834.465	0.0141739
834.543	0.0140133
834.621	0.0141744
834.700	0.0141082
834.778	0.0141926
834.856	0.0142576
834.934	0.0142092
835.012	0.0141594
835.090	0.0141390
835.168	0.0141492
835.246	0.0140921
835.325	0.0141664
835.403	0.0140977
835.481	0.0141671
835.559	0.0141624
835.637	0.0141230
835.715	0.0140594
835.793	0.0141600
835.871	0.0140743
835.950	0.0140948
836.028	0.0142269
836.106	0.0139492
836.184	0.0139209
836.262	0.0140462
836.340	0.0141911
836.418	0.0140867
836.496	0.0140025
836.575	0.0140530
836.653	0.0140905
836.731	0.0138999
836.809	0.0139918
836.887	0.0140784
836.965	0.0140744
837.043	0.0140800
837.121	0.0140486
837.200	0.0141138
837.278	0.0140997
837.356	0.0140802
837.434	0.0141477
837.512	0.0140688
837.590	0.0141022
837.668	0.0142650
837.746	0.0141349
837.825	0.0141398
837.903	0.0141771
837.981	0.0141357
838.059	0.0141740
838.137	0.0141817
838.215	0.0140483
838.293	0.0141077
838.371	0.0142365
838.450	0.0140304
838.528	0.0140546
838.606	0.0141052
838.684	0.0141367
838.762	0.0141676
838.840	0.0139812
838.918	0.0141647
838.996	0.0142836
839.075	0.0141419
839.153	0.0141539
839.231	0.0140236
839.309	0.0140663
839.387	0.0141408
839.465	0.0141595
839.543	0.0141879
839.621	0.0140936
839.700	0.0141030
839.778	0.0140324
839.856	0.0141320
839.934	0.0142409
840.012	0.0141027
840.090	0.0141032
840.168	0.0141704
840.246	0.0140979
840.325	0.0140454
840.403	0.0142083
840.481	0.0141649
840.559	0.0141583
840.637	0.0141001
840.715	0.0141761
840.793	0.0142698
840.871	0.0141159
840.950	0.0141271
841.028	0.0142051
841.106	0.0142001
841.184	0.0141130
841.262	0.0142002
841.340	0.0141921
841.418	0.0139861
841.496	0.0140154
841.575	0.0140702
841.653	0.0140839
841.731	0.0140948
841.809	0.0141351
841.887	0.0141219
841.965	0.0140815
842.043	0.0141325
842.121	0.0141129
842.200	0.0141209
842.278	0.0141367
842.356	0.0140974
842.434	0.0141681
842.512	0.0140005
842.590	0.0141129
842.668	0.0141821
842.746	0.0141663
842.825	0.0140430
842.903	0.0140442
842.981	0.0142088
843.059	0.0141835
843.137	0.0140929
843.215	0.0141199
843.293	0.0142939
843.371	0.0142299
843.450	0.0142146
843.528	0.0143232
843.606	0.0141703
843.684	0.0140892
843.762	0.0141396
843.840	0.0141786
843.918	0.0141447
843.996	0.0142580
844.075	0.0141211
844.153	0.0141002
844.231	0.0141938
844.309	0.0141172
844.387	0.0142034
844.465	0.0141922
844.543	0.0141216
844.621	0.0140844
844.700	0.0140887
844.778	0.0142443
844.856	0.0141502
844.934	0.0141218
845.012	0.0141899
845.090	0.0141273
845.168	0.0141817
845.246	0.0142010
845.325	0.0141181
845.403	0.0142606
845.481	0.0141193
845.559	0.0141995
845.637	0.0142501
845.715	0.0139498
845.793	0.0142886
845.871	0.0141138
845.950	0.0141993
846.028	0.0141013
846.106	0.0141447
846.184	0.0141325
846.262	0.0140710
846.340	0.0141131
846.418	0.0141434
846.496	0.0141981
846.575	0.0141075
846.653	0.0141759
846.731	0.0142733
846.809	0.0141917
846.887	0.0141003
846.965	0.0142044
847.043	0.0141902
847.121	0.0142129
847.200	0.0142142
847.278	0.0140356
847.356	0.0140148
847.434	0.0140580
847.512	0.0143636
847.590	0.0142732
847.668	0.0142233
847.746	0.0141608
847.825	0.0141926
847.903	0.0141590
847.981	0.0141463
848.059	0.0142616
848.137	0.0140982
848.215	0.0142635
848.293	0.0141851
848.371	0.0140761
848.450	0.0140919
848.528	0.0142262
848.606	0.0142138
848.684	0.0141542
848.762	0.0141714
848.840	0.0141145
848.918	0.0140746
848.996	0.0142659
849.075	0.0142606
849.153	0.0140658
849.231	0.0141007
849.309	0.0140809
849.387	0.0141267
849.465	0.0140867
849.543	0.0140998
849.621	0.0141398
849.700	0.0141552
849.778	0.0143505
849.856	0.0141876
849.934	0.0141114
850.012	0.0142739
850.090	0.0140472
850.168	0.0140332
850.246	0.0142304
850.325	0.0140565
850.403	0.0141385
850.481	0.0141602
850.559	0.0141303
850.637	0.0140401
850.715	0.0141502
850.793	0.0142345
850.871	0.0141207
850.950	0.0141763
851.028	0.0141274
851.106	0.0142264
851.184	0.0141940
851.262	0.0142056
851.340	0.0141390
851.418	0.0140948
851.496	0.0142034
851.575	0.0142042
851.653	0.0141957
851.731	0.0141670
851.809	0.0143520
851.887	0.0142921
851.965	0.0142327
852.043	0.0142551
852.121	0.0141360
852.200	0.0142976
852.278	0.0142298
852.356	0.0142149
852.434	0.0141507
852.512	0.0141641
852.590	0.0141701
852.668	0.0141486
852.746	0.0141502
852.825	0.0141891
852.903	0.0140728
852.981	0.0141656
853.059	0.0141261
853.137	0.0141519
853.215	0.0140372
853.293	0.0140240
853.371	0.0140540
853.450	0.0140327
853.528	0.0139156
853.606	0.0140411
853.684	0.0141241
853.762	0.0140756
853.840	0.0140432
853.918	0.0141337
853.996	0.0139942
854.075	0.0140073
854.153	0.0140747
854.231	0.0140398
854.309	0.0141325
854.387	0.0139519
854.465	0.0141136
854.543	0.0141396
854.621	0.0140302
854.700	0.0141771
854.778	0.0140633
854.856	0.0141801
854.934	0.0141051
855.012	0.0140562
855.090	0.0141325
855.168	0.0140745
855.246	0.0140754
855.325	0.0141139
855.403	0.0141471
855.481	0.0141223
855.559	0.0142085
855.637	0.0141134
855.715	0.0141169
855.793	0.0141524
855.871	0.0141602
855.950	0.0142432
856.028	0.0141201
856.106	0.0140475
856.184	0.0141711
856.262	0.0141511
856.340	0.0142365
856.418	0.0141750
856.496	0.0140573
856.575	0.0142099
856.653	0.0141083
856.731	0.0140394
856.809	0.0141274
856.887	0.0141007
856.965	0.0140797
857.043	0.0141609
857.121	0.0141170
857.200	0.0140158
857.278	0.0141867
857.356	0.0140581
857.434	0.0140830
857.512	0.0140582
857.590	0.0141183
857.668	0.0141137
857.746	0.0140287
857.825	0.0141409
857.903	0.0140544
857.981	0.0141489
858.059	0.0139413
858.137	0.0139636
858.215	0.0140611
858.293	0.0140231
858.371	0.0140434
858.450	0.0140550
858.528	0.0140918
858.606	0.0141193
858.684	0.0141698
858.762	0.0142277
858.840	0.0140179
858.918	0.0141233
858.996	0.0142485
859.075	0.0140966
859.153	0.0141553
859.231	0.0142878
859.309	0.0141898
859.387	0.0141798
859.465	0.0141763
859.543	0.0142097
859.621	0.0142402
859.700	0.0139922
859.778	0.0140928
859.856	0.0140946
859.934	0.0141203
860.012	0.0141676
860.090	0.0140987
860.168	0.0141457
860.246	0.0140702
860.325	0.0141280
860.403	0.0141294
860.481	0.0141245
860.559	0.0141447
860.637	0.0141975
860.715	0.0142030
860.793	0.0141805
860.871	0.0140964
860.950	0.0141458
861.028	0.0142260
861.106	0.0141319
861.184	0.0140182
861.262	0.0141262
861.340	0.0140960
861.418	0.0143322
861.496	0.0143739
861.575	0.0141389
861.653	0.0141050
861.731	0.0142616
861.809	0.0141506
861.887	0.0141783
861.965	0.0142573
862.043	0.0140565
862.121	0.0142683
862.200	0.0142584
862.278	0.0141982
862.356	0.0141998
862.434	0.0142603
862.512	0.0141646
862.590	0.0140948
862.668	0.0142960
862.746	0.0142480
862.825	0.0141302
862.903	0.0140704
862.981	0.0142574
863.059	0.0142173
863.137	0.0141978
863.215	0.0141528
863.293	0.0141582
863.371	0.0141322
863.450	0.0140639
863.528	0.0142424
863.606	0.0141293
863.684	0.0141827
863.762	0.0142049
863.840	0.0142205
863.918	0.0141280
863.996	0.0142317
864.075	0.0141662
864.153	0.0141836
864.231	0.0141669
864.309	0.0141773
864.387	0.0142025
864.465	0.0142448
864.543	0.0141790
864.621	0.0141436
864.700	0.0141742
864.778	0.0141204
864.856	0.0140697
864.934	0.0141486
865.012	0.0140804
865.090	0.0141236
865.168	0.0140964
865.246	0.0139989
865.325	0.0139882
865.403	0.0141280
865.481	0.0141376
865.559	0.0140320
865.637	0.0140825
865.715	0.0140531
865.793	0.0141353
865.871	0.0141783
865.950	0.0140794
866.028	0.0140742
866.106	0.0143338
866.184	0.0139774
866.262	0.0141393
866.340	0.0142225
866.418	0.0141206
866.496	0.0141306
866.575	0.0141831
866.653	0.0141879
866.731	0.0141268
866.809	0.0142183
866.887	0.0142269
866.965	0.0141999
867.043	0.0142836
867.121	0.0142396
867.200	0.0142096
867.278	0.0142410
867.356	0.0143088
867.434	0.0142729
867.512	0.0142995
867.590	0.0141602
867.668	0.0141386
867.746	0.0142509
867.825	0.0141644
867.903	0.0141634
867.981	0.0141464
868.059	0.0142078
868.137	0.0141402
868.215	0.0141406
868.293	0.0140366
868.371	0.0141344
868.450	0.0140810
868.528	0.0141232
868.606	0.0140535
868.684	0.0140320
868.762	0.0141960
868.840	0.0142182
868.918	0.0143284
868.996	0.0140526
869.075	0.0141187
869.153	0.0140436
869.231	0.0141087
869.309	0.0140665
869.387	0.0142603
869.465	0.0141360
869.543	0.0141371
869.621	0.0141388
869.700	0.0141969
869.778	0.0141272
869.856	0.0140434
869.934	0.0142799
870.012	0.0142110
870.090	0.0141174
870.168	0.0141666
870.246	0.0141405
870.325	0.0141732
870.403	0.0142026
870.481	0.0141864
870.559	0.0142162
870.637	0.0142048
870.715	0.0141702
870.793	0.0142892
870.871	0.0142595
870.950	0.0141639
871.028	0.0142238
871.106	0.0142456
871.184	0.0142890
871.262	0.0141253
871.340	0.0142171
871.418	0.0141829
871.496	0.0142822
871.575	0.0140985
871.653	0.0141441
871.731	0.0142539
871.809	0.0141929
871.887	0.0143230
871.965	0.0141206
872.043	0.0140574
872.121	0.0140946
872.200	0.0140775
872.278	0.0141582
872.356	0.0143203
872.434	0.0140549
872.512	0.0141137
872.590	0.0141720
872.668	0.0140768
872.746	0.0140559
872.825	0.0141170
872.903	0.0141936
872.981	0.0141026
873.059	0.0142551
873.137	0.0141186
873.215	0.0140521
873.293	0.0142759
873.371	0.0143167
873.450	0.0142690
873.528	0.0140408
873.606	0.0141260
873.684	0.0143147
873.762	0.0141602
873.840	0.0142850
873.918	0.0141447
873.996	0.0141601
874.075	0.0141721
874.153	0.0141692
874.231	0.0142552
874.309	0.0140459
874.387	0.0139922
874.465	0.0141288
874.543	0.0140694
874.621	0.0141016
874.700	0.0140638
874.778	0.0140670
874.856	0.0141879
874.934	0.0141586
875.012	0.0139748
875.090	0.0141029
875.168	0.0140718
875.246	0.0142181
875.325	0.0143155
875.403	0.0142474
875.481	0.0140434
875.559	0.0142967
875.637	0.0143203
875.715	0.0142628
875.793	0.0142782
875.871	0.0142971
875.950	0.0140989
876.028	0.0141031
876.106	0.0141580
876.184	0.0142236
876.262	0.0141867
876.340	0.0140826
876.418	0.0140969
876.496	0.0142728
876.575	0.0141187
876.653	0.0140224
876.731	0.0140604
876.809	0.0141140
876.887	0.0141631
876.965	0.0141291
877.043	0.0140571
877.121	0.0141596
877.200	0.0143168
877.278	0.0142098
877.356	0.0142534
877.434	0.0142281
877.512	0.0141195
877.590	0.0142405
877.668	0.0142262
877.746	0.0142440
877.825	0.0142525
877.903	0.0141594
877.981	0.0142352
878.059	0.0143006
878.137	0.0140948
878.215	0.0141104
878.293	0.0142294
878.371	0.0142384
878.450	0.0142902
878.528	0.0143067
878.606	0.0141366
878.684	0.0141515
878.762	0.0140981
878.840	0.0142576
878.918	0.0141663
878.996	0.0140560
879.075	0.0141692
879.153	0.0142498
879.231	0.0140843
879.309	0.0140351
879.387	0.0141077
879.465	0.0141461
879.543	0.0141667
879.621	0.0140883
879.700	0.0141698
879.778	0.0142310
879.856	0.0141235
879.934	0.0140868
880.012	0.0141928
880.090	0.0140510
880.168	0.0141597
880.246	0.0142193
880.325	0.0140778
880.403	0.0140154
880.481	0.0142149
880.559	0.0141068
880.637	0.0141019
880.715	0.0140656
880.793	0.0140400
880.871	0.0140998
880.950	0.0141644
881.028	0.0142220
881.106	0.0141495
881.184	0.0141225
881.262	0.0141925
881.340	0.0142316
881.418	0.0141452
881.496	0.0141750
881.575	0.0142035
881.653	0.0141013
881.731	0.0141077
881.809	0.0142596
881.887	0.0140919
881.965	0.0141411
882.043	0.0139692
882.121	0.0141357
882.200	0.0141763
882.278	0.0143048
882.356	0.0142532
882.434	0.0140861
882.512	0.0142184
882.590	0.0140592
882.668	0.0142226
882.746	0.0141881
882.825	0.0141624
882.903	0.0142726
882.981	0.0143189
883.059	0.0142102
883.137	0.0140868
883.215	0.0141610
883.293	0.0142170
883.371	0.0140395
883.450	0.0140695
883.528	0.0141244
883.606	0.0142947
883.684	0.0140755
883.762	0.0141434
883.840	0.0141866
883.918	0.0141624
883.996	0.0141093
884.075	0.0141815
884.153	0.0142876
884.231	0.0138612
884.309	0.0141331
884.387	0.0142320
884.465	0.0141468
884.543	0.0141093
884.621	0.0142053
884.700	0.0141245
884.778	0.0141392
884.856	0.0141190
884.934	0.0141557
885.012	0.0141389
885.090	0.0140903
885.168	0.0141324
885.246	0.0142412
885.325	0.0142975
885.403	0.0140800
885.481	0.0140197
885.559	0.0141592
885.637	0.0142346
885.715	0.0142498
885.793	0.0141520
885.871	0.0141208
885.950	0.0140952
886.028	0.0139906
886.106	0.0141660
886.184	0.0141495
886.262	0.0142458
886.340	0.0142595
886.418	0.0141719
886.496	0.0142873
886.575	0.0141225
886.653	0.0142028
886.731	0.0142749
886.809	0.0142051
886.887	0.0141221
886.965	0.0141641
887.043	0.0141698
887.121	0.0142094
887.200	0.0141829
887.278	0.0140541
887.356	0.0141911
887.434	0.0142346
887.512	0.0141904
887.590	0.0142400
887.668	0.0141210
887.746	0.0142305
887.825	0.0142742
887.903	0.0142235
887.981	0.0143537
888.059	0.0142303
888.137	0.0143288
888.215	0.0141457
888.293	0.0140722
888.371	0.0142221
888.450	0.0143857
888.528	0.0142203
888.606	0.0142479
888.684	0.0143436
888.762	0.0142283
888.840	0.0141518
888.918	0.0140587
888.996	0.0141347
889.075	0.0142119
889.153	0.0142650
889.231	0.0141242
889.309	0.0140364
889.387	0.0141274
889.465	0.0141042
889.543	0.0141569
889.621	0.0143711
889.700	0.0142302
889.778	0.0142776
889.856	0.0142208
889.934	0.0141789
890.012	0.0141169
890.090	0.0141602
890.168	0.0141917
890.246	0.0141761
890.325	0.0142355
890.403	0.0141522
890.481	0.0141810
890.559	0.0142320
890.637	0.0141525
890.715	0.0141279
890.793	0.0140527
890.871	0.0140638
890.950	0.0141164
891.028	0.0139703
891.106	0.0140600
891.184	0.0140420
891.262	0.0142146
891.340	0.0140042
891.418	0.0140868
891.496	0.0140946
891.575	0.0140624
891.653	0.0141724
891.731	0.0140471
891.809	0.0140179
891.887	0.0141712
891.965	0.0141635
892.043	0.0142677
892.121	0.0142310
892.200	0.0141587
892.278	0.0141144
892.356	0.0141595
892.434	0.0142565
892.512	0.0141936
892.590	0.0142956
892.668	0.0141305
892.746	0.0143243
892.825	0.0142889
892.903	0.0140885
892.981	0.0141607
893.059	0.0141145
893.137	0.0138842
893.215	0.0139766
893.293	0.0141518
893.371	0.0141154
893.450	0.0140249
893.528	0.0139605
893.606	0.0140144
893.684	0.0141835
893.762	0.0141286
893.840	0.0139758
893.918	0.0140315
893.996	0.0142867
894.075	0.0141250
894.153	0.0140465
894.231	0.0141261
894.309	0.0141589
894.387	0.0141218
894.465	0.0142445
894.543	0.0143012
894.621	0.0141621
894.700	0.0141377
894.778	0.0141586
894.856	0.0141215
894.934	0.0141340
895.012	0.0139859
895.090	0.0140377
895.168	0.0139921
895.246	0.0142018
895.325	0.0142564
895.403	0.0141259
895.481	0.0141334
895.559	0.0142394
895.637	0.0142512
895.715	0.0141902
895.793	0.0140993
895.871	0.0141323
895.950	0.0142789
896.028	0.0141926
896.106	0.0141642
896.184	0.0141370
896.262	0.0142625
896.340	0.0141476
896.418	0.0140382
896.496	0.0140070
896.575	0.0141283
896.653	0.0142092
896.731	0.0142274
896.809	0.0140672
896.887	0.0140929
896.965	0.0142123
897.043	0.0140923
897.121	0.0141512
897.200	0.0141087
897.278	0.0143071
897.356	0.0141328
897.434	0.0140895
897.512	0.0143272
897.590	0.0143240
897.668	0.0142770
897.746	0.0142210
897.825	0.0141508
897.903	0.0141030
897.981	0.0139359
898.059	0.0140794
898.137	0.0140173
898.215	0.0140119
898.293	0.0140977
898.371	0.0140273
898.450	0.0139635
898.528	0.0141334
898.606	0.0141783
898.684	0.0140419
898.762	0.0141582
898.840	0.0141228
898.918	0.0143507
898.996	0.0142992
899.075	0.0140182
899.153	0.0141418
899.231	0.0141904
899.309	0.0141250
899.387	0.0141491
899.465	0.0141080
899.543	0.0142665
899.621	0.0141159
899.700	0.0140698
899.778	0.0140872
899.856	0.0140691
899.934	0.0140191
900.012	0.0141399
900.090	0.0140861
900.168	0.0140260
900.246	0.0141109
900.325	0.0139919
900.403	0.0139606
900.481	0.0142059
900.559	0.0140923
900.637	0.0143001
900.715	0.0141405
900.793	0.0141800
900.871	0.0144226
900.950	0.0142461
901.028	0.0142540
901.106	0.0141906
901.184	0.0144180
901.262	0.0141998
901.340	0.0141453
901.418	0.0142548
901.496	0.0141641
901.575	0.0141524
901.653	0.0139904
901.731	0.0140887
901.809	0.0139615
901.887	0.0141155
901.965	0.0141139
902.043	0.0140852
902.121	0.0141397
902.200	0.0140813
902.278	0.0140629
902.356	0.0142569
902.434	0.0142475
902.512	0.0141782
902.590	0.0142809
902.668	0.0142280
902.746	0.0142564
902.825	0.0142941
902.903	0.0140276
902.981	0.0142478
903.059	0.0141498
903.137	0.0140782
903.215	0.0141358
903.293	0.0142118
903.371	0.0142916
903.450	0.0141081
903.528	0.0141180
903.606	0.0141908
903.684	0.0141948
903.762	0.0140601
903.840	0.0142284
903.918	0.0140383
903.996	0.0140151
904.075	0.0142947
904.153	0.0142383
904.231	0.0141127
904.309	0.0141286
904.387	0.0142191
904.465	0.0140660
904.543	0.0142297
904.621	0.0140862
904.700	0.0141556
904.778	0.0142931
904.856	0.0141955
904.934	0.0140610
905.012	0.0140669
905.090	0.0140803
905.168	0.0139958
905.246	0.0139880
905.325	0.0140636
905.403	0.0142432
905.481	0.0140352
905.559	0.0140731
905.637	0.0140728
905.715	0.0141567
905.793	0.0141208
905.871	0.0142277
905.950	0.0143206
906.028	0.0142136
906.106	0.0143120
906.184	0.0142847
906.262	0.0141156
906.340	0.0142191
906.418	0.0141399
906.496	0.0138902
906.575	0.0141109
906.653	0.0140137
906.731	0.0139341
906.809	0.0140067
906.887	0.0140079
906.965	0.0139919
907.043	0.0140366
907.121	0.0139931
907.200	0.0139376
907.278	0.0141310
907.356	0.0142566
907.434	0.0140172
907.512	0.0141220
907.590	0.0142168
907.668	0.0142654
907.746	0.0142165
907.825	0.0141246
907.903	0.0141433
907.981	0.0142323
908.059	0.0141921
908.137	0.0142042
908.215	0.0141369
908.293	0.0141303
908.371	0.0141267
908.450	0.0141042
908.528	0.0140625
908.606	0.0141132
908.684	0.0142036
908.762	0.0142181
908.840	0.0141908
908.918	0.0141321
908.996	0.0140764
909.075	0.0140310
909.153	0.0140446
909.231	0.0142133
909.309	0.0141521
909.387	0.0142220
909.465	0.0142175
909.543	0.0140548
909.621	0.0141661
909.700	0.0142035
909.778	0.0141959
909.856	0.0142083
909.934	0.0141597
910.012	0.0140895
910.090	0.0142525
910.168	0.0141145
910.246	0.0141459
910.325	0.0140746
910.403	0.0140234
910.481	0.0139982
910.559	0.0140918
910.637	0.0140872
910.715	0.0142838
910.793	0.0141324
910.871	0.0141946
910.950	0.0140277
911.028	0.0140248
911.106	0.0140359
911.184	0.0141557
911.262	0.0141933
911.340	0.0141754
911.418	0.0140815
911.496	0.0141566
911.575	0.0141409
911.653	0.0141474
911.731	0.0141869
911.809	0.0141008
911.887	0.0141501
911.965	0.0141953
912.043	0.0139214
912.121	0.0141955
912.200	0.0142081
912.278	0.0142085
912.356	0.0141415
912.434	0.0143537
912.512	0.0141950
912.590	0.0141364
912.668	0.0141686
912.746	0.0142723
912.825	0.0142777
912.903	0.0142047
912.981	0.0142536
913.059	0.0141489
913.137	0.0141701
913.215	0.0140813
913.293	0.0142144
913.371	0.0141674
913.450	0.0141987
913.528	0.0140989
913.606	0.0142081
913.684	0.0143215
913.762	0.0142252
913.840	0.0140228
913.918	0.0142136
913.996	0.0142431
914.075	0.0140479
914.153	0.0142049
914.231	0.0142063
914.309	0.0141733
914.387	0.0142961
914.465	0.0142023
914.543	0.0141339
914.621	0.0141434
914.700	0.0142693
914.778	0.0142432
914.856	0.0141890
914.934	0.0141001
915.012	0.0141425
915.090	0.0142626
915.168	0.0140434
915.246	0.0141691
915.325	0.0140639
915.403	0.0141412
915.481	0.0141868
915.559	0.0141178
915.637	0.0141515
915.715	0.0141090
915.793	0.0140145
915.871	0.0140803
915.950	0.0141821
916.028	0.0140800
916.106	0.0141305
916.184	0.0139910
916.262	0.0140858
916.340	0.0141099
916.418	0.0140958
916.496	0.0140155
916.575	0.0141567
916.653	0.0140357
916.731	0.0140852
916.809	0.0141628
916.887	0.0141812
916.965	0.0141460
917.043	0.0140609
917.121	0.0140704
917.200	0.0141843
917.278	0.0140765
917.356	0.0141154
917.434	0.0142899
917.512	0.0141506
917.590	0.0142503
917.668	0.0141579
917.746	0.0142434
917.825	0.0140216
917.903	0.0141563
917.981	0.0141708
918.059	0.0142698
918.137	0.0142410
918.215	0.0143235
918.293	0.0142400
918.371	0.0142270
918.450	0.0141016
918.528	0.0142400
918.606	0.0142143
918.684	0.0139294
918.762	0.0142074
918.840	0.0142227
918.918	0.0143424
918.996	0.0142857
919.075	0.0141653
919.153	0.0142485
919.231	0.0140867
919.309	0.0141476
919.387	0.0142104
919.465	0.0141801
919.543	0.0142390
919.621	0.0142380
919.700	0.0142213
919.778	0.0140443
919.856	0.0142162
919.934	0.0142715
920.012	0.0140538
920.090	0.0140714
920.168	0.0142087
920.246	0.0142748
920.325	0.0140458
920.403	0.0141763
920.481	0.0142329
920.559	0.0142046
920.637	0.0141728
920.715	0.0142395
920.793	0.0140955
920.871	0.0140967
920.950	0.0141006
921.028	0.0141539
921.106	0.0142014
921.184	0.0142880
921.262	0.0140732
921.340	0.0141341
921.418	0.0141279
921.496	0.0141452
921.575	0.0141441
921.653	0.0141136
921.731	0.0140666
921.809	0.0140390
921.887	0.0141885
921.965	0.0139746
922.043	0.0141602
922.121	0.0141740
922.200	0.0141357
922.278	0.0140614
922.356	0.0141011
922.434	0.0141683
922.512	0.0142118
922.590	0.0142365
922.668	0.0140833
922.746	0.0141350
922.825	0.0141074
922.903	0.0141782
922.981	0.0141323
923.059	0.0141436
923.137	0.0141785
923.215	0.0142442
923.293	0.0140880
923.371	0.0141824
923.450	0.0140103
923.528	0.0140319
923.606	0.0141294
923.684	0.0142173
923.762	0.0141834
923.840	0.0141396
923.918	0.0141584
923.996	0.0141476
924.075	0.0140012
924.153	0.0141257
924.231	0.0141038
924.309	0.0140604
924.387	0.0142339
924.465	0.0140804
924.543	0.0141759
924.621	0.0140585
924.700	0.0141432
924.778	0.0141367
924.856	0.0141493
924.934	0.0141254
925.012	0.0141552
925.090	0.0139811
925.168	0.0139515
925.246	0.0141460
925.325	0.0140010
925.403	0.0140440
925.481	0.0140986
925.559	0.0141904
925.637	0.0142709
925.715	0.0140652
925.793	0.0142072
925.871	0.0140833
925.950	0.0139584
926.028	0.0142237
926.106	0.0140748
926.184	0.0139779
926.262	0.0139350
926.340	0.0140460
926.418	0.0140532
926.496	0.0140150
926.575	0.0140639
926.653	0.0141151
926.731	0.0141267
926.809	0.0140237
926.887	0.0140805
926.965	0.0141054
927.043	0.0140226
927.121	0.0141620
927.200	0.0141322
927.278	0.0140561
927.356	0.0141259
927.434	0.0140813
927.512	0.0140514
927.590	0.0140961
927.668	0.0140375
927.746	0.0140076
927.825	0.0141853
927.903	0.0140860
927.981	0.0139744
928.059	0.0141212
928.137	0.0141039
928.215	0.0140743
928.293	0.0141476
928.371	0.0141257
928.450	0.0141101
928.528	0.0141055
928.606	0.0141039
928.684	0.0139952
928.762	0.0142337
928.840	0.0139946
928.918	0.0142199
928.996	0.0140420
929.075	0.0141209
929.153	0.0142755
929.231	0.0140717
929.309	0.0139341
929.387	0.0140562
929.465	0.0142291
929.543	0.0141425
929.621	0.0140486
929.700	0.0141283
929.778	0.0141010
929.856	0.0141350
929.934	0.0141189
930.012	0.0140163
930.090	0.0141259
930.168	0.0141383
930.246	0.0141848
930.325	0.0141247
930.403	0.0140350
930.481	0.0140282
930.559	0.0141541
930.637	0.0141018
930.715	0.0139898
930.793	0.0139758
930.871	0.0140496
930.950	0.0140862
931.028	0.0138976
931.106	0.0140292
931.184	0.0140698
931.262	0.0140498
931.340	0.0140686
931.418	0.0141178
931.496	0.0139616
931.575	0.0140332
931.653	0.0142285
931.731	0.0142029
931.809	0.0140801
931.887	0.0141013
931.965	0.0139444
932.043	0.0140670
932.121	0.0140090
932.200	0.0141723
932.278	0.0140621
932.356	0.0142162
932.434	0.0141374
932.512	0.0141067
932.590	0.0142104
932.668	0.0142879
932.746	0.0140982
932.825	0.0141185
932.903	0.0141213
932.981	0.0140279
933.059	0.0140141
933.137	0.0140421
933.215	0.0140845
933.293	0.0140445
933.371	0.0141859
933.450	0.0140303
933.528	0.0139557
933.606	0.0140854
933.684	0.0141819
933.762	0.0140947
933.840	0.0141750
933.918	0.0140408
933.996	0.0142811
934.075	0.0143280
934.153	0.0142413
934.231	0.0142912
934.309	0.0142187
934.387	0.0141180
934.465	0.0141865
934.543	0.0141311
934.621	0.0142141
934.700	0.0140614
934.778	0.0141750
934.856	0.0141852
934.934	0.0141735
935.012	0.0142392
935.090	0.0142995
935.168	0.0142578
935.246	0.0142680
935.325	0.0142134
935.403	0.0141859
935.481	0.0141850
935.559	0.0140688
935.637	0.0142220
935.715	0.0142979
935.793	0.0143542
935.871	0.0141376
935.950	0.0141908
936.028	0.0141965
936.106	0.0142619
936.184	0.0141475
936.262	0.0141352
936.340	0.0142614
936.418	0.0142450
936.496	0.0139748
936.575	0.0141240
936.653	0.0143089
936.731	0.0141393
936.809	0.0141210
936.887	0.0141123
936.965	0.0141712
937.043	0.0141724
937.121	0.0140989
937.200	0.0140489
937.278	0.0141476
937.356	0.0141164
937.434	0.0141411
937.512	0.0142066
937.590	0.0142085
937.668	0.0141618
937.746	0.0141413
937.825	0.0141892
937.903	0.0141854
937.981	0.0143513
938.059	0.0144065
938.137	0.0141206
938.215	0.0143451
938.293	0.0142701
938.371	0.0142622
938.450	0.0141352
938.528	0.0141399
938.606	0.0142143
938.684	0.0142412
938.762	0.0143239
938.840	0.0142528
938.918	0.0141293
938.996	0.0140768
939.075	0.0142402
939.153	0.0142780
939.231	0.0142474
939.309	0.0142603
939.387	0.0143210
939.465	0.0141837
939.543	0.0142077
939.621	0.0141982
939.700	0.0141496
939.778	0.0142639
939.856	0.0142505
939.934	0.0143399
940.012	0.0142438
940.090	0.0141165
940.168	0.0142234
940.246	0.0142329
940.325	0.0141608
940.403	0.0142558
940.481	0.0142079
940.559	0.0140751
940.637	0.0140466
940.715	0.0143916
940.793	0.0142178
940.871	0.0143010
940.950	0.0141973
941.028	0.0139813
941.106	0.0143994
941.184	0.0141729
941.262	0.0141810
941.340	0.0143198
941.418	0.0142744
941.496	0.0142177
941.575	0.0142768
941.653	0.0142631
941.731	0.0143849
941.809	0.0142286
941.887	0.0141718
941.965	0.0142167
942.043	0.0141613
942.121	0.0141203
942.200	0.0143372
942.278	0.0141451
942.356	0.0141111
942.434	0.0140577
942.512	0.0140485
942.590	0.0140910
942.668	0.0141258
942.746	0.0142719
942.825	0.0141587
942.903	0.0140244
942.981	0.0140785
943.059	0.0141631
943.137	0.0141304
943.215	0.0141678
943.293	0.0142240
943.371	0.0140874
943.450	0.0141443
943.528	0.0141180
943.606	0.0141209
943.684	0.0142418
943.762	0.0142313
943.840	0.0141424
943.918	0.0140610
943.996	0.0141036
944.075	0.0142524
944.153	0.0141731
944.231	0.0141447
944.309	0.0140990
944.387	0.0140771
944.465	0.0140711
944.543	0.0141959
944.621	0.0141692
944.700	0.0141171
944.778	0.0139677
944.856	0.0141650
944.934	0.0142793
945.012	0.0140849
945.090	0.0141341
945.168	0.0140616
945.246	0.0141940
945.325	0.0141570
945.403	0.0141582
945.481	0.0142013
945.559	0.0140430
945.637	0.0142183
945.715	0.0141373
945.793	0.0141365
945.871	0.0141507
945.950	0.0141647
946.028	0.0141759
946.106	0.0141528
946.184	0.0142252
946.262	0.0141670
946.340	0.0141266
946.418	0.0139835
946.496	0.0140818
946.575	0.0141028
946.653	0.0142448
946.731	0.0142250
946.809	0.0141219
946.887	0.0142261
946.965	0.0140177
947.043	0.0142824
947.121	0.0140842
947.200	0.0142471
947.278	0.0142487
947.356	0.0141903
947.434	0.0141934
947.512	0.0140902
947.590	0.0141930
947.668	0.0142643
947.746	0.0140824
947.825	0.0142439
947.903	0.0141949
947.981	0.0141183
948.059	0.0141102
948.137	0.0141571
948.215	0.0140987
948.293	0.0141438
948.371	0.0140368
948.450	0.0141692
948.528	0.0140781
948.606	0.0141318
948.684	0.0140477
948.762	0.0140864
948.840	0.0140646
948.918	0.0140990
948.996	0.0142100
949.075	0.0141349
949.153	0.0141945
949.231	0.0140317
949.309	0.0141132
949.387	0.0142173
949.465	0.0140762
949.543	0.0142368
949.621	0.0141442
949.700	0.0140671
949.778	0.0143201
949.856	0.0141895
949.934	0.0143166
950.012	0.0142145
950.090	0.0140603
950.168	0.0141126
950.246	0.0140284
950.325	0.0141068
950.403	0.0139673
950.481	0.0141705
950.559	0.0140939
950.637	0.0140981
950.715	0.0140810
950.793	0.0140376
950.871	0.0139928
950.950	0.0140623
951.028	0.0141594
951.106	0.0142074
951.184	0.0140809
951.262	0.0141176
951.340	0.0140740
951.418	0.0141093
951.496	0.0142686
951.575	0.0141930
951.653	0.0141357
951.731	0.0140798
951.809	0.0140586
951.887	0.0141945
951.965	0.0141867
952.043	0.0141813
952.121	0.0141943
952.200	0.0142619
952.278	0.0141912
952.356	0.0141254
952.434	0.0142020
952.512	0.0140729
952.590	0.0141245
952.668	0.0141238
952.746	0.0141881
952.825	0.0141601
952.903	0.0141330
952.981	0.0140911
953.059	0.0140783
953.137	0.0141715
953.215	0.0141453
953.293	0.0141833
953.371	0.0141995
953.450	0.0141178
953.528	0.0142759
953.606	0.0140877
953.684	0.0140588
953.762	0.0140823
953.840	0.0140860
953.918	0.0140854
953.996	0.0141801
954.075	0.0140340
954.153	0.0140291
954.231	0.0140268
954.309	0.0140011
954.387	0.0141260
954.465	0.0141505
954.543	0.0140970
954.621	0.0141505
954.700	0.0139957
954.778	0.0141099
954.856	0.0141080
954.934	0.0141402
955.012	0.0142429
955.090	0.0139776
955.168	0.0140649
955.246	0.0140919
955.325	0.0141690
955.403	0.0141616
955.481	0.0139815
955.559	0.0142216
955.637	0.0140926
955.715	0.0139604
955.793	0.0140553
955.871	0.0141656
955.950	0.0140895
956.028	0.0140837
956.106	0.0140121
956.184	0.0141146
956.262	0.0139657
956.340	0.0140660
956.418	0.0140527
956.496	0.0141424
956.575	0.0141882
956.653	0.0139510
956.731	0.0140327
956.809	0.0141109
956.887	0.0140681
956.965	0.0139830
957.043	0.0141703
957.121	0.0142104
957.200	0.0141998
957.278	0.0141462
957.356	0.0140769
957.434	0.0141597
957.512	0.0141900
957.590	0.0140893
957.668	0.0141040
957.746	0.0142119
957.825	0.0141297
957.903	0.0141863
957.981	0.0141824
958.059	0.0141191
958.137	0.0141164
958.215	0.0141678
958.293	0.0141083
958.371	0.0140503
958.450	0.0139713
958.528	0.0142281
958.606	0.0143179
958.684	0.0142059
958.762	0.0141854
958.840	0.0142430
958.918	0.0141208
958.996	0.0141516
959.075	0.0141745
959.153	0.0141077
959.231	0.0142506
959.309	0.0141045
959.387	0.0140986
959.465	0.0142303
959.543	0.0141626
959.621	0.0140415
959.700	0.0141835
959.778	0.0140758
959.856	0.0140057
959.934	0.0141319
960.012	0.0141209
960.090	0.0141112
960.168	0.0140675
960.246	0.0141718
960.325	0.0141111
960.403	0.0141122
960.481	0.0141131
960.559	0.0141449
960.637	0.0141431
960.715	0.0142105
960.793	0.0142299
960.871	0.0141119
960.950	0.0141633
961.028	0.0142683
961.106	0.0141479
961.184	0.0141586
961.262	0.0140881
961.340	0.0142588
961.418	0.0141065
961.496	0.0141514
961.575	0.0141129
961.653	0.0142233
961.731	0.0141947
961.809	0.0142218
961.887	0.0142197
961.965	0.0142480
962.043	0.0141672
962.121	0.0143076
962.200	0.0141566
962.278	0.0141451
962.356	0.0141667
962.434	0.0141601
962.512	0.0141299
962.590	0.0142603
962.668	0.0141396
962.746	0.0143089
962.825	0.0141907
962.903	0.0142178
962.981	0.0141614
963.059	0.0141059
963.137	0.0142715
963.215	0.0140553
963.293	0.0141110
963.371	0.0141110
963.450	0.0140385
963.528	0.0140349
963.606	0.0140117
963.684	0.0141018
963.762	0.0141081
963.840	0.0140892
963.918	0.0142374
963.996	0.0142136
964.075	0.0142417
964.153	0.0141100
964.231	0.0142215
964.309	0.0142623
964.387	0.0143081
964.465	0.0141740
964.543	0.0141708
964.621	0.0142842
964.700	0.0144524
964.778	0.0143546
964.856	0.0142181
964.934	0.0142655
965.012	0.0141338
965.090	0.0141840
965.168	0.0141030
965.246	0.0140800
965.325	0.0142564
965.403	0.0141865
965.481	0.0142410
965.559	0.0139539
965.637	0.0140984
965.715	0.0140823
965.793	0.0140339
965.871	0.0140478
965.950	0.0141611
966.028	0.0142004
966.106	0.0142152
966.184	0.0140736
966.262	0.0141049
966.340	0.0141103
966.418	0.0142399
966.496	0.0142814
966.575	0.0142035
966.653	0.0143573
966.731	0.0142000
966.809	0.0142887
966.887	0.0143094
966.965	0.0143720
967.043	0.0142298
967.121	0.0142877
967.200	0.0142857
967.278	0.0142015
967.356	0.0142691
967.434	0.0142091
967.512	0.0141794
967.590	0.0142001
967.668	0.0141113
967.746	0.0141960
967.825	0.0142259
967.903	0.0142497
967.981	0.0142004
968.059	0.0141475
968.137	0.0143040
968.215	0.0142974
968.293	0.0141402
968.371	0.0140466
968.450	0.0141771
968.528	0.0142142
968.606	0.0142960
968.684	0.0142090
968.762	0.0141479
968.840	0.0141602
968.918	0.0140968
968.996	0.0140379
969.075	0.0142386
969.153	0.0141237
969.231	0.0140570
969.309	0.0141852
969.387	0.0140961
969.465	0.0140335
969.543	0.0142626
969.621	0.0141098
969.700	0.0140759
969.778	0.0140414
969.856	0.0141344
969.934	0.0141930
970.012	0.0143039
970.090	0.0141031
970.168	0.0140552
970.246	0.0141828
970.325	0.0141893
970.403	0.0141181
970.481	0.0141495
970.559	0.0142520
970.637	0.0143485
970.715	0.0143256
970.793	0.0142237
970.871	0.0141273
970.950	0.0142618
971.028	0.0141590
971.106	0.0141499
971.184	0.0140266
971.262	0.0141825
971.340	0.0140459
971.418	0.0141320
971.496	0.0140235
971.575	0.0140988
971.653	0.0141539
971.731	0.0139043
971.809	0.0138760
971.887	0.0139995
971.965	0.0140248
972.043	0.0140864
972.121	0.0141474
972.200	0.0141174
972.278	0.0142032
972.356	0.0141705
972.434	0.0141076
972.512	0.0142107
972.590	0.0140936
972.668	0.0141624
972.746	0.0141676
972.825	0.0141728
972.903	0.0143192
972.981	0.0142258
973.059	0.0140912
973.137	0.0140597
973.215	0.0142833
973.293	0.0142712
973.371	0.0141324
973.450	0.0141444
973.528	0.0141773
973.606	0.0142490
973.684	0.0140961
973.762	0.0141432
973.840	0.0141786
973.918	0.0140757
973.996	0.0140010
974.075	0.0140916
974.153	0.0139670
974.231	0.0140836
974.309	0.0141730
974.387	0.0141641
974.465	0.0140502
974.543	0.0139788
974.621	0.0140578
974.700	0.0141331
974.778	0.0141170
974.856	0.0141879
974.934	0.0141354
975.012	0.0142027
975.090	0.0140325
975.168	0.0142120
975.246	0.0142068
975.325	0.0140943
975.403	0.0140582
975.481	0.0140507
975.559	0.0142516
975.637	0.0140321
975.715	0.0141818
975.793	0.0141101
975.871	0.0141200
975.950	0.0141384
976.028	0.0141373
976.106	0.0141838
976.184	0.0141907
976.262	0.0140913
976.340	0.0142359
976.418	0.0142175
976.496	0.0141636
976.575	0.0140495
976.653	0.0140737
976.731	0.0140681
976.809	0.0140346
976.887	0.0141601
976.965	0.0141402
977.043	0.0140837
977.121	0.0139898
977.200	0.0140451
977.278	0.0139947
977.356	0.0141173
977.434	0.0141927
977.512	0.0141388
977.590	0.0140486
977.668	0.0140451
977.746	0.0141346
977.825	0.0140121
977.903	0.0141190
977.981	0.0142747
978.059	0.0140797
978.137	0.0141118
978.215	0.0142799
978.293	0.0142561
978.371	0.0141798
978.450	0.0141863
978.528	0.0143339
978.606	0.0142567
978.684	0.0142316
978.762	0.0141457
978.840	0.0141158
978.918	0.0142172
978.996	0.0141264
979.075	0.0141322
979.153	0.0139639
979.231	0.0140469
979.309	0.0141301
979.387	0.0140068
979.465	0.0141438
979.543	0.0140639
979.621	0.0139132
979.700	0.0139738
979.778	0.0140701
979.856	0.0139220
979.934	0.0141077
980.012	0.0139632
980.090	0.0140775
980.168	0.0139275
980.246	0.0140351
980.325	0.0141339
980.403	0.0140633
980.481	0.0140788
980.559	0.0140222
980.637	0.0140985
980.715	0.0142190
980.793	0.0142261
980.871	0.0141270
980.950	0.0141705
981.028	0.0143821
981.106	0.0142140
981.184	0.0142516
981.262	0.0141545
981.340	0.0140802
981.418	0.0141662
981.496	0.0141213
981.575	0.0142243
981.653	0.0141647
981.731	0.0141750
981.809	0.0139680
981.887	0.0139207
981.965	0.0142068
982.043	0.0141000
982.121	0.0141264
982.200	0.0141370
982.278	0.0140720
982.356	0.0140691
982.434	0.0140997
982.512	0.0141861
982.590	0.0142072
982.668	0.0141859
982.746	0.0142223
982.825	0.0141331
982.903	0.0143224
982.981	0.0140335
983.059	0.0141263
983.137	0.0141970
983.215	0.0141686
983.293	0.0141896
983.371	0.0139555
983.450	0.0140642
983.528	0.0141213
983.606	0.0141570
983.684	0.0139633
983.762	0.0141547
983.840	0.0141712
983.918	0.0140472
983.996	0.0139671
984.075	0.0141552
984.153	0.0140267
984.231	0.0140250
984.309	0.0139519
984.387	0.0142231
984.465	0.0142194
984.543	0.0141518
984.621	0.0141108
984.700	0.0142673
984.778	0.0142232
984.856	0.0141225
984.934	0.0141676
985.012	0.0140759
985.090	0.0141832
985.168	0.0140681
985.246	0.0141101
985.325	0.0143035
985.403	0.0141681
985.481	0.0140234
985.559	0.0140340
985.637	0.0141654
985.715	0.0140168
985.793	0.0140987
985.871	0.0138957
985.950	0.0140686
986.028	0.0141845
986.106	0.0140382
986.184	0.0140160
986.262	0.0140929
986.340	0.0141464
986.418	0.0140137
986.496	0.0140879
986.575	0.0140436
986.653	0.0139624
986.731	0.0140809
986.809	0.0141669
986.887	0.0141150
986.965	0.0140942
987.043	0.0140900
987.121	0.0140435
987.200	0.0140197
987.278	0.0139722
987.356	0.0141216
987.434	0.0141866
987.512	0.0141169
987.590	0.0141035
987.668	0.0141446
987.746	0.0142064
987.825	0.0140829
987.903	0.0142064
987.981	0.0142066
988.059	0.0141119
988.137	0.0141929
988.215	0.0143604
988.293	0.0141223
988.371	0.0141383
988.450	0.0141953
988.528	0.0141962
988.606	0.0142024
988.684	0.0140162
988.762	0.0140782
988.840	0.0141776
988.918	0.0141549
988.996	0.0141289
989.075	0.0141424
989.153	0.0141563
989.231	0.0140611
989.309	0.0141512
989.387	0.0140977
989.465	0.0141750
989.543	0.0141750
989.621	0.0140620
989.700	0.0140228
989.778	0.0142377
989.856	0.0140678
989.934	0.0141074
990.012	0.0141938
990.090	0.0141232
990.168	0.0141808
990.246	0.0140519
990.325	0.0140199
990.403	0.0140675
990.481	0.0142827
990.559	0.0140936
990.637	0.0142357
990.715	0.0143055
990.793	0.0142293
990.871	0.0141413
990.950	0.0143269
991.028	0.0144034
991.106	0.0142260
991.184	0.0140855
991.262	0.0141124
991.340	0.0141240
991.418	0.0142247
991.496	0.0141353
991.575	0.0142965
991.653	0.0142007
991.731	0.0140838
991.809	0.0141596
991.887	0.0142663
991.965	0.0142612
992.043	0.0141659
992.121	0.0142485
992.200	0.0141885
992.278	0.0139939
992.356	0.0142201
992.434	0.0141282
992.512	0.0142260
992.590	0.0141506
992.668	0.0141689
992.746	0.0141119
992.825	0.0140673
992.903	0.0139467
992.981	0.0140726
993.059	0.0140643
993.137	0.0141359
993.215	0.0140925
993.293	0.0140716
993.371	0.0141272
993.450	0.0141434
993.528	0.0140872
993.606	0.0142564
993.684	0.0141788
993.762	0.0141551
993.840	0.0142381
993.918	0.0142202
993.996	0.0142912
994.075	0.0141928
994.153	0.0141204
994.231	0.0142033
994.309	0.0142339
994.387	0.0141505
994.465	0.0141341
994.543	0.0140534
994.621	0.0142559
994.700	0.0141398
994.778	0.0141260
994.856	0.0142028
994.934	0.0141331
995.012	0.0141441
995.090	0.0140714
995.168	0.0140883
995.246	0.0141586
995.325	0.0140959
995.403	0.0141208
995.481	0.0140256
995.559	0.0141280
995.637	0.0139724
995.715	0.0140316
995.793	0.0139230
995.871	0.0139923
995.950	0.0140099
996.028	0.0141099
996.106	0.0140623
996.184	0.0140306
996.262	0.0140746
996.340	0.0139705
996.418	0.0140505
996.496	0.0140570
996.575	0.0141688
996.653	0.0141480
996.731	0.0142599
996.809	0.0141769
996.887	0.0141322
996.965	0.0142672
997.043	0.0142479
997.121	0.0140123
997.200	0.0140972
997.278	0.0142542
997.356	0.0143127
997.434	0.0142955
997.512	0.0141485
997.590	0.0141351
997.668	0.0140479
997.746	0.0142485
997.825	0.0141974
997.903	0.0142407
997.981	0.0142718
998.059	0.0141553
998.137	0.0140743
998.215	0.0142527
998.293	0.0143836
998.371	0.0142037
998.450	0.0141512
998.528	0.0141399
998.606	0.0141714
998.684	0.0141814
998.762	0.0142112
998.840	0.0140831
998.918	0.0141424
