05/04/2022	21:19:08	Ver.	4.1	UNKNOWN
Optical Delay	678.996401	Delta X		0.078125	Sweeps	1	Scan Rate	0/0
Coordinates	Axis 1	NaN	Axis 2	NaN	Axis 3	NaN	Axis 4	NaN	Axis 5	NaN	Axis 6	0.000000
TX Power	0.000000	RX Power	0.000000

678.996	0.0144128
679.075	0.0146172
679.153	0.0146753
679.231	0.0147068
679.309	0.0145547
679.387	0.0145900
679.465	0.0146021
679.543	0.0144307
679.621	0.0145688
679.700	0.0145502
679.778	0.0145386
679.856	0.0143304
679.934	0.0143904
680.012	0.0142075
680.090	0.0143342
680.168	0.0142802
680.246	0.0141753
680.325	0.0142163
680.403	0.0144518
680.481	0.0144134
680.559	0.0144216
680.637	0.0144417
680.715	0.0143591
680.793	0.0143906
680.871	0.0144050
680.950	0.0144830
681.028	0.0144653
681.106	0.0144843
681.184	0.0144933
681.262	0.0143906
681.340	0.0144290
681.418	0.0144348
681.496	0.0143300
681.575	0.0143818
681.653	0.0143542
681.731	0.0144563
681.809	0.0144289
681.887	0.0144191
681.965	0.0143681
682.043	0.0144096
682.121	0.0144794
682.200	0.0147475
682.278	0.0147114
682.356	0.0147557
682.434	0.0146860
682.512	0.0146006
682.590	0.0146587
682.668	0.0146602
682.746	0.0145561
682.825	0.0145547
682.903	0.0146531
682.981	0.0144812
683.059	0.0143623
683.137	0.0142585
683.215	0.0140928
683.293	0.0142545
683.371	0.0142246
683.450	0.0141367
683.528	0.0143275
683.606	0.0142719
683.684	0.0143227
683.762	0.0143730
683.840	0.0144434
683.918	0.0144704
683.996	0.0145345
684.075	0.0145681
684.153	0.0146980
684.231	0.0145690
684.309	0.0147647
684.387	0.0146385
684.465	0.0146715
684.543	0.0145007
684.621	0.0147215
684.700	0.0146457
684.778	0.0145453
684.856	0.0145396
684.934	0.0146594
685.012	0.0144302
685.090	0.0143829
685.168	0.0144612
685.246	0.0144214
685.325	0.0143926
685.403	0.0143539
685.481	0.0142117
685.559	0.0144044
685.637	0.0142664
685.715	0.0143024
685.793	0.0143459
685.871	0.0144795
685.950	0.0143895
686.028	0.0144005
686.106	0.0144125
686.184	0.0145592
686.262	0.0145725
686.340	0.0144878
686.418	0.0144637
686.496	0.0147362
686.575	0.0145961
686.653	0.0145855
686.731	0.0146405
686.809	0.0144197
686.887	0.0146300
686.965	0.0144926
687.043	0.0145024
687.121	0.0144440
687.200	0.0143732
687.278	0.0144433
687.356	0.0143222
687.434	0.0144389
687.512	0.0144596
687.590	0.0143568
687.668	0.0143246
687.746	0.0142879
687.825	0.0143500
687.903	0.0144747
687.981	0.0144253
688.059	0.0144444
688.137	0.0145068
688.215	0.0144585
688.293	0.0144122
688.371	0.0145499
688.450	0.0146218
688.528	0.0146113
688.606	0.0145866
688.684	0.0145255
688.762	0.0144497
688.840	0.0144508
688.918	0.0144273
688.996	0.0143142
689.075	0.0144467
689.153	0.0145287
689.231	0.0143581
689.309	0.0144780
689.387	0.0143247
689.465	0.0144521
689.543	0.0142979
689.621	0.0143972
689.700	0.0144044
689.778	0.0143327
689.856	0.0143553
689.934	0.0142796
690.012	0.0144936
690.090	0.0143163
690.168	0.0143442
690.246	0.0145559
690.325	0.0144343
690.403	0.0143780
690.481	0.0144175
690.559	0.0145445
690.637	0.0145166
690.715	0.0145434
690.793	0.0146951
690.871	0.0146163
690.950	0.0145824
691.028	0.0146748
691.106	0.0146154
691.184	0.0145255
691.262	0.0145840
691.340	0.0144411
691.418	0.0145885
691.496	0.0145068
691.575	0.0144041
691.653	0.0143369
691.731	0.0144283
691.809	0.0143501
691.887	0.0143996
691.965	0.0142432
692.043	0.0143350
692.121	0.0142129
692.200	0.0143600
692.278	0.0143716
692.356	0.0144296
692.434	0.0144764
692.512	0.0144374
692.590	0.0143116
692.668	0.0143296
692.746	0.0144476
692.825	0.0145240
692.903	0.0143806
692.981	0.0145479
693.059	0.0145120
693.137	0.0144668
693.215	0.0144968
693.293	0.0143056
693.371	0.0145542
693.450	0.0144888
693.528	0.0143850
693.606	0.0145541
693.684	0.0144840
693.762	0.0144328
693.840	0.0144919
693.918	0.0144479
693.996	0.0143184
694.075	0.0143668
694.153	0.0144526
694.231	0.0144595
694.309	0.0143747
694.387	0.0143452
694.465	0.0143427
694.543	0.0143993
694.621	0.0144144
694.700	0.0144260
694.778	0.0144157
694.856	0.0142854
694.934	0.0142139
695.012	0.0142991
695.090	0.0141012
695.168	0.0141891
695.246	0.0142466
695.325	0.0142990
695.403	0.0143948
695.481	0.0143008
695.559	0.0142946
695.637	0.0143196
695.715	0.0145290
695.793	0.0145518
695.871	0.0145243
695.950	0.0145241
696.028	0.0145103
696.106	0.0144939
696.184	0.0144822
696.262	0.0144464
696.340	0.0143868
696.418	0.0143320
696.496	0.0142704
696.575	0.0142537
696.653	0.0142466
696.731	0.0142046
696.809	0.0140579
696.887	0.0142602
696.965	0.0142676
697.043	0.0143471
697.121	0.0142980
697.200	0.0142081
697.278	0.0143347
697.356	0.0145315
697.434	0.0144918
697.512	0.0146341
697.590	0.0147017
697.668	0.0146284
697.746	0.0148167
697.825	0.0146234
697.903	0.0144876
697.981	0.0143407
698.059	0.0143740
698.137	0.0141251
698.215	0.0141936
698.293	0.0141499
698.371	0.0141560
698.450	0.0141501
698.528	0.0143577
698.606	0.0145404
698.684	0.0146327
698.762	0.0147511
698.840	0.0147462
698.918	0.0147433
698.996	0.0145544
699.075	0.0145216
699.153	0.0144456
699.231	0.0141623
699.309	0.0140950
699.387	0.0140662
699.465	0.0138150
699.543	0.0138301
699.621	0.0139613
699.700	0.0139984
699.778	0.0141930
699.856	0.0142530
699.934	0.0144450
700.012	0.0143942
700.090	0.0145792
700.168	0.0146809
700.246	0.0147123
700.325	0.0146941
700.403	0.0149216
700.481	0.0148912
700.559	0.0150279
700.637	0.0149683
700.715	0.0148110
700.793	0.0145405
700.871	0.0145891
700.950	0.0142217
701.028	0.0139237
701.106	0.0137845
701.184	0.0136115
701.262	0.0134755
701.340	0.0135979
701.418	0.0139042
701.496	0.0143721
701.575	0.0146181
701.653	0.0147279
701.731	0.0149309
701.809	0.0152437
701.887	0.0153593
701.965	0.0151138
702.043	0.0148569
702.121	0.0146872
702.200	0.0144027
702.278	0.0139581
702.356	0.0137844
702.434	0.0136961
702.512	0.0135172
702.590	0.0135509
702.668	0.0137224
702.746	0.0137941
702.825	0.0139191
702.903	0.0143162
702.981	0.0145329
703.059	0.0149004
703.137	0.0151263
703.215	0.0153761
703.293	0.0155441
703.371	0.0154839
703.450	0.0152312
703.528	0.0152396
703.606	0.0150330
703.684	0.0146723
703.762	0.0144605
703.840	0.0141386
703.918	0.0140127
703.996	0.0138770
704.075	0.0135881
704.153	0.0134172
704.231	0.0133035
704.309	0.0135142
704.387	0.0136816
704.465	0.0137646
704.543	0.0142146
704.621	0.0148177
704.700	0.0149481
704.778	0.0153422
704.856	0.0154826
704.934	0.0154687
705.012	0.0154086
705.090	0.0152668
705.168	0.0150054
705.246	0.0147585
705.325	0.0146160
705.403	0.0143535
705.481	0.0139712
705.559	0.0139194
705.637	0.0138969
705.715	0.0138040
705.793	0.0138577
705.871	0.0140116
705.950	0.0141088
706.028	0.0142751
706.106	0.0144445
706.184	0.0146008
706.262	0.0145798
706.340	0.0145921
706.418	0.0146954
706.496	0.0147653
706.575	0.0148705
706.653	0.0149759
706.731	0.0148853
706.809	0.0148333
706.887	0.0147543
706.965	0.0144738
707.043	0.0144019
707.121	0.0143750
707.200	0.0142827
707.278	0.0141481
707.356	0.0140329
707.434	0.0141404
707.512	0.0141761
707.590	0.0143328
707.668	0.0144083
707.746	0.0145001
707.825	0.0146745
707.903	0.0146334
707.981	0.0147684
708.059	0.0148130
708.137	0.0148508
708.215	0.0146486
708.293	0.0145514
708.371	0.0146569
708.450	0.0144892
708.528	0.0144228
708.606	0.0142587
708.684	0.0142016
708.762	0.0141699
708.840	0.0141221
708.918	0.0140660
708.996	0.0140403
709.075	0.0141717
709.153	0.0142928
709.231	0.0143459
709.309	0.0144182
709.387	0.0145524
709.465	0.0145438
709.543	0.0147529
709.621	0.0149480
709.700	0.0149152
709.778	0.0149294
709.856	0.0150624
709.934	0.0149950
710.012	0.0149174
710.090	0.0148385
710.168	0.0148755
710.246	0.0147635
710.325	0.0145657
710.403	0.0142346
710.481	0.0142415
710.559	0.0140946
710.637	0.0139802
710.715	0.0138544
710.793	0.0138124
710.871	0.0136939
710.950	0.0136191
711.028	0.0138037
711.106	0.0140623
711.184	0.0141460
711.262	0.0143005
711.340	0.0146459
711.418	0.0147350
711.496	0.0149107
711.575	0.0151135
711.653	0.0150957
711.731	0.0150980
711.809	0.0149075
711.887	0.0147073
711.965	0.0145500
712.043	0.0144301
712.121	0.0143884
712.200	0.0139453
712.278	0.0139351
712.356	0.0139578
712.434	0.0137751
712.512	0.0137272
712.590	0.0137502
712.668	0.0138544
712.746	0.0139053
712.825	0.0140810
712.903	0.0141723
712.981	0.0142948
713.059	0.0143195
713.137	0.0145950
713.215	0.0148798
713.293	0.0150281
713.371	0.0153051
713.450	0.0154137
713.528	0.0154778
713.606	0.0154626
713.684	0.0154660
713.762	0.0151979
713.840	0.0151279
713.918	0.0147292
713.996	0.0144432
714.075	0.0142663
714.153	0.0139167
714.231	0.0136293
714.309	0.0134100
714.387	0.0132804
714.465	0.0133820
714.543	0.0134650
714.621	0.0135778
714.700	0.0139403
714.778	0.0141642
714.856	0.0142846
714.934	0.0146802
715.012	0.0150073
715.090	0.0150653
715.168	0.0151147
715.246	0.0151160
715.325	0.0152832
715.403	0.0152205
715.481	0.0150762
715.559	0.0149485
715.637	0.0146567
715.715	0.0144405
715.793	0.0141956
715.871	0.0140954
715.950	0.0136990
716.028	0.0137428
716.106	0.0136574
716.184	0.0135054
716.262	0.0136753
716.340	0.0137628
716.418	0.0138050
716.496	0.0137838
716.575	0.0141326
716.653	0.0141183
716.731	0.0141911
716.809	0.0143266
716.887	0.0144381
716.965	0.0144323
717.043	0.0144803
717.121	0.0147175
717.200	0.0147466
717.278	0.0147764
717.356	0.0149198
717.434	0.0150116
717.512	0.0150353
717.590	0.0151750
717.668	0.0152522
717.746	0.0151897
717.825	0.0149613
717.903	0.0148678
717.981	0.0145801
718.059	0.0147321
718.137	0.0144103
718.215	0.0143327
718.293	0.0141180
718.371	0.0140353
718.450	0.0138924
718.528	0.0137337
718.606	0.0138846
718.684	0.0138337
718.762	0.0138789
718.840	0.0140089
718.918	0.0141081
718.996	0.0142277
719.075	0.0142176
719.153	0.0142554
719.231	0.0144109
719.309	0.0144298
719.387	0.0145825
719.465	0.0146753
719.543	0.0148248
719.621	0.0147916
719.700	0.0146933
719.778	0.0144458
719.856	0.0143743
719.934	0.0143290
720.012	0.0142743
720.090	0.0142065
720.168	0.0140735
720.246	0.0141690
720.325	0.0142114
720.403	0.0142560
720.481	0.0140662
720.559	0.0143110
720.637	0.0143922
720.715	0.0144927
720.793	0.0145354
720.871	0.0145805
720.950	0.0148010
721.028	0.0147570
721.106	0.0147190
721.184	0.0147550
721.262	0.0148798
721.340	0.0147633
721.418	0.0146887
721.496	0.0147969
721.575	0.0148100
721.653	0.0146915
721.731	0.0146287
721.809	0.0146279
721.887	0.0145649
721.965	0.0144478
722.043	0.0146272
722.121	0.0145487
722.200	0.0145887
722.278	0.0143343
722.356	0.0143117
722.434	0.0141471
722.512	0.0140623
722.590	0.0139273
722.668	0.0138528
722.746	0.0138032
722.825	0.0137743
722.903	0.0137012
722.981	0.0137383
723.059	0.0138702
723.137	0.0138474
723.215	0.0139767
723.293	0.0142491
723.371	0.0143483
723.450	0.0145640
723.528	0.0147658
723.606	0.0147762
723.684	0.0151585
723.762	0.0149226
723.840	0.0149950
723.918	0.0149997
723.996	0.0149112
724.075	0.0148444
724.153	0.0146471
724.231	0.0145610
724.309	0.0143922
724.387	0.0142119
724.465	0.0141591
724.543	0.0142915
724.621	0.0141211
724.700	0.0141277
724.778	0.0142224
724.856	0.0141400
724.934	0.0142802
725.012	0.0145899
725.090	0.0146753
725.168	0.0148013
725.246	0.0148196
725.325	0.0147517
725.403	0.0148013
725.481	0.0147064
725.559	0.0147063
725.637	0.0146377
725.715	0.0144741
725.793	0.0145268
725.871	0.0145065
725.950	0.0144873
726.028	0.0142824
726.106	0.0142947
726.184	0.0142290
726.262	0.0143497
726.340	0.0143267
726.418	0.0143456
726.496	0.0143250
726.575	0.0143214
726.653	0.0144375
726.731	0.0144216
726.809	0.0144155
726.887	0.0143780
726.965	0.0143140
727.043	0.0143742
727.121	0.0142970
727.200	0.0142070
727.278	0.0143189
727.356	0.0143487
727.434	0.0145010
727.512	0.0142844
727.590	0.0144017
727.668	0.0146442
727.746	0.0145329
727.825	0.0144747
727.903	0.0145560
727.981	0.0145754
728.059	0.0146297
728.137	0.0145918
728.215	0.0145757
728.293	0.0146535
728.371	0.0145976
728.450	0.0145947
728.528	0.0145430
728.606	0.0144612
728.684	0.0142950
728.762	0.0143244
728.840	0.0143357
728.918	0.0144681
728.996	0.0143307
729.075	0.0143346
729.153	0.0144818
729.231	0.0143098
729.309	0.0144475
729.387	0.0144341
729.465	0.0144006
729.543	0.0143774
729.621	0.0143977
729.700	0.0143693
729.778	0.0143919
729.856	0.0144514
729.934	0.0143591
730.012	0.0145524
730.090	0.0145145
730.168	0.0145448
730.246	0.0145740
730.325	0.0146201
730.403	0.0146288
730.481	0.0145430
730.559	0.0146499
730.637	0.0145948
730.715	0.0145258
730.793	0.0144773
730.871	0.0143328
730.950	0.0143732
731.028	0.0143832
731.106	0.0140628
731.184	0.0142191
731.262	0.0144672
731.340	0.0143328
731.418	0.0143121
731.496	0.0145609
731.575	0.0145343
731.653	0.0146273
731.731	0.0145170
731.809	0.0146776
731.887	0.0146809
731.965	0.0147812
732.043	0.0147784
732.121	0.0147728
732.200	0.0147195
732.278	0.0147261
732.356	0.0146716
732.434	0.0145120
732.512	0.0144054
732.590	0.0143962
732.668	0.0143558
732.746	0.0144464
732.825	0.0143421
732.903	0.0143106
732.981	0.0140858
733.059	0.0140137
733.137	0.0141711
733.215	0.0143021
733.293	0.0141267
733.371	0.0140482
733.450	0.0143220
733.528	0.0143865
733.606	0.0142555
733.684	0.0142649
733.762	0.0143778
733.840	0.0143662
733.918	0.0145131
733.996	0.0146400
734.075	0.0148489
734.153	0.0147745
734.231	0.0146002
734.309	0.0146890
734.387	0.0147794
734.465	0.0147536
734.543	0.0148144
734.621	0.0148148
734.700	0.0146964
734.778	0.0146072
734.856	0.0144926
734.934	0.0144147
735.012	0.0142468
735.090	0.0140942
735.168	0.0141375
735.246	0.0142081
735.325	0.0141333
735.403	0.0141227
735.481	0.0143343
735.559	0.0144637
735.637	0.0145787
735.715	0.0145193
735.793	0.0146294
735.871	0.0146198
735.950	0.0145996
736.028	0.0146416
736.106	0.0147712
736.184	0.0146647
736.262	0.0145437
736.340	0.0144645
736.418	0.0144077
736.496	0.0144329
736.575	0.0143452
736.653	0.0144016
736.731	0.0142973
736.809	0.0142373
736.887	0.0140289
736.965	0.0141174
737.043	0.0141956
737.121	0.0139141
737.200	0.0138680
737.278	0.0140533
737.356	0.0139347
737.434	0.0141842
737.512	0.0141668
737.590	0.0142129
737.668	0.0142076
737.746	0.0142789
737.825	0.0143194
737.903	0.0145901
737.981	0.0144258
738.059	0.0145568
738.137	0.0147840
738.215	0.0146261
738.293	0.0145165
738.371	0.0147071
738.450	0.0147800
738.528	0.0145770
738.606	0.0146220
738.684	0.0148064
738.762	0.0147572
738.840	0.0146948
738.918	0.0146355
738.996	0.0146442
739.075	0.0145413
739.153	0.0146183
739.231	0.0145332
739.309	0.0147138
739.387	0.0145646
739.465	0.0144162
739.543	0.0145234
739.621	0.0145951
739.700	0.0145133
739.778	0.0144179
739.856	0.0143071
739.934	0.0144372
740.012	0.0145380
740.090	0.0142892
740.168	0.0141547
740.246	0.0143130
740.325	0.0143559
740.403	0.0143094
740.481	0.0142087
740.559	0.0141630
740.637	0.0142358
740.715	0.0141180
740.793	0.0141618
740.871	0.0142099
740.950	0.0142544
741.028	0.0142001
741.106	0.0142510
741.184	0.0143488
741.262	0.0144090
741.340	0.0144969
741.418	0.0144250
741.496	0.0143983
741.575	0.0145206
741.653	0.0145098
741.731	0.0144125
741.809	0.0144282
741.887	0.0144765
741.965	0.0144991
742.043	0.0144176
742.121	0.0143058
742.200	0.0143769
742.278	0.0143552
742.356	0.0144376
742.434	0.0143076
742.512	0.0143134
742.590	0.0142757
742.668	0.0143498
742.746	0.0143232
742.825	0.0143444
742.903	0.0142543
742.981	0.0144188
743.059	0.0145707
743.137	0.0146243
743.215	0.0146915
743.293	0.0147963
743.371	0.0147530
743.450	0.0149030
743.528	0.0148826
743.606	0.0148544
743.684	0.0147826
743.762	0.0146871
743.840	0.0147771
743.918	0.0146525
743.996	0.0147089
744.075	0.0146008
744.153	0.0145039
744.231	0.0145529
744.309	0.0145628
744.387	0.0144860
744.465	0.0143891
744.543	0.0143241
744.621	0.0143369
744.700	0.0142721
744.778	0.0144078
744.856	0.0143228
744.934	0.0142232
745.012	0.0140300
745.090	0.0141525
745.168	0.0141141
745.246	0.0141582
745.325	0.0142550
745.403	0.0142552
745.481	0.0143734
745.559	0.0143398
745.637	0.0143459
745.715	0.0144211
745.793	0.0143993
745.871	0.0143505
745.950	0.0144582
746.028	0.0144830
746.106	0.0145109
746.184	0.0147253
746.262	0.0145465
746.340	0.0146322
746.418	0.0144724
746.496	0.0146697
746.575	0.0148225
746.653	0.0144151
746.731	0.0144641
746.809	0.0146004
746.887	0.0145058
746.965	0.0143812
747.043	0.0144745
747.121	0.0143176
747.200	0.0143580
747.278	0.0142527
747.356	0.0143768
747.434	0.0145860
747.512	0.0144775
747.590	0.0145890
747.668	0.0145717
747.746	0.0145162
747.825	0.0145963
747.903	0.0145950
747.981	0.0147418
748.059	0.0146027
748.137	0.0146044
748.215	0.0145968
748.293	0.0147294
748.371	0.0146407
748.450	0.0146584
748.528	0.0146619
748.606	0.0144733
748.684	0.0146005
748.762	0.0147079
748.840	0.0145408
748.918	0.0143856
748.996	0.0144705
749.075	0.0145783
749.153	0.0143542
749.231	0.0143450
749.309	0.0142320
749.387	0.0142748
749.465	0.0142168
749.543	0.0141937
749.621	0.0141972
749.700	0.0143694
749.778	0.0142161
749.856	0.0142271
749.934	0.0141032
750.012	0.0143713
750.090	0.0144123
750.168	0.0142689
750.246	0.0143218
750.325	0.0144291
750.403	0.0144521
750.481	0.0145213
750.559	0.0145323
750.637	0.0145467
750.715	0.0144560
750.793	0.0145502
750.871	0.0146904
750.950	0.0146458
751.028	0.0145287
751.106	0.0145864
751.184	0.0146278
751.262	0.0146069
751.340	0.0144736
751.418	0.0144374
751.496	0.0145261
751.575	0.0145871
751.653	0.0145632
751.731	0.0144374
751.809	0.0144579
751.887	0.0145151
751.965	0.0145444
752.043	0.0144515
752.121	0.0143791
752.200	0.0145010
752.278	0.0144636
752.356	0.0145167
752.434	0.0144207
752.512	0.0143416
752.590	0.0143761
752.668	0.0141393
752.746	0.0141868
752.825	0.0143487
752.903	0.0143001
752.981	0.0142648
753.059	0.0143320
753.137	0.0142026
753.215	0.0141946
753.293	0.0143608
753.371	0.0143310
753.450	0.0143099
753.528	0.0141693
753.606	0.0141875
753.684	0.0144008
753.762	0.0143470
753.840	0.0141500
753.918	0.0144070
753.996	0.0143188
754.075	0.0143700
754.153	0.0144193
754.231	0.0142902
754.309	0.0144994
754.387	0.0143915
754.465	0.0144979
754.543	0.0144522
754.621	0.0142650
754.700	0.0143292
754.778	0.0143734
754.856	0.0143970
754.934	0.0145171
755.012	0.0145042
755.090	0.0145321
755.168	0.0145099
755.246	0.0143737
755.325	0.0146004
755.403	0.0145818
755.481	0.0146264
755.559	0.0145664
755.637	0.0145945
755.715	0.0146256
755.793	0.0147213
755.871	0.0147283
755.950	0.0145847
756.028	0.0145284
756.106	0.0144677
756.184	0.0145001
756.262	0.0144905
756.340	0.0144639
756.418	0.0144061
756.496	0.0143190
756.575	0.0142923
756.653	0.0142271
756.731	0.0143374
756.809	0.0143257
756.887	0.0143520
756.965	0.0143040
757.043	0.0141928
757.121	0.0142740
757.200	0.0143137
757.278	0.0142490
757.356	0.0141689
757.434	0.0141853
757.512	0.0142075
757.590	0.0142738
757.668	0.0142990
757.746	0.0143164
757.825	0.0144019
757.903	0.0142694
757.981	0.0142361
758.059	0.0142797
758.137	0.0143502
758.215	0.0142015
758.293	0.0143438
758.371	0.0143771
758.450	0.0145412
758.528	0.0144862
758.606	0.0143414
758.684	0.0143378
758.762	0.0144405
758.840	0.0145232
758.918	0.0145336
758.996	0.0143726
759.075	0.0146136
759.153	0.0145281
759.231	0.0146569
759.309	0.0145168
759.387	0.0146587
759.465	0.0145139
759.543	0.0143660
759.621	0.0144232
759.700	0.0146413
759.778	0.0144975
759.856	0.0144585
759.934	0.0144545
760.012	0.0144680
760.090	0.0144202
760.168	0.0145335
760.246	0.0143992
760.325	0.0143440
760.403	0.0143629
760.481	0.0145455
760.559	0.0143903
760.637	0.0145051
760.715	0.0144192
760.793	0.0142760
760.871	0.0143710
760.950	0.0143641
761.028	0.0143884
761.106	0.0144819
761.184	0.0144198
761.262	0.0144312
761.340	0.0143665
761.418	0.0142910
761.496	0.0143568
761.575	0.0144509
761.653	0.0141795
761.731	0.0143004
761.809	0.0143548
761.887	0.0142947
761.965	0.0144456
762.043	0.0143069
762.121	0.0143784
762.200	0.0143398
762.278	0.0144502
762.356	0.0144183
762.434	0.0143941
762.512	0.0145413
762.590	0.0145882
762.668	0.0145998
762.746	0.0145586
762.825	0.0145110
762.903	0.0145620
762.981	0.0144849
763.059	0.0147118
763.137	0.0146226
763.215	0.0144778
763.293	0.0145626
763.371	0.0147163
763.450	0.0146872
763.528	0.0147348
763.606	0.0145273
763.684	0.0144736
763.762	0.0145274
763.840	0.0143994
763.918	0.0145829
763.996	0.0145845
764.075	0.0146474
764.153	0.0145395
764.231	0.0144628
764.309	0.0146049
764.387	0.0145430
764.465	0.0143773
764.543	0.0144476
764.621	0.0143958
764.700	0.0143663
764.778	0.0142087
764.856	0.0144335
764.934	0.0145309
765.012	0.0143759
765.090	0.0141807
765.168	0.0142381
765.246	0.0145300
765.325	0.0143007
765.403	0.0142178
765.481	0.0143630
765.559	0.0144183
765.637	0.0142484
765.715	0.0142774
765.793	0.0142953
765.871	0.0144172
765.950	0.0143414
766.028	0.0143187
766.106	0.0143003
766.184	0.0142817
766.262	0.0145304
766.340	0.0143403
766.418	0.0144776
766.496	0.0145741
766.575	0.0145594
766.653	0.0147427
766.731	0.0145835
766.809	0.0145837
766.887	0.0145924
766.965	0.0146014
767.043	0.0145392
767.121	0.0145718
767.200	0.0145966
767.278	0.0147013
767.356	0.0146387
767.434	0.0145852
767.512	0.0145068
767.590	0.0145609
767.668	0.0146387
767.746	0.0145006
767.825	0.0145659
767.903	0.0146031
767.981	0.0146124
768.059	0.0144541
768.137	0.0146059
768.215	0.0146023
768.293	0.0143668
768.371	0.0145736
768.450	0.0145728
768.528	0.0144203
768.606	0.0144244
768.684	0.0144246
768.762	0.0143801
768.840	0.0143304
768.918	0.0144322
768.996	0.0143915
769.075	0.0143176
769.153	0.0142914
769.231	0.0143039
769.309	0.0142617
769.387	0.0142097
769.465	0.0143207
769.543	0.0142777
769.621	0.0141718
769.700	0.0142496
769.778	0.0143771
769.856	0.0142753
769.934	0.0143404
770.012	0.0143479
770.090	0.0142297
770.168	0.0144337
770.246	0.0143789
770.325	0.0144229
770.403	0.0144485
770.481	0.0142753
770.559	0.0143037
770.637	0.0144859
770.715	0.0146252
770.793	0.0145089
770.871	0.0144853
770.950	0.0144632
771.028	0.0144067
771.106	0.0144788
771.184	0.0144019
771.262	0.0145584
771.340	0.0146300
771.418	0.0144874
771.496	0.0144961
771.575	0.0145807
771.653	0.0144435
771.731	0.0144145
771.809	0.0144510
771.887	0.0145033
771.965	0.0145651
772.043	0.0146479
772.121	0.0146101
772.200	0.0144858
772.278	0.0145241
772.356	0.0146722
772.434	0.0145782
772.512	0.0144725
772.590	0.0145810
772.668	0.0144006
772.746	0.0144196
772.825	0.0143460
772.903	0.0143201
772.981	0.0144734
773.059	0.0143011
773.137	0.0143977
773.215	0.0143021
773.293	0.0142886
773.371	0.0144380
773.450	0.0143529
773.528	0.0142880
773.606	0.0144138
773.684	0.0143439
773.762	0.0142850
773.840	0.0143319
773.918	0.0145020
773.996	0.0144017
774.075	0.0143215
774.153	0.0144218
774.231	0.0144189
774.309	0.0143614
774.387	0.0143790
774.465	0.0145187
774.543	0.0144660
774.621	0.0144907
774.700	0.0144913
774.778	0.0145566
774.856	0.0144810
774.934	0.0144419
775.012	0.0145204
775.090	0.0145224
775.168	0.0144090
775.246	0.0146127
775.325	0.0145837
775.403	0.0144872
775.481	0.0145368
775.559	0.0145130
775.637	0.0144493
775.715	0.0144421
775.793	0.0143890
775.871	0.0144171
775.950	0.0144257
776.028	0.0144501
776.106	0.0143365
776.184	0.0144347
776.262	0.0144815
776.340	0.0144759
776.418	0.0144405
776.496	0.0143701
776.575	0.0143439
776.653	0.0144628
776.731	0.0144219
776.809	0.0143913
776.887	0.0143989
776.965	0.0145003
777.043	0.0144614
777.121	0.0144303
777.200	0.0144093
777.278	0.0143694
777.356	0.0143453
777.434	0.0142752
777.512	0.0142849
777.590	0.0143565
777.668	0.0144206
777.746	0.0142970
777.825	0.0144109
777.903	0.0143948
777.981	0.0144191
778.059	0.0144009
778.137	0.0143892
778.215	0.0142072
778.293	0.0143916
778.371	0.0144225
778.450	0.0143942
778.528	0.0143408
778.606	0.0143908
778.684	0.0144254
778.762	0.0144612
778.840	0.0144390
778.918	0.0144302
778.996	0.0144180
779.075	0.0145686
779.153	0.0146349
779.231	0.0145695
779.309	0.0146283
779.387	0.0143655
779.465	0.0145374
779.543	0.0144790
779.621	0.0145647
779.700	0.0145008
779.778	0.0144319
779.856	0.0145785
779.934	0.0144022
780.012	0.0144884
780.090	0.0145717
780.168	0.0145499
780.246	0.0144545
780.325	0.0144247
780.403	0.0145094
780.481	0.0144394
780.559	0.0143822
780.637	0.0145079
780.715	0.0144884
780.793	0.0144332
780.871	0.0144119
780.950	0.0144547
781.028	0.0144308
781.106	0.0144142
781.184	0.0144873
781.262	0.0144296
781.340	0.0142510
781.418	0.0141012
781.496	0.0143322
781.575	0.0144035
781.653	0.0143218
781.731	0.0144664
781.809	0.0144662
781.887	0.0144843
781.965	0.0144289
782.043	0.0145352
782.121	0.0145256
782.200	0.0144714
782.278	0.0146252
782.356	0.0145847
782.434	0.0147626
782.512	0.0145776
782.590	0.0146038
782.668	0.0146191
782.746	0.0145939
782.825	0.0147248
782.903	0.0147222
782.981	0.0145794
783.059	0.0145335
783.137	0.0146545
783.215	0.0147198
783.293	0.0146274
783.371	0.0146955
783.450	0.0146696
783.528	0.0146388
783.606	0.0144207
783.684	0.0144835
783.762	0.0146398
783.840	0.0145246
783.918	0.0146838
783.996	0.0145351
784.075	0.0147121
784.153	0.0145538
784.231	0.0146330
784.309	0.0146412
784.387	0.0146304
784.465	0.0146056
784.543	0.0145787
784.621	0.0144917
784.700	0.0145984
784.778	0.0145197
784.856	0.0146492
784.934	0.0146654
785.012	0.0143810
785.090	0.0143725
785.168	0.0144737
785.246	0.0143912
785.325	0.0144465
785.403	0.0143333
785.481	0.0143413
785.559	0.0143826
785.637	0.0143748
785.715	0.0143494
785.793	0.0143506
785.871	0.0143420
785.950	0.0143799
786.028	0.0142273
786.106	0.0142806
786.184	0.0143756
786.262	0.0144603
786.340	0.0144654
786.418	0.0143285
786.496	0.0144065
786.575	0.0145844
786.653	0.0144448
786.731	0.0144919
786.809	0.0144756
786.887	0.0145116
786.965	0.0145503
787.043	0.0144420
787.121	0.0145134
787.200	0.0147354
787.278	0.0145323
787.356	0.0145580
787.434	0.0145246
787.512	0.0144842
787.590	0.0145630
787.668	0.0146667
787.746	0.0145475
787.825	0.0143437
787.903	0.0143307
787.981	0.0145108
788.059	0.0145599
788.137	0.0145787
788.215	0.0144854
788.293	0.0144130
788.371	0.0144445
788.450	0.0144186
788.528	0.0145030
788.606	0.0145681
788.684	0.0143533
788.762	0.0143915
788.840	0.0143629
788.918	0.0143320
788.996	0.0143966
789.075	0.0144615
789.153	0.0143864
789.231	0.0144848
789.309	0.0144768
789.387	0.0143571
789.465	0.0142169
789.543	0.0142996
789.621	0.0143764
789.700	0.0143015
789.778	0.0144049
789.856	0.0143388
789.934	0.0145010
790.012	0.0144302
790.090	0.0144485
790.168	0.0144357
790.246	0.0143208
790.325	0.0143945
790.403	0.0143402
790.481	0.0144050
790.559	0.0145010
790.637	0.0145448
790.715	0.0146342
790.793	0.0145158
790.871	0.0145466
790.950	0.0144446
791.028	0.0145552
791.106	0.0144817
791.184	0.0144506
791.262	0.0144264
791.340	0.0144633
791.418	0.0146339
791.496	0.0145211
791.575	0.0147044
791.653	0.0144675
791.731	0.0144907
791.809	0.0145860
791.887	0.0145695
791.965	0.0144428
792.043	0.0146334
792.121	0.0146044
792.200	0.0146304
792.278	0.0145154
792.356	0.0144450
792.434	0.0145359
792.512	0.0145167
792.590	0.0143701
792.668	0.0143902
792.746	0.0144273
792.825	0.0144281
792.903	0.0143024
792.981	0.0144481
793.059	0.0144100
793.137	0.0143856
793.215	0.0144537
793.293	0.0145818
793.371	0.0144324
793.450	0.0143627
793.528	0.0144848
793.606	0.0143774
793.684	0.0142902
793.762	0.0145167
793.840	0.0144764
793.918	0.0144631
793.996	0.0142744
794.075	0.0143078
794.153	0.0144685
794.231	0.0144241
794.309	0.0143626
794.387	0.0143389
794.465	0.0144900
794.543	0.0144669
794.621	0.0144296
794.700	0.0145242
794.778	0.0144090
794.856	0.0145311
794.934	0.0144627
795.012	0.0145412
795.090	0.0145267
795.168	0.0144949
795.246	0.0144195
795.325	0.0144798
795.403	0.0144454
795.481	0.0143413
795.559	0.0143249
795.637	0.0143599
795.715	0.0142667
795.793	0.0141227
795.871	0.0142927
795.950	0.0143324
796.028	0.0143247
796.106	0.0144353
796.184	0.0143705
796.262	0.0145113
796.340	0.0143562
796.418	0.0143868
796.496	0.0144959
796.575	0.0144261
796.653	0.0144282
796.731	0.0145334
796.809	0.0144045
796.887	0.0143864
796.965	0.0144412
797.043	0.0145063
797.121	0.0144830
797.200	0.0144013
797.278	0.0143314
797.356	0.0142478
797.434	0.0142789
797.512	0.0143647
797.590	0.0143352
797.668	0.0143385
797.746	0.0144984
797.825	0.0143668
797.903	0.0143548
797.981	0.0143081
798.059	0.0143386
798.137	0.0144447
798.215	0.0144307
798.293	0.0144268
798.371	0.0143385
798.450	0.0143314
798.528	0.0144084
798.606	0.0144514
798.684	0.0144412
798.762	0.0145766
798.840	0.0145533
798.918	0.0146773
798.996	0.0145294
799.075	0.0145993
799.153	0.0146790
799.231	0.0144997
799.309	0.0145961
799.387	0.0145629
799.465	0.0144993
799.543	0.0145274
799.621	0.0144019
799.700	0.0144099
799.778	0.0145024
799.856	0.0144697
799.934	0.0143304
800.012	0.0144081
800.090	0.0144030
800.168	0.0142989
800.246	0.0143627
800.325	0.0142442
800.403	0.0144106
800.481	0.0144111
800.559	0.0143610
800.637	0.0143258
800.715	0.0143294
800.793	0.0143128
800.871	0.0144569
800.950	0.0143881
801.028	0.0143059
801.106	0.0143450
801.184	0.0143919
801.262	0.0144498
801.340	0.0144267
801.418	0.0144069
801.496	0.0143571
801.575	0.0143091
801.653	0.0144297
801.731	0.0143108
801.809	0.0143635
801.887	0.0143365
801.965	0.0143680
802.043	0.0143044
802.121	0.0142995
802.200	0.0142802
802.278	0.0145103
802.356	0.0145705
802.434	0.0146332
802.512	0.0146215
802.590	0.0145586
802.668	0.0143999
802.746	0.0145543
802.825	0.0145198
802.903	0.0145075
802.981	0.0145072
803.059	0.0145215
803.137	0.0145016
803.215	0.0145274
803.293	0.0145883
803.371	0.0145984
803.450	0.0146725
803.528	0.0144238
803.606	0.0145030
803.684	0.0145715
803.762	0.0145393
803.840	0.0144666
803.918	0.0144413
803.996	0.0144952
804.075	0.0144189
804.153	0.0144299
804.231	0.0144519
804.309	0.0145707
804.387	0.0143660
804.465	0.0143520
804.543	0.0145059
804.621	0.0145197
804.700	0.0144868
804.778	0.0144821
804.856	0.0144843
804.934	0.0145002
805.012	0.0143311
805.090	0.0145022
805.168	0.0145517
805.246	0.0144556
805.325	0.0145411
805.403	0.0144842
805.481	0.0144662
805.559	0.0144612
805.637	0.0145580
805.715	0.0144826
805.793	0.0145152
805.871	0.0145973
805.950	0.0145898
806.028	0.0144972
806.106	0.0145941
806.184	0.0144018
806.262	0.0144950
806.340	0.0145784
806.418	0.0144214
806.496	0.0144696
806.575	0.0143542
806.653	0.0144849
806.731	0.0144622
806.809	0.0144014
806.887	0.0145142
806.965	0.0144378
807.043	0.0146418
807.121	0.0144645
807.200	0.0144708
807.278	0.0144308
807.356	0.0143606
807.434	0.0143053
807.512	0.0144083
807.590	0.0145957
807.668	0.0144411
807.746	0.0143735
807.825	0.0144131
807.903	0.0144847
807.981	0.0143771
808.059	0.0144070
808.137	0.0144304
808.215	0.0145578
808.293	0.0144943
808.371	0.0144852
808.450	0.0144224
808.528	0.0144395
808.606	0.0144296
808.684	0.0145808
808.762	0.0145927
808.840	0.0145912
808.918	0.0145318
808.996	0.0143687
809.075	0.0143348
809.153	0.0146146
809.231	0.0144489
809.309	0.0145202
809.387	0.0145659
809.465	0.0143167
809.543	0.0143728
809.621	0.0143755
809.700	0.0143109
809.778	0.0142342
809.856	0.0143557
809.934	0.0145280
810.012	0.0143909
810.090	0.0142535
810.168	0.0143765
810.246	0.0144824
810.325	0.0144300
810.403	0.0144472
810.481	0.0144395
810.559	0.0144337
810.637	0.0143554
810.715	0.0144312
810.793	0.0146255
810.871	0.0146095
810.950	0.0144361
811.028	0.0144727
811.106	0.0146156
811.184	0.0146087
811.262	0.0146408
811.340	0.0146565
811.418	0.0144322
811.496	0.0144096
811.575	0.0143829
811.653	0.0144277
811.731	0.0145140
811.809	0.0144010
811.887	0.0143239
811.965	0.0143891
812.043	0.0141634
812.121	0.0143246
812.200	0.0143279
812.278	0.0143245
812.356	0.0142319
812.434	0.0142471
812.512	0.0142807
812.590	0.0143719
812.668	0.0144075
812.746	0.0141862
812.825	0.0145547
812.903	0.0144634
812.981	0.0143610
813.059	0.0144408
813.137	0.0143837
813.215	0.0144933
813.293	0.0143900
813.371	0.0144108
813.450	0.0142783
813.528	0.0144009
813.606	0.0145105
813.684	0.0144209
813.762	0.0143554
813.840	0.0144474
813.918	0.0143848
813.996	0.0144479
814.075	0.0144350
814.153	0.0144196
814.231	0.0143658
814.309	0.0145139
814.387	0.0144317
814.465	0.0143900
814.543	0.0144720
814.621	0.0143932
814.700	0.0142879
814.778	0.0145066
814.856	0.0144413
814.934	0.0143751
815.012	0.0142621
815.090	0.0143844
815.168	0.0143848
815.246	0.0144196
815.325	0.0143618
815.403	0.0143739
815.481	0.0143987
815.559	0.0144751
815.637	0.0143885
815.715	0.0144885
815.793	0.0144310
815.871	0.0143922
815.950	0.0142347
816.028	0.0143936
816.106	0.0144847
816.184	0.0144707
816.262	0.0143362
816.340	0.0145001
816.418	0.0144836
816.496	0.0145083
816.575	0.0143813
816.653	0.0144129
816.731	0.0145327
816.809	0.0143430
816.887	0.0143868
816.965	0.0143654
817.043	0.0144181
817.121	0.0143968
817.200	0.0144179
817.278	0.0143846
817.356	0.0144779
817.434	0.0145042
817.512	0.0143256
817.590	0.0143495
817.668	0.0142931
817.746	0.0143679
817.825	0.0144688
817.903	0.0144126
817.981	0.0145016
818.059	0.0144324
818.137	0.0143388
818.215	0.0144460
818.293	0.0144706
818.371	0.0145420
818.450	0.0145020
818.528	0.0145096
818.606	0.0145337
818.684	0.0144890
818.762	0.0145320
818.840	0.0145090
818.918	0.0141938
818.996	0.0143199
819.075	0.0144524
819.153	0.0145006
819.231	0.0144222
819.309	0.0143415
819.387	0.0143790
819.465	0.0144710
819.543	0.0144913
819.621	0.0143938
819.700	0.0144404
819.778	0.0145264
819.856	0.0144317
819.934	0.0145055
820.012	0.0143722
820.090	0.0143453
820.168	0.0146073
820.246	0.0146715
820.325	0.0144728
820.403	0.0143732
820.481	0.0145539
820.559	0.0144163
820.637	0.0145915
820.715	0.0145816
820.793	0.0144472
820.871	0.0142794
820.950	0.0144399
821.028	0.0143079
821.106	0.0145870
821.184	0.0143676
821.262	0.0143967
821.340	0.0144009
821.418	0.0143576
821.496	0.0143781
821.575	0.0141520
821.653	0.0142199
821.731	0.0143198
821.809	0.0142592
821.887	0.0142843
821.965	0.0144554
822.043	0.0143776
822.121	0.0143541
822.200	0.0142643
822.278	0.0143985
822.356	0.0142571
822.434	0.0144286
822.512	0.0143291
822.590	0.0144103
822.668	0.0143785
822.746	0.0144090
822.825	0.0143055
822.903	0.0143390
822.981	0.0144855
823.059	0.0143090
823.137	0.0144198
823.215	0.0143787
823.293	0.0143718
823.371	0.0144916
823.450	0.0144847
823.528	0.0145052
823.606	0.0145152
823.684	0.0144997
823.762	0.0145132
823.840	0.0145116
823.918	0.0146033
823.996	0.0144571
824.075	0.0143813
824.153	0.0144145
824.231	0.0144985
824.309	0.0144428
824.387	0.0143880
824.465	0.0143993
824.543	0.0144263
824.621	0.0144316
824.700	0.0144260
824.778	0.0144246
824.856	0.0144717
824.934	0.0143747
825.012	0.0143187
825.090	0.0143740
825.168	0.0144479
825.246	0.0144306
825.325	0.0143983
825.403	0.0144754
825.481	0.0143445
825.559	0.0143549
825.637	0.0145008
825.715	0.0144971
825.793	0.0146278
825.871	0.0143900
825.950	0.0144048
826.028	0.0145586
826.106	0.0146014
826.184	0.0144653
826.262	0.0145603
826.340	0.0145202
826.418	0.0144794
826.496	0.0145059
826.575	0.0144985
826.653	0.0145338
826.731	0.0143380
826.809	0.0143932
826.887	0.0145945
826.965	0.0144593
827.043	0.0144729
827.121	0.0144543
827.200	0.0143076
827.278	0.0144553
827.356	0.0145116
827.434	0.0144727
827.512	0.0143990
827.590	0.0145159
827.668	0.0145338
827.746	0.0144654
827.825	0.0144951
827.903	0.0144705
827.981	0.0145242
828.059	0.0144749
828.137	0.0144795
828.215	0.0145438
828.293	0.0145335
828.371	0.0145837
828.450	0.0146011
828.528	0.0146110
828.606	0.0147507
828.684	0.0146106
828.762	0.0145170
828.840	0.0145428
828.918	0.0145803
828.996	0.0145502
829.075	0.0144706
829.153	0.0145043
829.231	0.0144226
829.309	0.0143191
829.387	0.0144250
829.465	0.0146402
829.543	0.0143021
829.621	0.0143921
829.700	0.0143671
829.778	0.0144543
829.856	0.0143354
829.934	0.0144942
830.012	0.0144125
830.090	0.0143916
830.168	0.0143939
830.246	0.0144505
830.325	0.0143270
830.403	0.0144461
830.481	0.0144188
830.559	0.0144063
830.637	0.0143300
830.715	0.0143986
830.793	0.0144048
830.871	0.0143193
830.950	0.0144773
831.028	0.0143050
831.106	0.0143024
831.184	0.0144025
831.262	0.0145329
831.340	0.0144722
831.418	0.0144787
831.496	0.0144945
831.575	0.0145342
831.653	0.0144109
831.731	0.0144019
831.809	0.0144473
831.887	0.0144284
831.965	0.0144231
832.043	0.0142565
832.121	0.0144257
832.200	0.0144395
832.278	0.0144666
832.356	0.0145061
832.434	0.0144329
832.512	0.0145312
832.590	0.0144669
832.668	0.0144630
832.746	0.0145137
832.825	0.0143540
832.903	0.0144029
832.981	0.0144545
833.059	0.0145594
833.137	0.0143980
833.215	0.0143419
833.293	0.0143214
833.371	0.0143462
833.450	0.0142632
833.528	0.0143440
833.606	0.0143658
833.684	0.0142899
833.762	0.0142352
833.840	0.0143822
833.918	0.0143639
833.996	0.0144006
834.075	0.0144912
834.153	0.0144250
834.231	0.0144922
834.309	0.0144971
834.387	0.0143524
834.465	0.0144277
834.543	0.0144953
834.621	0.0145969
834.700	0.0143554
834.778	0.0146459
834.856	0.0145099
834.934	0.0145761
835.012	0.0144425
835.090	0.0146352
835.168	0.0146085
835.246	0.0145061
835.325	0.0145123
835.403	0.0144418
835.481	0.0144758
835.559	0.0145895
835.637	0.0143894
835.715	0.0144297
835.793	0.0143823
835.871	0.0143060
835.950	0.0145716
836.028	0.0143758
836.106	0.0144073
836.184	0.0144022
836.262	0.0143050
836.340	0.0144450
836.418	0.0143861
836.496	0.0143335
836.575	0.0144132
836.653	0.0143584
836.731	0.0144633
836.809	0.0143747
836.887	0.0143969
836.965	0.0143994
837.043	0.0144427
837.121	0.0142802
837.200	0.0143425
837.278	0.0144241
837.356	0.0143793
837.434	0.0143230
837.512	0.0143303
837.590	0.0142506
837.668	0.0143565
837.746	0.0142854
837.825	0.0143555
837.903	0.0144430
837.981	0.0144881
838.059	0.0142533
838.137	0.0142964
838.215	0.0143328
838.293	0.0144294
838.371	0.0144414
838.450	0.0145077
838.528	0.0144318
838.606	0.0143501
838.684	0.0144175
838.762	0.0144405
838.840	0.0144265
838.918	0.0144675
838.996	0.0144436
839.075	0.0143713
839.153	0.0144541
839.231	0.0142992
839.309	0.0142646
839.387	0.0143211
839.465	0.0143042
839.543	0.0144142
839.621	0.0143629
839.700	0.0143962
839.778	0.0144262
839.856	0.0143648
839.934	0.0144776
840.012	0.0145288
840.090	0.0143879
840.168	0.0145755
840.246	0.0144542
840.325	0.0144495
840.403	0.0145804
840.481	0.0145485
840.559	0.0145079
840.637	0.0143953
840.715	0.0144186
840.793	0.0144744
840.871	0.0144126
840.950	0.0144547
841.028	0.0145145
841.106	0.0143731
841.184	0.0142885
841.262	0.0145385
841.340	0.0143272
841.418	0.0143452
841.496	0.0142234
841.575	0.0142137
841.653	0.0143729
841.731	0.0142813
841.809	0.0144093
841.887	0.0143613
841.965	0.0142532
842.043	0.0142603
842.121	0.0144004
842.200	0.0143073
842.278	0.0142054
842.356	0.0144228
842.434	0.0143422
842.512	0.0142872
842.590	0.0144958
842.668	0.0143914
842.746	0.0143188
842.825	0.0145615
842.903	0.0144443
842.981	0.0144657
843.059	0.0144824
843.137	0.0145274
843.215	0.0145573
843.293	0.0145843
843.371	0.0144849
843.450	0.0144752
843.528	0.0144652
843.606	0.0143713
843.684	0.0143096
843.762	0.0143992
843.840	0.0145015
843.918	0.0144658
843.996	0.0144686
844.075	0.0143990
844.153	0.0143572
844.231	0.0142886
844.309	0.0144231
844.387	0.0145312
844.465	0.0145250
844.543	0.0144154
844.621	0.0144775
844.700	0.0144571
844.778	0.0144934
844.856	0.0144218
844.934	0.0144427
845.012	0.0143579
845.090	0.0145261
845.168	0.0143916
845.246	0.0144752
845.325	0.0144895
845.403	0.0144646
845.481	0.0143252
845.559	0.0145490
845.637	0.0144416
845.715	0.0142405
845.793	0.0143024
845.871	0.0144946
845.950	0.0144799
846.028	0.0143230
846.106	0.0144444
846.184	0.0144458
846.262	0.0144060
846.340	0.0144392
846.418	0.0144148
846.496	0.0145152
846.575	0.0144522
846.653	0.0144487
846.731	0.0144673
846.809	0.0145365
846.887	0.0144152
846.965	0.0143809
847.043	0.0145169
847.121	0.0145673
847.200	0.0145451
847.278	0.0144877
847.356	0.0145225
847.434	0.0144533
847.512	0.0145168
847.590	0.0144524
847.668	0.0144536
847.746	0.0143838
847.825	0.0144542
847.903	0.0145145
847.981	0.0144806
848.059	0.0142517
848.137	0.0144933
848.215	0.0144846
848.293	0.0143932
848.371	0.0143528
848.450	0.0143981
848.528	0.0144621
848.606	0.0143790
848.684	0.0145156
848.762	0.0144108
848.840	0.0144364
848.918	0.0146062
848.996	0.0146053
849.075	0.0145095
849.153	0.0145066
849.231	0.0145824
849.309	0.0145509
849.387	0.0145090
849.465	0.0144533
849.543	0.0145336
849.621	0.0143744
849.700	0.0144398
849.778	0.0145184
849.856	0.0145416
849.934	0.0144015
850.012	0.0143448
850.090	0.0142930
850.168	0.0143188
850.246	0.0144690
850.325	0.0144539
850.403	0.0143324
850.481	0.0143488
850.559	0.0143517
850.637	0.0144386
850.715	0.0144207
850.793	0.0144779
850.871	0.0144751
850.950	0.0144714
851.028	0.0145132
851.106	0.0146046
851.184	0.0146905
851.262	0.0144891
851.340	0.0144450
851.418	0.0145268
851.496	0.0144547
851.575	0.0146119
851.653	0.0145991
851.731	0.0145834
851.809	0.0145809
851.887	0.0145241
851.965	0.0145448
852.043	0.0145769
852.121	0.0144662
852.200	0.0145189
852.278	0.0144960
852.356	0.0142537
852.434	0.0144580
852.512	0.0144785
852.590	0.0145229
852.668	0.0143861
852.746	0.0145052
852.825	0.0145253
852.903	0.0143472
852.981	0.0144877
853.059	0.0144104
853.137	0.0144477
853.215	0.0143484
853.293	0.0144771
853.371	0.0144200
853.450	0.0142693
853.528	0.0143044
853.606	0.0143069
853.684	0.0144067
853.762	0.0143800
853.840	0.0145620
853.918	0.0143624
853.996	0.0143576
854.075	0.0142680
854.153	0.0143863
854.231	0.0145128
854.309	0.0144332
854.387	0.0143684
854.465	0.0143896
854.543	0.0144131
854.621	0.0143226
854.700	0.0141987
854.778	0.0144833
854.856	0.0145235
854.934	0.0143719
855.012	0.0142431
855.090	0.0143046
855.168	0.0143816
855.246	0.0144647
855.325	0.0143908
855.403	0.0144708
855.481	0.0144093
855.559	0.0143695
855.637	0.0143867
855.715	0.0144616
855.793	0.0145406
855.871	0.0144998
855.950	0.0144122
856.028	0.0144877
856.106	0.0145905
856.184	0.0144228
856.262	0.0144347
856.340	0.0144170
856.418	0.0145068
856.496	0.0143715
856.575	0.0143832
856.653	0.0143690
856.731	0.0144395
856.809	0.0145230
856.887	0.0144760
856.965	0.0143247
857.043	0.0144498
857.121	0.0145319
857.200	0.0143529
857.278	0.0144074
857.356	0.0143580
857.434	0.0144006
857.512	0.0144205
857.590	0.0144133
857.668	0.0143900
857.746	0.0143832
857.825	0.0143772
857.903	0.0144657
857.981	0.0143242
858.059	0.0143656
858.137	0.0144772
858.215	0.0143977
858.293	0.0144408
858.371	0.0143539
858.450	0.0143424
858.528	0.0144547
858.606	0.0144423
858.684	0.0144176
858.762	0.0143121
858.840	0.0143453
858.918	0.0142844
858.996	0.0144316
859.075	0.0144957
859.153	0.0143095
859.231	0.0144608
859.309	0.0144791
859.387	0.0142986
859.465	0.0143773
859.543	0.0144905
859.621	0.0144292
859.700	0.0144362
859.778	0.0145026
859.856	0.0144225
859.934	0.0144713
860.012	0.0143192
860.090	0.0143658
860.168	0.0144421
860.246	0.0143703
860.325	0.0143449
860.403	0.0143748
860.481	0.0143900
860.559	0.0142909
860.637	0.0142788
860.715	0.0143932
860.793	0.0143823
860.871	0.0144558
860.950	0.0144238
861.028	0.0143410
861.106	0.0144831
861.184	0.0143024
861.262	0.0143418
861.340	0.0143185
861.418	0.0144218
861.496	0.0143651
861.575	0.0143929
861.653	0.0144196
861.731	0.0144287
861.809	0.0142753
861.887	0.0145062
861.965	0.0143404
862.043	0.0143880
862.121	0.0144410
862.200	0.0144295
862.278	0.0143648
862.356	0.0144602
862.434	0.0143690
862.512	0.0143499
862.590	0.0143863
862.668	0.0144752
862.746	0.0144435
862.825	0.0143413
862.903	0.0142525
862.981	0.0143867
863.059	0.0144518
863.137	0.0144669
863.215	0.0144118
863.293	0.0142995
863.371	0.0143739
863.450	0.0144678
863.528	0.0144954
863.606	0.0145007
863.684	0.0143797
863.762	0.0145016
863.840	0.0146117
863.918	0.0144550
863.996	0.0143925
864.075	0.0145075
864.153	0.0144896
864.231	0.0143616
864.309	0.0143406
864.387	0.0145637
864.465	0.0145485
864.543	0.0144012
864.621	0.0144025
864.700	0.0144141
864.778	0.0143085
864.856	0.0142912
864.934	0.0143993
865.012	0.0144257
865.090	0.0144823
865.168	0.0142293
865.246	0.0143527
865.325	0.0144034
865.403	0.0144281
865.481	0.0143545
865.559	0.0143526
865.637	0.0144472
865.715	0.0142174
865.793	0.0144221
865.871	0.0144253
865.950	0.0144456
866.028	0.0143977
866.106	0.0144154
866.184	0.0145377
866.262	0.0144889
866.340	0.0143484
866.418	0.0144144
866.496	0.0145485
866.575	0.0145814
866.653	0.0145430
866.731	0.0144405
866.809	0.0144678
866.887	0.0145268
866.965	0.0145396
867.043	0.0144714
867.121	0.0144636
867.200	0.0145043
867.278	0.0144283
867.356	0.0144413
867.434	0.0144437
867.512	0.0144865
867.590	0.0143720
867.668	0.0144534
867.746	0.0143714
867.825	0.0144149
867.903	0.0145239
867.981	0.0144646
868.059	0.0144385
868.137	0.0144111
868.215	0.0144713
868.293	0.0146209
868.371	0.0145277
868.450	0.0144138
868.528	0.0144307
868.606	0.0144703
868.684	0.0142974
868.762	0.0143272
868.840	0.0143958
868.918	0.0143552
868.996	0.0142905
869.075	0.0143081
869.153	0.0143950
869.231	0.0143501
869.309	0.0143407
869.387	0.0144417
869.465	0.0144678
869.543	0.0144234
869.621	0.0143138
869.700	0.0145327
869.778	0.0144540
869.856	0.0145471
869.934	0.0145761
870.012	0.0143833
870.090	0.0144180
870.168	0.0145924
870.246	0.0144215
870.325	0.0146201
870.403	0.0144062
870.481	0.0145041
870.559	0.0145895
870.637	0.0146115
870.715	0.0145139
870.793	0.0145955
870.871	0.0144849
870.950	0.0143242
871.028	0.0145223
871.106	0.0143980
871.184	0.0144675
871.262	0.0144855
871.340	0.0144456
871.418	0.0144732
871.496	0.0144388
871.575	0.0145419
871.653	0.0145695
871.731	0.0144727
871.809	0.0146567
871.887	0.0144759
871.965	0.0146276
872.043	0.0145911
872.121	0.0144884
872.200	0.0144528
872.278	0.0145465
872.356	0.0145918
872.434	0.0145300
872.512	0.0146479
872.590	0.0145928
872.668	0.0145091
872.746	0.0145557
872.825	0.0145631
872.903	0.0145958
872.981	0.0145776
873.059	0.0144122
873.137	0.0145371
873.215	0.0144101
873.293	0.0144117
873.371	0.0145486
873.450	0.0145377
873.528	0.0145403
873.606	0.0145836
873.684	0.0144137
873.762	0.0143659
873.840	0.0143970
873.918	0.0145473
873.996	0.0143531
874.075	0.0144947
874.153	0.0144136
874.231	0.0145049
874.309	0.0144118
874.387	0.0144331
874.465	0.0145975
874.543	0.0144473
874.621	0.0144081
874.700	0.0144921
874.778	0.0144163
874.856	0.0143813
874.934	0.0143021
875.012	0.0144704
875.090	0.0144204
875.168	0.0143537
875.246	0.0143749
875.325	0.0145821
875.403	0.0144051
875.481	0.0144463
875.559	0.0144385
875.637	0.0145152
875.715	0.0144534
875.793	0.0145174
875.871	0.0144871
875.950	0.0144650
876.028	0.0143889
876.106	0.0143465
876.184	0.0144820
876.262	0.0144517
876.340	0.0144282
876.418	0.0145076
876.496	0.0143790
876.575	0.0143079
876.653	0.0144700
876.731	0.0144135
876.809	0.0143517
876.887	0.0141935
876.965	0.0143287
877.043	0.0145631
877.121	0.0144464
877.200	0.0144087
877.278	0.0144214
877.356	0.0143258
877.434	0.0143232
877.512	0.0143656
877.590	0.0144009
877.668	0.0144155
877.746	0.0144524
877.825	0.0144476
877.903	0.0144276
877.981	0.0143273
878.059	0.0144843
878.137	0.0144453
878.215	0.0143538
878.293	0.0143240
878.371	0.0144630
878.450	0.0144367
878.528	0.0143488
878.606	0.0142538
878.684	0.0142574
878.762	0.0145337
878.840	0.0144387
878.918	0.0143968
878.996	0.0143086
879.075	0.0142961
879.153	0.0145081
879.231	0.0144581
879.309	0.0143870
879.387	0.0143677
879.465	0.0143940
879.543	0.0143378
879.621	0.0145279
879.700	0.0144746
879.778	0.0143945
879.856	0.0143803
879.934	0.0144698
880.012	0.0144924
880.090	0.0145078
880.168	0.0144806
880.246	0.0143225
880.325	0.0143906
880.403	0.0144541
880.481	0.0143385
880.559	0.0144956
880.637	0.0144381
880.715	0.0143154
880.793	0.0144670
880.871	0.0143488
880.950	0.0142965
881.028	0.0144057
881.106	0.0144282
881.184	0.0145040
881.262	0.0143472
881.340	0.0144796
881.418	0.0142841
881.496	0.0143424
881.575	0.0145293
881.653	0.0143021
881.731	0.0143546
881.809	0.0144386
881.887	0.0144045
881.965	0.0143874
882.043	0.0144715
882.121	0.0142897
882.200	0.0146254
882.278	0.0145294
882.356	0.0145062
882.434	0.0143887
882.512	0.0144071
882.590	0.0144751
882.668	0.0146442
882.746	0.0145290
882.825	0.0143867
882.903	0.0143427
882.981	0.0145476
883.059	0.0144490
883.137	0.0143723
883.215	0.0144775
883.293	0.0144641
883.371	0.0143314
883.450	0.0144087
883.528	0.0144493
883.606	0.0143192
883.684	0.0143855
883.762	0.0143868
883.840	0.0143374
883.918	0.0144445
883.996	0.0144151
884.075	0.0144490
884.153	0.0144315
884.231	0.0144787
884.309	0.0144748
884.387	0.0143668
884.465	0.0143836
884.543	0.0143484
884.621	0.0145053
884.700	0.0144223
884.778	0.0144717
884.856	0.0145203
884.934	0.0144852
885.012	0.0146471
885.090	0.0144873
885.168	0.0145126
885.246	0.0145097
885.325	0.0145901
885.403	0.0146103
885.481	0.0146204
885.559	0.0143636
885.637	0.0142735
885.715	0.0143723
885.793	0.0144328
885.871	0.0144567
885.950	0.0143533
886.028	0.0143613
886.106	0.0143012
886.184	0.0143404
886.262	0.0143846
886.340	0.0142635
886.418	0.0143828
886.496	0.0144321
886.575	0.0144904
886.653	0.0144585
886.731	0.0145119
886.809	0.0144431
886.887	0.0144613
886.965	0.0143842
887.043	0.0144062
887.121	0.0144437
887.200	0.0144707
887.278	0.0144700
887.356	0.0143616
887.434	0.0144186
887.512	0.0144892
887.590	0.0143796
887.668	0.0145110
887.746	0.0145572
887.825	0.0145474
887.903	0.0145013
887.981	0.0145611
888.059	0.0142258
888.137	0.0143316
888.215	0.0143205
888.293	0.0143402
888.371	0.0142919
888.450	0.0142706
888.528	0.0144108
888.606	0.0144481
888.684	0.0143356
888.762	0.0143497
888.840	0.0144444
888.918	0.0143855
888.996	0.0144769
889.075	0.0145090
889.153	0.0144676
889.231	0.0144817
889.309	0.0146019
889.387	0.0144820
889.465	0.0145792
889.543	0.0145364
889.621	0.0143808
889.700	0.0144834
889.778	0.0144608
889.856	0.0144271
889.934	0.0142078
890.012	0.0144552
890.090	0.0143211
890.168	0.0143897
890.246	0.0144235
890.325	0.0143993
890.403	0.0145790
890.481	0.0145023
890.559	0.0145051
890.637	0.0144096
890.715	0.0144378
890.793	0.0144984
890.871	0.0145216
890.950	0.0144145
891.028	0.0144662
891.106	0.0143928
891.184	0.0144195
891.262	0.0144303
891.340	0.0142873
891.418	0.0144409
891.496	0.0145914
891.575	0.0144412
891.653	0.0144608
891.731	0.0144940
891.809	0.0144118
891.887	0.0145101
891.965	0.0145963
892.043	0.0145943
892.121	0.0145565
892.200	0.0143830
892.278	0.0144682
892.356	0.0144671
892.434	0.0144861
892.512	0.0146179
892.590	0.0144516
892.668	0.0142506
892.746	0.0143449
892.825	0.0143512
892.903	0.0142944
892.981	0.0143951
893.059	0.0144434
893.137	0.0144462
893.215	0.0144729
893.293	0.0146048
893.371	0.0144424
893.450	0.0145762
893.528	0.0145689
893.606	0.0146113
893.684	0.0145722
893.762	0.0145909
893.840	0.0145885
893.918	0.0145055
893.996	0.0145173
894.075	0.0145821
894.153	0.0143650
894.231	0.0144290
894.309	0.0144710
894.387	0.0143343
894.465	0.0144627
894.543	0.0144173
894.621	0.0144042
894.700	0.0143285
894.778	0.0145609
894.856	0.0144891
894.934	0.0144588
895.012	0.0144043
895.090	0.0144776
895.168	0.0144945
895.246	0.0143031
895.325	0.0144859
895.403	0.0144315
895.481	0.0144069
895.559	0.0143359
895.637	0.0143612
895.715	0.0143962
895.793	0.0143998
895.871	0.0145356
895.950	0.0145007
896.028	0.0142399
896.106	0.0145411
896.184	0.0144418
896.262	0.0145424
896.340	0.0145287
896.418	0.0144761
896.496	0.0143894
896.575	0.0144903
896.653	0.0144513
896.731	0.0144599
896.809	0.0144537
896.887	0.0143842
896.965	0.0144067
897.043	0.0143739
897.121	0.0144844
897.200	0.0145598
897.278	0.0143383
897.356	0.0143023
897.434	0.0143582
897.512	0.0144416
897.590	0.0145448
897.668	0.0146233
897.746	0.0145313
897.825	0.0144003
897.903	0.0145319
897.981	0.0145844
898.059	0.0144608
898.137	0.0145687
898.215	0.0145558
898.293	0.0144707
898.371	0.0143694
898.450	0.0144093
898.528	0.0145362
898.606	0.0145197
898.684	0.0144107
898.762	0.0144882
898.840	0.0144436
898.918	0.0143459
898.996	0.0144628
899.075	0.0143451
899.153	0.0144873
899.231	0.0144379
899.309	0.0145438
899.387	0.0144070
899.465	0.0144672
899.543	0.0145137
899.621	0.0144186
899.700	0.0145058
899.778	0.0144221
899.856	0.0145342
899.934	0.0144754
900.012	0.0144949
900.090	0.0144709
900.168	0.0144253
900.246	0.0146030
900.325	0.0144381
900.403	0.0144819
900.481	0.0144955
900.559	0.0143957
900.637	0.0143144
900.715	0.0143331
900.793	0.0144270
900.871	0.0143739
900.950	0.0142070
901.028	0.0142819
901.106	0.0144630
901.184	0.0143221
901.262	0.0144085
901.340	0.0145807
901.418	0.0143719
901.496	0.0143041
901.575	0.0144942
901.653	0.0145381
901.731	0.0145279
901.809	0.0144894
901.887	0.0144669
901.965	0.0145058
902.043	0.0144529
902.121	0.0145570
902.200	0.0144546
902.278	0.0143807
902.356	0.0143326
902.434	0.0143113
902.512	0.0142411
902.590	0.0144991
902.668	0.0144182
902.746	0.0142828
902.825	0.0144111
902.903	0.0143974
902.981	0.0145591
903.059	0.0144855
903.137	0.0145596
903.215	0.0144914
903.293	0.0145800
903.371	0.0144158
903.450	0.0145479
903.528	0.0147207
903.606	0.0144302
903.684	0.0145221
903.762	0.0143217
903.840	0.0144801
903.918	0.0144011
903.996	0.0143111
904.075	0.0144289
904.153	0.0144318
904.231	0.0143262
904.309	0.0144250
904.387	0.0143595
904.465	0.0145395
904.543	0.0144353
904.621	0.0143340
904.700	0.0143961
904.778	0.0145889
904.856	0.0144506
904.934	0.0146617
905.012	0.0145753
905.090	0.0144458
905.168	0.0144814
905.246	0.0146647
905.325	0.0146614
905.403	0.0144474
905.481	0.0144440
905.559	0.0145100
905.637	0.0143473
905.715	0.0144202
905.793	0.0144951
905.871	0.0144122
905.950	0.0142877
906.028	0.0143196
906.106	0.0143545
906.184	0.0142616
906.262	0.0144428
906.340	0.0143108
906.418	0.0145021
906.496	0.0145280
906.575	0.0144361
906.653	0.0144856
906.731	0.0143645
906.809	0.0144524
906.887	0.0145628
906.965	0.0144104
907.043	0.0145615
907.121	0.0145016
907.200	0.0145271
907.278	0.0142928
907.356	0.0144266
907.434	0.0145383
907.512	0.0144935
907.590	0.0144341
907.668	0.0144631
907.746	0.0144512
907.825	0.0144643
907.903	0.0144777
907.981	0.0144543
908.059	0.0143089
908.137	0.0144070
908.215	0.0144631
908.293	0.0144315
908.371	0.0144183
908.450	0.0144457
908.528	0.0143802
908.606	0.0143271
908.684	0.0142760
908.762	0.0144444
908.840	0.0145342
908.918	0.0145291
908.996	0.0144334
909.075	0.0145139
909.153	0.0144053
909.231	0.0145780
909.309	0.0144790
909.387	0.0144834
909.465	0.0145358
909.543	0.0144680
909.621	0.0144763
909.700	0.0144144
909.778	0.0143472
909.856	0.0142535
909.934	0.0142101
910.012	0.0143249
910.090	0.0142603
910.168	0.0143067
910.246	0.0141062
910.325	0.0141427
910.403	0.0142479
910.481	0.0144729
910.559	0.0144800
910.637	0.0143204
910.715	0.0143998
910.793	0.0144202
910.871	0.0144019
910.950	0.0146006
911.028	0.0146319
911.106	0.0146365
911.184	0.0144754
911.262	0.0144425
911.340	0.0146521
911.418	0.0145427
911.496	0.0145154
911.575	0.0145025
911.653	0.0144612
911.731	0.0144511
911.809	0.0144666
911.887	0.0143681
911.965	0.0143550
912.043	0.0143031
912.121	0.0142477
912.200	0.0143861
912.278	0.0145146
912.356	0.0144254
912.434	0.0144868
912.512	0.0143749
912.590	0.0144114
912.668	0.0143348
912.746	0.0143845
912.825	0.0143920
912.903	0.0144939
912.981	0.0145418
913.059	0.0145596
913.137	0.0144135
913.215	0.0146403
913.293	0.0146194
913.371	0.0144481
913.450	0.0145474
913.528	0.0144736
913.606	0.0145402
913.684	0.0143697
913.762	0.0145265
913.840	0.0143841
913.918	0.0144386
913.996	0.0145171
914.075	0.0144513
914.153	0.0144341
914.231	0.0144508
914.309	0.0142574
914.387	0.0145494
914.465	0.0144106
914.543	0.0143779
914.621	0.0146423
914.700	0.0144646
914.778	0.0144509
914.856	0.0142854
914.934	0.0143483
915.012	0.0143887
915.090	0.0144620
915.168	0.0144821
915.246	0.0145219
915.325	0.0143650
915.403	0.0144547
915.481	0.0145398
915.559	0.0142018
915.637	0.0145055
915.715	0.0145274
915.793	0.0144305
915.871	0.0144324
915.950	0.0145049
916.028	0.0144087
916.106	0.0144633
916.184	0.0145288
916.262	0.0142749
916.340	0.0144331
916.418	0.0143462
916.496	0.0143468
916.575	0.0144444
916.653	0.0143512
916.731	0.0142456
916.809	0.0143121
916.887	0.0144685
916.965	0.0143363
917.043	0.0143273
917.121	0.0144715
917.200	0.0144106
917.278	0.0143797
917.356	0.0143451
917.434	0.0144411
917.512	0.0143473
917.590	0.0144496
917.668	0.0143493
917.746	0.0143583
917.825	0.0144810
917.903	0.0144238
917.981	0.0143829
918.059	0.0144466
918.137	0.0143529
918.215	0.0145215
918.293	0.0145290
918.371	0.0144714
918.450	0.0144849
918.528	0.0145458
918.606	0.0143550
918.684	0.0145329
918.762	0.0145140
918.840	0.0144772
918.918	0.0145283
918.996	0.0145031
919.075	0.0143595
919.153	0.0144323
919.231	0.0145803
919.309	0.0144462
919.387	0.0143570
919.465	0.0144778
919.543	0.0144814
919.621	0.0144669
919.700	0.0145440
919.778	0.0144022
919.856	0.0143641
919.934	0.0145152
920.012	0.0145462
920.090	0.0145313
920.168	0.0145004
920.246	0.0145046
920.325	0.0145245
920.403	0.0145133
920.481	0.0144914
920.559	0.0144016
920.637	0.0144944
920.715	0.0145017
920.793	0.0144402
920.871	0.0145962
920.950	0.0145267
921.028	0.0145908
921.106	0.0145233
921.184	0.0144809
921.262	0.0145736
921.340	0.0145142
921.418	0.0144897
921.496	0.0144140
921.575	0.0146078
921.653	0.0145459
921.731	0.0143639
921.809	0.0144281
921.887	0.0145416
921.965	0.0144122
922.043	0.0144854
922.121	0.0144862
922.200	0.0143888
922.278	0.0145384
922.356	0.0148101
922.434	0.0145444
922.512	0.0145350
922.590	0.0144965
922.668	0.0144839
922.746	0.0143627
922.825	0.0144411
922.903	0.0144228
922.981	0.0143829
923.059	0.0144030
923.137	0.0143752
923.215	0.0145251
923.293	0.0144461
923.371	0.0143379
923.450	0.0145341
923.528	0.0144948
923.606	0.0144067
923.684	0.0144303
923.762	0.0146482
923.840	0.0144584
923.918	0.0145783
923.996	0.0145058
924.075	0.0144888
924.153	0.0143761
924.231	0.0143519
924.309	0.0144958
924.387	0.0144695
924.465	0.0144290
924.543	0.0143528
924.621	0.0143819
924.700	0.0143696
924.778	0.0144328
924.856	0.0145435
924.934	0.0143821
925.012	0.0143577
925.090	0.0144939
925.168	0.0145798
925.246	0.0143776
925.325	0.0144598
925.403	0.0143113
925.481	0.0144521
925.559	0.0145213
925.637	0.0144550
925.715	0.0144331
925.793	0.0145322
925.871	0.0145087
925.950	0.0143560
926.028	0.0145939
926.106	0.0144489
926.184	0.0143220
926.262	0.0144895
926.340	0.0144279
926.418	0.0145510
926.496	0.0144423
926.575	0.0145420
926.653	0.0145248
926.731	0.0144417
926.809	0.0143700
926.887	0.0145200
926.965	0.0144492
927.043	0.0143485
927.121	0.0143190
927.200	0.0144826
927.278	0.0143437
927.356	0.0143784
927.434	0.0144717
927.512	0.0145395
927.590	0.0145309
927.668	0.0143780
927.746	0.0146120
927.825	0.0145090
927.903	0.0143727
927.981	0.0144408
928.059	0.0145044
928.137	0.0144183
928.215	0.0144427
928.293	0.0144116
928.371	0.0144176
928.450	0.0144707
928.528	0.0143213
928.606	0.0144155
928.684	0.0143750
928.762	0.0143436
928.840	0.0143548
928.918	0.0143452
928.996	0.0145055
929.075	0.0144135
929.153	0.0145095
929.231	0.0144783
929.309	0.0143988
929.387	0.0146901
929.465	0.0146077
929.543	0.0145547
929.621	0.0145499
929.700	0.0145368
929.778	0.0145583
929.856	0.0144753
929.934	0.0145685
930.012	0.0144755
930.090	0.0145217
930.168	0.0145300
930.246	0.0143797
930.325	0.0144167
930.403	0.0145140
930.481	0.0144331
930.559	0.0145077
930.637	0.0144056
930.715	0.0145013
930.793	0.0144965
930.871	0.0143308
930.950	0.0143536
931.028	0.0146056
931.106	0.0145853
931.184	0.0145682
931.262	0.0145169
931.340	0.0145254
931.418	0.0145060
931.496	0.0144391
931.575	0.0145367
931.653	0.0144665
931.731	0.0144812
931.809	0.0144411
931.887	0.0144129
931.965	0.0144833
932.043	0.0143557
932.121	0.0143118
932.200	0.0142926
932.278	0.0144576
932.356	0.0143684
932.434	0.0144569
932.512	0.0143401
932.590	0.0145114
932.668	0.0144612
932.746	0.0144189
932.825	0.0144404
932.903	0.0144464
932.981	0.0143884
933.059	0.0144884
933.137	0.0146971
933.215	0.0144489
933.293	0.0144204
933.371	0.0143759
933.450	0.0144192
933.528	0.0145728
933.606	0.0144952
933.684	0.0144598
933.762	0.0145103
933.840	0.0144408
933.918	0.0143855
933.996	0.0144661
934.075	0.0143909
934.153	0.0143435
934.231	0.0144153
934.309	0.0144934
934.387	0.0144027
934.465	0.0145397
934.543	0.0143711
934.621	0.0143816
934.700	0.0143838
934.778	0.0144740
934.856	0.0146121
934.934	0.0145803
935.012	0.0145441
935.090	0.0144978
935.168	0.0145580
935.246	0.0145709
935.325	0.0146027
935.403	0.0145856
935.481	0.0145788
935.559	0.0145135
935.637	0.0145197
935.715	0.0143967
935.793	0.0145926
935.871	0.0145699
935.950	0.0144765
936.028	0.0145090
936.106	0.0144935
936.184	0.0144337
936.262	0.0144028
936.340	0.0143868
936.418	0.0145287
936.496	0.0144717
936.575	0.0144459
936.653	0.0145348
936.731	0.0144442
936.809	0.0145801
936.887	0.0145251
936.965	0.0145191
937.043	0.0144813
937.121	0.0145234
937.200	0.0145227
937.278	0.0144427
937.356	0.0144982
937.434	0.0144729
937.512	0.0145089
937.590	0.0145039
937.668	0.0144811
937.746	0.0143913
937.825	0.0143985
937.903	0.0142933
937.981	0.0143148
938.059	0.0144198
938.137	0.0144014
938.215	0.0142673
938.293	0.0142520
938.371	0.0144007
938.450	0.0142634
938.528	0.0144314
938.606	0.0144739
938.684	0.0144107
938.762	0.0143883
938.840	0.0145602
938.918	0.0145933
938.996	0.0145108
939.075	0.0143729
939.153	0.0145535
939.231	0.0143496
939.309	0.0144341
939.387	0.0143744
939.465	0.0144362
939.543	0.0146049
939.621	0.0143980
939.700	0.0143871
939.778	0.0144948
939.856	0.0144318
939.934	0.0143259
940.012	0.0144431
940.090	0.0145813
940.168	0.0144416
940.246	0.0144716
940.325	0.0143794
940.403	0.0144113
940.481	0.0144051
940.559	0.0144028
940.637	0.0143418
940.715	0.0143557
940.793	0.0144733
940.871	0.0143564
940.950	0.0142760
941.028	0.0142206
941.106	0.0143398
941.184	0.0143304
941.262	0.0144680
941.340	0.0144714
941.418	0.0143394
941.496	0.0142502
941.575	0.0144169
941.653	0.0145212
941.731	0.0143871
941.809	0.0144216
941.887	0.0145113
941.965	0.0143213
942.043	0.0143370
942.121	0.0144757
942.200	0.0143598
942.278	0.0143327
942.356	0.0143730
942.434	0.0144872
942.512	0.0144480
942.590	0.0145296
942.668	0.0143278
942.746	0.0144250
942.825	0.0143684
942.903	0.0143774
942.981	0.0144221
943.059	0.0144176
943.137	0.0143677
943.215	0.0146210
943.293	0.0144717
943.371	0.0144865
943.450	0.0146354
943.528	0.0145181
943.606	0.0142490
943.684	0.0145142
943.762	0.0144589
943.840	0.0144137
943.918	0.0144811
943.996	0.0145910
944.075	0.0143768
944.153	0.0145881
944.231	0.0143495
944.309	0.0144749
944.387	0.0144905
944.465	0.0143748
944.543	0.0143613
944.621	0.0144426
944.700	0.0144724
944.778	0.0143403
944.856	0.0145055
944.934	0.0146255
945.012	0.0143635
945.090	0.0143084
945.168	0.0143757
945.246	0.0143084
945.325	0.0143832
945.403	0.0143407
945.481	0.0144494
945.559	0.0142743
945.637	0.0143492
945.715	0.0143407
945.793	0.0143545
945.871	0.0143358
945.950	0.0143585
946.028	0.0144409
946.106	0.0143413
946.184	0.0142653
946.262	0.0145287
946.340	0.0145457
946.418	0.0144344
946.496	0.0144997
946.575	0.0146007
946.653	0.0144331
946.731	0.0145060
946.809	0.0144830
946.887	0.0145406
946.965	0.0145181
947.043	0.0145142
947.121	0.0145476
947.200	0.0143877
947.278	0.0144775
947.356	0.0145275
947.434	0.0144960
947.512	0.0142566
947.590	0.0145541
947.668	0.0145168
947.746	0.0143773
947.825	0.0143821
947.903	0.0143989
947.981	0.0144654
948.059	0.0143827
948.137	0.0144263
948.215	0.0144191
948.293	0.0144343
948.371	0.0145605
948.450	0.0145187
948.528	0.0144697
948.606	0.0144217
948.684	0.0143474
948.762	0.0144684
948.840	0.0145787
948.918	0.0144099
948.996	0.0144397
949.075	0.0144614
949.153	0.0143233
949.231	0.0144728
949.309	0.0143884
949.387	0.0144721
949.465	0.0143542
949.543	0.0144729
949.621	0.0143698
949.700	0.0143861
949.778	0.0143549
949.856	0.0145486
949.934	0.0146167
950.012	0.0144709
950.090	0.0144657
950.168	0.0145435
950.246	0.0145358
950.325	0.0144478
950.403	0.0144911
950.481	0.0145190
950.559	0.0144086
950.637	0.0145593
950.715	0.0145142
950.793	0.0144454
950.871	0.0145113
950.950	0.0145355
951.028	0.0144658
951.106	0.0144136
951.184	0.0144987
951.262	0.0145161
951.340	0.0144128
951.418	0.0144401
951.496	0.0145616
951.575	0.0144201
951.653	0.0145452
951.731	0.0145710
951.809	0.0144284
951.887	0.0145424
951.965	0.0145282
952.043	0.0144231
952.121	0.0144241
952.200	0.0143652
952.278	0.0145520
952.356	0.0145451
952.434	0.0145060
952.512	0.0145351
952.590	0.0144669
952.668	0.0144694
952.746	0.0145397
952.825	0.0144810
952.903	0.0143568
952.981	0.0145322
953.059	0.0144882
953.137	0.0144214
953.215	0.0144244
953.293	0.0144766
953.371	0.0144815
953.450	0.0143119
953.528	0.0144070
953.606	0.0145518
953.684	0.0145100
953.762	0.0145457
953.840	0.0145607
953.918	0.0144777
953.996	0.0144484
954.075	0.0144886
954.153	0.0143965
954.231	0.0145084
954.309	0.0147282
954.387	0.0144769
954.465	0.0143475
954.543	0.0143369
954.621	0.0143573
954.700	0.0143741
954.778	0.0143797
954.856	0.0144094
954.934	0.0144383
955.012	0.0144744
955.090	0.0145084
955.168	0.0143225
955.246	0.0144548
955.325	0.0145882
955.403	0.0145290
955.481	0.0144914
955.559	0.0144627
955.637	0.0144160
955.715	0.0143497
955.793	0.0144863
955.871	0.0144841
955.950	0.0145236
956.028	0.0144421
956.106	0.0144216
956.184	0.0144805
956.262	0.0145066
956.340	0.0143469
956.418	0.0143931
956.496	0.0143990
956.575	0.0144020
956.653	0.0143980
956.731	0.0144652
956.809	0.0145181
956.887	0.0145111
956.965	0.0145422
957.043	0.0144826
957.121	0.0144818
957.200	0.0142466
957.278	0.0143782
957.356	0.0143523
957.434	0.0143019
957.512	0.0144015
957.590	0.0143239
957.668	0.0143670
957.746	0.0142577
957.825	0.0142621
957.903	0.0143893
957.981	0.0142516
958.059	0.0143362
958.137	0.0143811
958.215	0.0144239
958.293	0.0145299
958.371	0.0143761
958.450	0.0143872
958.528	0.0144363
958.606	0.0143156
958.684	0.0143427
958.762	0.0144605
958.840	0.0145399
958.918	0.0144501
958.996	0.0144315
959.075	0.0144500
959.153	0.0144654
959.231	0.0144081
959.309	0.0144090
959.387	0.0144387
959.465	0.0144215
959.543	0.0143903
959.621	0.0144977
959.700	0.0142918
959.778	0.0143635
959.856	0.0144444
959.934	0.0145385
960.012	0.0143341
960.090	0.0143904
960.168	0.0144425
960.246	0.0144194
960.325	0.0143914
960.403	0.0142614
960.481	0.0143027
960.559	0.0144331
960.637	0.0143869
960.715	0.0144484
960.793	0.0143449
960.871	0.0144154
960.950	0.0144435
961.028	0.0143594
961.106	0.0143907
961.184	0.0144913
961.262	0.0144407
961.340	0.0144624
961.418	0.0145449
961.496	0.0145004
961.575	0.0144877
961.653	0.0144160
961.731	0.0145636
961.809	0.0144987
961.887	0.0144432
961.965	0.0145975
962.043	0.0143354
962.121	0.0143590
962.200	0.0143810
962.278	0.0145113
962.356	0.0144144
962.434	0.0143047
962.512	0.0142963
962.590	0.0142951
962.668	0.0143114
962.746	0.0143092
962.825	0.0143372
962.903	0.0143233
962.981	0.0143336
963.059	0.0143430
963.137	0.0142181
963.215	0.0144725
963.293	0.0143835
963.371	0.0144448
963.450	0.0143877
963.528	0.0143023
963.606	0.0142607
963.684	0.0142612
963.762	0.0144956
963.840	0.0144107
963.918	0.0143926
963.996	0.0143853
964.075	0.0143961
964.153	0.0143315
964.231	0.0143046
964.309	0.0143456
964.387	0.0144431
964.465	0.0144291
964.543	0.0144024
964.621	0.0142735
964.700	0.0143816
964.778	0.0143485
964.856	0.0142348
964.934	0.0143684
965.012	0.0144577
965.090	0.0142953
965.168	0.0143864
965.246	0.0143977
965.325	0.0144708
965.403	0.0144941
965.481	0.0145221
965.559	0.0143184
965.637	0.0143800
965.715	0.0144181
965.793	0.0146204
965.871	0.0144205
965.950	0.0143581
966.028	0.0143439
966.106	0.0143412
966.184	0.0144182
966.262	0.0144014
966.340	0.0144767
966.418	0.0144093
966.496	0.0145259
966.575	0.0145303
966.653	0.0145443
966.731	0.0145735
966.809	0.0144341
966.887	0.0145059
966.965	0.0144513
967.043	0.0144794
967.121	0.0146325
967.200	0.0143921
967.278	0.0143790
967.356	0.0144630
967.434	0.0144824
967.512	0.0145114
967.590	0.0144193
967.668	0.0144415
967.746	0.0144044
967.825	0.0145309
967.903	0.0144789
967.981	0.0145031
968.059	0.0144614
968.137	0.0144905
968.215	0.0144275
968.293	0.0141885
968.371	0.0143367
968.450	0.0144828
968.528	0.0142470
968.606	0.0142832
968.684	0.0143546
968.762	0.0143157
968.840	0.0143032
968.918	0.0143063
968.996	0.0143658
969.075	0.0143542
969.153	0.0143490
969.231	0.0143254
969.309	0.0143637
969.387	0.0143753
969.465	0.0145277
969.543	0.0143224
969.621	0.0144528
969.700	0.0145663
969.778	0.0144890
969.856	0.0144269
969.934	0.0144076
970.012	0.0144675
970.090	0.0145061
970.168	0.0146423
970.246	0.0144343
970.325	0.0143619
970.403	0.0144174
970.481	0.0143712
970.559	0.0144189
970.637	0.0144781
970.715	0.0144261
970.793	0.0144048
970.871	0.0145348
970.950	0.0142538
971.028	0.0143050
971.106	0.0145319
971.184	0.0144350
971.262	0.0143293
971.340	0.0144611
971.418	0.0145953
971.496	0.0145476
971.575	0.0144090
971.653	0.0144429
971.731	0.0145316
971.809	0.0144927
971.887	0.0143960
971.965	0.0145561
972.043	0.0145599
972.121	0.0145135
972.200	0.0145274
972.278	0.0145834
972.356	0.0145570
972.434	0.0144199
972.512	0.0144939
972.590	0.0144920
972.668	0.0145489
972.746	0.0145265
972.825	0.0145397
972.903	0.0145099
972.981	0.0145061
973.059	0.0146181
973.137	0.0144244
973.215	0.0144586
973.293	0.0145235
973.371	0.0144032
973.450	0.0143896
973.528	0.0144989
973.606	0.0145101
973.684	0.0145448
973.762	0.0144942
973.840	0.0144479
973.918	0.0144848
973.996	0.0145643
974.075	0.0143921
974.153	0.0144136
974.231	0.0144683
974.309	0.0144046
974.387	0.0145146
974.465	0.0144991
974.543	0.0143479
974.621	0.0144466
974.700	0.0143613
974.778	0.0142873
974.856	0.0144553
974.934	0.0144443
975.012	0.0144057
975.090	0.0144725
975.168	0.0145490
975.246	0.0145518
975.325	0.0145208
975.403	0.0145762
975.481	0.0143198
975.559	0.0145502
975.637	0.0145845
975.715	0.0146238
975.793	0.0145880
975.871	0.0145337
975.950	0.0144257
976.028	0.0145329
976.106	0.0144188
976.184	0.0145116
976.262	0.0144788
976.340	0.0145872
976.418	0.0145192
976.496	0.0144102
976.575	0.0144117
976.653	0.0144212
976.731	0.0144611
976.809	0.0144189
976.887	0.0143918
976.965	0.0145462
977.043	0.0145378
977.121	0.0142998
977.200	0.0145060
977.278	0.0143492
977.356	0.0143156
977.434	0.0143988
977.512	0.0145822
977.590	0.0146086
977.668	0.0145365
977.746	0.0145113
977.825	0.0146683
977.903	0.0146577
977.981	0.0147052
978.059	0.0147182
978.137	0.0146410
978.215	0.0145735
978.293	0.0145458
978.371	0.0146669
978.450	0.0146536
978.528	0.0146434
978.606	0.0143623
978.684	0.0143935
978.762	0.0145512
978.840	0.0143733
978.918	0.0143857
978.996	0.0142272
979.075	0.0144508
979.153	0.0142779
979.231	0.0142888
979.309	0.0143227
979.387	0.0142344
979.465	0.0141641
979.543	0.0143794
979.621	0.0143532
979.700	0.0142757
979.778	0.0143878
979.856	0.0143326
979.934	0.0144180
980.012	0.0143977
980.090	0.0144012
980.168	0.0144973
980.246	0.0144753
980.325	0.0144131
980.403	0.0144706
980.481	0.0145258
980.559	0.0144497
980.637	0.0145301
980.715	0.0144379
980.793	0.0144263
980.871	0.0143773
980.950	0.0144168
981.028	0.0143301
981.106	0.0143442
981.184	0.0143314
981.262	0.0144859
981.340	0.0143069
981.418	0.0143896
981.496	0.0144514
981.575	0.0144829
981.653	0.0144709
981.731	0.0143455
981.809	0.0143539
981.887	0.0143778
981.965	0.0144280
982.043	0.0144388
982.121	0.0144302
982.200	0.0145418
982.278	0.0144381
982.356	0.0144046
982.434	0.0145754
982.512	0.0144591
982.590	0.0145133
982.668	0.0145310
982.746	0.0145469
982.825	0.0144540
982.903	0.0145925
982.981	0.0145182
983.059	0.0144125
983.137	0.0143717
983.215	0.0143968
983.293	0.0144542
983.371	0.0145239
983.450	0.0144776
983.528	0.0143653
983.606	0.0145083
983.684	0.0143554
983.762	0.0144778
983.840	0.0144384
983.918	0.0144368
983.996	0.0143515
984.075	0.0142922
984.153	0.0143423
984.231	0.0144592
984.309	0.0144162
984.387	0.0143414
984.465	0.0143339
984.543	0.0144826
984.621	0.0144276
984.700	0.0143540
984.778	0.0143955
984.856	0.0143777
984.934	0.0143259
985.012	0.0145214
985.090	0.0144708
985.168	0.0145415
985.246	0.0144195
985.325	0.0144480
985.403	0.0143822
985.481	0.0143995
985.559	0.0144508
985.637	0.0145838
985.715	0.0145367
985.793	0.0143623
985.871	0.0144617
985.950	0.0144128
986.028	0.0144183
986.106	0.0143732
986.184	0.0143089
986.262	0.0142931
986.340	0.0142923
986.418	0.0142817
986.496	0.0143607
986.575	0.0142274
986.653	0.0143278
986.731	0.0144551
986.809	0.0144155
986.887	0.0143455
986.965	0.0143149
987.043	0.0142764
987.121	0.0143272
987.200	0.0143916
987.278	0.0142133
987.356	0.0143462
987.434	0.0145168
987.512	0.0145642
987.590	0.0146016
987.668	0.0144141
987.746	0.0144850
987.825	0.0145095
987.903	0.0144770
987.981	0.0144978
988.059	0.0145372
988.137	0.0144833
988.215	0.0145166
988.293	0.0145285
988.371	0.0145581
988.450	0.0143214
988.528	0.0144099
988.606	0.0143261
988.684	0.0144380
988.762	0.0143808
988.840	0.0144463
988.918	0.0144244
988.996	0.0143044
989.075	0.0142998
989.153	0.0144408
989.231	0.0144020
989.309	0.0143078
989.387	0.0142956
989.465	0.0144894
989.543	0.0143900
989.621	0.0144359
989.700	0.0144351
989.778	0.0143597
989.856	0.0145211
989.934	0.0145112
990.012	0.0144487
990.090	0.0143722
990.168	0.0143923
990.246	0.0145264
990.325	0.0144265
990.403	0.0144177
990.481	0.0145208
990.559	0.0143748
990.637	0.0142715
990.715	0.0144873
990.793	0.0146492
990.871	0.0144901
990.950	0.0144278
991.028	0.0144888
991.106	0.0144264
991.184	0.0145380
991.262	0.0143906
991.340	0.0145257
991.418	0.0145581
991.496	0.0143982
991.575	0.0144220
991.653	0.0144920
991.731	0.0145454
991.809	0.0143830
991.887	0.0145290
991.965	0.0145229
992.043	0.0143989
992.121	0.0145522
992.200	0.0144492
992.278	0.0144175
992.356	0.0143974
992.434	0.0144222
992.512	0.0144440
992.590	0.0143870
992.668	0.0144521
992.746	0.0146379
992.825	0.0145603
992.903	0.0144213
992.981	0.0145234
993.059	0.0143924
993.137	0.0144653
993.215	0.0144401
993.293	0.0144022
993.371	0.0143684
993.450	0.0144468
993.528	0.0144286
993.606	0.0143738
993.684	0.0144923
993.762	0.0144465
993.840	0.0144003
993.918	0.0144962
993.996	0.0143710
994.075	0.0145033
994.153	0.0144144
994.231	0.0145968
994.309	0.0144643
994.387	0.0143942
994.465	0.0144870
994.543	0.0145249
994.621	0.0145782
994.700	0.0145869
994.778	0.0144601
994.856	0.0145092
994.934	0.0144718
995.012	0.0143000
995.090	0.0143929
995.168	0.0143967
995.246	0.0144122
995.325	0.0143298
995.403	0.0143282
995.481	0.0142587
995.559	0.0143609
995.637	0.0144066
995.715	0.0143162
995.793	0.0143623
995.871	0.0143497
995.950	0.0143776
996.028	0.0143325
996.106	0.0143066
996.184	0.0145616
996.262	0.0145853
996.340	0.0144253
996.418	0.0144019
996.496	0.0144485
996.575	0.0144085
996.653	0.0144331
996.731	0.0144354
996.809	0.0144788
996.887	0.0144922
996.965	0.0144389
997.043	0.0144795
997.121	0.0145012
997.200	0.0145043
997.278	0.0144249
997.356	0.0144498
997.434	0.0145449
997.512	0.0145072
997.590	0.0145243
997.668	0.0143553
997.746	0.0144035
997.825	0.0145780
997.903	0.0143416
997.981	0.0142564
998.059	0.0143378
998.137	0.0143343
998.215	0.0142995
998.293	0.0142487
998.371	0.0143958
998.450	0.0142819
998.528	0.0144975
998.606	0.0144566
998.684	0.0144482
998.762	0.0144989
998.840	0.0143948
998.918	0.0144635
