05/04/2022	21:19:43	Ver.	4.1	UNKNOWN
Optical Delay	678.996401	Delta X		0.078125	Sweeps	1	Scan Rate	0/0
Coordinates	Axis 1	NaN	Axis 2	NaN	Axis 3	NaN	Axis 4	NaN	Axis 5	NaN	Axis 6	0.000000
TX Power	0.000000	RX Power	0.000000

678.996	0.0145257
679.075	0.0144744
679.153	0.0144402
679.231	0.0144868
679.309	0.0143613
679.387	0.0145071
679.465	0.0144407
679.543	0.0145500
679.621	0.0144550
679.700	0.0146031
679.778	0.0146410
679.856	0.0146463
679.934	0.0146822
680.012	0.0146593
680.090	0.0146375
680.168	0.0147705
680.246	0.0147271
680.325	0.0146784
680.403	0.0146626
680.481	0.0145569
680.559	0.0145054
680.637	0.0145879
680.715	0.0144143
680.793	0.0143500
680.871	0.0143906
680.950	0.0143572
681.028	0.0142103
681.106	0.0142202
681.184	0.0143932
681.262	0.0143201
681.340	0.0143642
681.418	0.0145419
681.496	0.0145114
681.575	0.0145782
681.653	0.0145638
681.731	0.0145689
681.809	0.0145975
681.887	0.0146909
681.965	0.0147017
682.043	0.0147025
682.121	0.0146487
682.200	0.0147346
682.278	0.0147935
682.356	0.0146601
682.434	0.0145260
682.512	0.0146424
682.590	0.0146101
682.668	0.0144699
682.746	0.0145808
682.825	0.0144862
682.903	0.0143463
682.981	0.0143288
683.059	0.0143533
683.137	0.0144186
683.215	0.0143410
683.293	0.0142873
683.371	0.0144204
683.450	0.0143864
683.528	0.0144448
683.606	0.0143887
683.684	0.0143585
683.762	0.0144514
683.840	0.0144308
683.918	0.0144305
683.996	0.0145521
684.075	0.0145499
684.153	0.0145243
684.231	0.0145967
684.309	0.0144865
684.387	0.0145570
684.465	0.0144163
684.543	0.0144200
684.621	0.0144205
684.700	0.0145843
684.778	0.0144029
684.856	0.0144696
684.934	0.0144669
685.012	0.0144023
685.090	0.0144539
685.168	0.0143894
685.246	0.0143382
685.325	0.0144616
685.403	0.0143204
685.481	0.0144451
685.559	0.0145990
685.637	0.0145018
685.715	0.0145432
685.793	0.0144978
685.871	0.0145596
685.950	0.0145905
686.028	0.0146033
686.106	0.0146275
686.184	0.0145506
686.262	0.0146999
686.340	0.0145397
686.418	0.0145871
686.496	0.0144180
686.575	0.0145730
686.653	0.0145710
686.731	0.0146140
686.809	0.0145763
686.887	0.0145078
686.965	0.0143922
687.043	0.0144846
687.121	0.0144066
687.200	0.0145190
687.278	0.0144638
687.356	0.0144692
687.434	0.0144769
687.512	0.0143756
687.590	0.0142535
687.668	0.0143663
687.746	0.0144385
687.825	0.0144044
687.903	0.0144499
687.981	0.0146201
688.059	0.0146046
688.137	0.0146130
688.215	0.0147032
688.293	0.0146732
688.371	0.0145856
688.450	0.0146244
688.528	0.0146645
688.606	0.0147869
688.684	0.0147716
688.762	0.0147539
688.840	0.0146414
688.918	0.0145732
688.996	0.0146431
689.075	0.0145424
689.153	0.0145683
689.231	0.0145421
689.309	0.0145515
689.387	0.0145518
689.465	0.0144120
689.543	0.0144496
689.621	0.0143444
689.700	0.0143025
689.778	0.0142487
689.856	0.0143679
689.934	0.0143551
690.012	0.0143971
690.090	0.0144167
690.168	0.0144050
690.246	0.0144601
690.325	0.0144816
690.403	0.0144069
690.481	0.0142749
690.559	0.0144519
690.637	0.0145433
690.715	0.0143129
690.793	0.0144250
690.871	0.0146010
690.950	0.0145407
691.028	0.0145245
691.106	0.0145612
691.184	0.0144073
691.262	0.0144674
691.340	0.0146347
691.418	0.0144879
691.496	0.0145233
691.575	0.0145390
691.653	0.0144479
691.731	0.0145435
691.809	0.0144241
691.887	0.0144556
691.965	0.0143897
692.043	0.0143442
692.121	0.0144132
692.200	0.0144688
692.278	0.0144411
692.356	0.0144622
692.434	0.0142919
692.512	0.0143428
692.590	0.0144523
692.668	0.0144380
692.746	0.0145039
692.825	0.0144148
692.903	0.0144774
692.981	0.0144217
693.059	0.0145536
693.137	0.0143878
693.215	0.0144471
693.293	0.0145822
693.371	0.0146362
693.450	0.0144504
693.528	0.0146317
693.606	0.0146667
693.684	0.0147735
693.762	0.0145739
693.840	0.0146442
693.918	0.0146680
693.996	0.0147022
694.075	0.0146323
694.153	0.0146043
694.231	0.0144477
694.309	0.0142953
694.387	0.0143053
694.465	0.0142364
694.543	0.0143402
694.621	0.0142982
694.700	0.0143090
694.778	0.0143834
694.856	0.0144283
694.934	0.0144876
695.012	0.0144489
695.090	0.0146070
695.168	0.0146651
695.246	0.0147289
695.325	0.0147489
695.403	0.0148191
695.481	0.0148038
695.559	0.0147488
695.637	0.0147018
695.715	0.0146996
695.793	0.0144942
695.871	0.0144686
695.950	0.0144697
696.028	0.0141946
696.106	0.0141621
696.184	0.0142085
696.262	0.0140070
696.340	0.0141164
696.418	0.0143302
696.496	0.0142731
696.575	0.0143495
696.653	0.0145637
696.731	0.0147909
696.809	0.0148788
696.887	0.0148740
696.965	0.0147221
697.043	0.0149055
697.121	0.0147886
697.200	0.0144711
697.278	0.0144871
697.356	0.0141670
697.434	0.0141986
697.512	0.0140758
697.590	0.0141415
697.668	0.0140283
697.746	0.0142324
697.825	0.0142605
697.903	0.0144577
697.981	0.0145160
698.059	0.0147440
698.137	0.0149786
698.215	0.0149972
698.293	0.0149155
698.371	0.0148569
698.450	0.0146921
698.528	0.0145300
698.606	0.0143764
698.684	0.0141628
698.762	0.0141500
698.840	0.0139452
698.918	0.0140130
698.996	0.0140247
699.075	0.0140519
699.153	0.0141045
699.231	0.0141446
699.309	0.0142928
699.387	0.0143926
699.465	0.0145560
699.543	0.0146472
699.621	0.0147577
699.700	0.0149863
699.778	0.0152229
699.856	0.0153563
699.934	0.0153526
700.012	0.0152677
700.090	0.0152367
700.168	0.0149520
700.246	0.0146493
700.325	0.0143140
700.403	0.0141153
700.481	0.0137607
700.559	0.0136455
700.637	0.0135467
700.715	0.0134375
700.793	0.0136597
700.871	0.0139855
700.950	0.0142985
701.028	0.0145240
701.106	0.0150157
701.184	0.0152887
701.262	0.0154507
701.340	0.0153960
701.418	0.0152750
701.496	0.0152258
701.575	0.0150735
701.653	0.0147919
701.731	0.0144383
701.809	0.0142671
701.887	0.0139233
701.965	0.0137530
702.043	0.0135879
702.121	0.0137139
702.200	0.0137048
702.278	0.0138563
702.356	0.0139301
702.434	0.0142506
702.512	0.0144350
702.590	0.0147350
702.668	0.0150264
702.746	0.0151447
702.825	0.0152708
702.903	0.0153192
702.981	0.0151807
703.059	0.0151067
703.137	0.0150182
703.215	0.0148954
703.293	0.0146996
703.371	0.0146961
703.450	0.0144179
703.528	0.0142311
703.606	0.0138480
703.684	0.0139288
703.762	0.0138706
703.840	0.0137740
703.918	0.0138229
703.996	0.0139442
704.075	0.0144249
704.153	0.0145532
704.231	0.0148333
704.309	0.0149625
704.387	0.0151317
704.465	0.0151866
704.543	0.0151033
704.621	0.0149522
704.700	0.0147536
704.778	0.0145542
704.856	0.0144810
704.934	0.0142239
705.012	0.0140621
705.090	0.0140549
705.168	0.0140018
705.246	0.0141634
705.325	0.0141586
705.403	0.0143676
705.481	0.0143956
705.559	0.0143916
705.637	0.0145145
705.715	0.0145557
705.793	0.0144928
705.871	0.0143365
705.950	0.0145731
706.028	0.0146405
706.106	0.0146989
706.184	0.0147526
706.262	0.0148052
706.340	0.0148859
706.418	0.0147739
706.496	0.0146913
706.575	0.0144029
706.653	0.0145044
706.731	0.0143481
706.809	0.0140556
706.887	0.0140929
706.965	0.0141565
707.043	0.0142891
707.121	0.0143399
707.200	0.0145737
707.278	0.0146609
707.356	0.0147343
707.434	0.0148594
707.512	0.0148529
707.590	0.0149622
707.668	0.0148097
707.746	0.0145998
707.825	0.0144059
707.903	0.0143416
707.981	0.0143550
708.059	0.0142919
708.137	0.0142799
708.215	0.0141785
708.293	0.0143368
708.371	0.0142776
708.450	0.0143225
708.528	0.0141896
708.606	0.0142097
708.684	0.0141805
708.762	0.0140031
708.840	0.0141963
708.918	0.0142544
708.996	0.0142850
709.075	0.0143842
709.153	0.0146729
709.231	0.0147171
709.309	0.0149686
709.387	0.0150678
709.465	0.0151693
709.543	0.0153997
709.621	0.0153910
709.700	0.0151656
709.778	0.0148605
709.856	0.0146764
709.934	0.0145258
710.012	0.0144278
710.090	0.0140804
710.168	0.0138514
710.246	0.0137817
710.325	0.0136704
710.403	0.0136232
710.481	0.0135598
710.559	0.0135594
710.637	0.0136063
710.715	0.0136800
710.793	0.0138733
710.871	0.0141501
710.950	0.0143066
711.028	0.0144424
711.106	0.0147854
711.184	0.0148564
711.262	0.0150074
711.340	0.0150748
711.418	0.0151717
711.496	0.0151189
711.575	0.0150262
711.653	0.0149696
711.731	0.0148213
711.809	0.0146338
711.887	0.0144436
711.965	0.0142712
712.043	0.0142102
712.121	0.0141945
712.200	0.0138892
712.278	0.0139254
712.356	0.0137344
712.434	0.0138165
712.512	0.0138574
712.590	0.0137532
712.668	0.0138538
712.746	0.0140151
712.825	0.0142590
712.903	0.0145485
712.981	0.0149109
713.059	0.0151402
713.137	0.0153417
713.215	0.0155643
713.293	0.0156270
713.371	0.0156089
713.450	0.0154584
713.528	0.0154448
713.606	0.0150237
713.684	0.0146577
713.762	0.0143898
713.840	0.0141321
713.918	0.0139652
713.996	0.0138400
714.075	0.0136947
714.153	0.0137221
714.231	0.0135854
714.309	0.0138133
714.387	0.0139389
714.465	0.0140086
714.543	0.0140606
714.621	0.0141942
714.700	0.0144294
714.778	0.0146481
714.856	0.0148042
714.934	0.0148138
715.012	0.0149711
715.090	0.0150304
715.168	0.0146948
715.246	0.0149323
715.325	0.0148608
715.403	0.0147465
715.481	0.0146830
715.559	0.0146293
715.637	0.0145975
715.715	0.0145261
715.793	0.0144305
715.871	0.0144660
715.950	0.0143765
716.028	0.0145499
716.106	0.0145286
716.184	0.0143420
716.262	0.0141975
716.340	0.0141997
716.418	0.0143762
716.496	0.0142017
716.575	0.0141599
716.653	0.0143052
716.731	0.0145305
716.809	0.0144846
716.887	0.0145435
716.965	0.0146078
717.043	0.0148314
717.121	0.0147586
717.200	0.0148999
717.278	0.0148205
717.356	0.0148011
717.434	0.0148840
717.512	0.0148141
717.590	0.0147467
717.668	0.0146716
717.746	0.0145883
717.825	0.0145589
717.903	0.0146157
717.981	0.0143635
718.059	0.0144156
718.137	0.0143655
718.215	0.0141766
718.293	0.0140781
718.371	0.0140529
718.450	0.0141936
718.528	0.0143761
718.606	0.0144260
718.684	0.0143565
718.762	0.0142537
718.840	0.0143616
718.918	0.0144707
718.996	0.0144404
719.075	0.0144313
719.153	0.0145303
719.231	0.0146060
719.309	0.0146307
719.387	0.0146790
719.465	0.0146067
719.543	0.0145297
719.621	0.0145322
719.700	0.0144386
719.778	0.0144763
719.856	0.0145660
719.934	0.0145619
720.012	0.0145402
720.090	0.0144490
720.168	0.0146023
720.246	0.0145302
720.325	0.0146529
720.403	0.0146130
720.481	0.0145812
720.559	0.0146172
720.637	0.0146095
720.715	0.0145623
720.793	0.0145895
720.871	0.0145733
720.950	0.0146268
721.028	0.0145910
721.106	0.0147691
721.184	0.0146694
721.262	0.0147325
721.340	0.0146436
721.418	0.0147838
721.496	0.0147186
721.575	0.0147297
721.653	0.0147613
721.731	0.0146525
721.809	0.0146200
721.887	0.0144714
721.965	0.0143005
722.043	0.0142926
722.121	0.0142068
722.200	0.0139457
722.278	0.0139230
722.356	0.0139297
722.434	0.0138802
722.512	0.0136741
722.590	0.0137027
722.668	0.0136028
722.746	0.0138365
722.825	0.0138245
722.903	0.0141076
722.981	0.0144897
723.059	0.0145722
723.137	0.0148092
723.215	0.0150345
723.293	0.0152034
723.371	0.0151968
723.450	0.0151434
723.528	0.0153052
723.606	0.0150369
723.684	0.0149511
723.762	0.0148714
723.840	0.0146880
723.918	0.0147700
723.996	0.0145393
724.075	0.0145440
724.153	0.0145360
724.231	0.0145103
724.309	0.0145628
724.387	0.0143975
724.465	0.0144517
724.543	0.0145256
724.621	0.0144241
724.700	0.0143196
724.778	0.0144123
724.856	0.0144063
724.934	0.0143731
725.012	0.0144930
725.090	0.0144206
725.168	0.0144010
725.246	0.0145088
725.325	0.0143816
725.403	0.0143867
725.481	0.0144967
725.559	0.0145287
725.637	0.0145812
725.715	0.0146638
725.793	0.0145583
725.871	0.0146461
725.950	0.0145739
726.028	0.0145413
726.106	0.0145066
726.184	0.0145164
726.262	0.0144170
726.340	0.0143266
726.418	0.0143223
726.496	0.0141576
726.575	0.0141586
726.653	0.0140575
726.731	0.0141031
726.809	0.0140525
726.887	0.0140742
726.965	0.0140863
727.043	0.0142274
727.121	0.0144466
727.200	0.0144525
727.278	0.0145316
727.356	0.0146622
727.434	0.0146703
727.512	0.0146877
727.590	0.0147601
727.668	0.0148241
727.746	0.0148478
727.825	0.0147562
727.903	0.0145289
727.981	0.0147138
728.059	0.0146726
728.137	0.0145720
728.215	0.0146648
728.293	0.0144656
728.371	0.0144965
728.450	0.0145783
728.528	0.0144254
728.606	0.0144125
728.684	0.0142785
728.762	0.0143608
728.840	0.0142947
728.918	0.0141233
728.996	0.0141310
729.075	0.0142170
729.153	0.0141167
729.231	0.0140624
729.309	0.0141598
729.387	0.0141872
729.465	0.0142579
729.543	0.0142780
729.621	0.0144781
729.700	0.0145248
729.778	0.0145131
729.856	0.0147177
729.934	0.0147791
730.012	0.0146874
730.090	0.0148795
730.168	0.0149409
730.246	0.0149923
730.325	0.0148756
730.403	0.0148781
730.481	0.0147189
730.559	0.0147432
730.637	0.0146167
730.715	0.0145000
730.793	0.0144447
730.871	0.0142912
730.950	0.0142680
731.028	0.0142748
731.106	0.0141297
731.184	0.0140537
731.262	0.0141228
731.340	0.0143237
731.418	0.0143056
731.496	0.0143396
731.575	0.0143877
731.653	0.0144937
731.731	0.0146043
731.809	0.0146706
731.887	0.0147381
731.965	0.0148435
732.043	0.0148597
732.121	0.0147299
732.200	0.0148090
732.278	0.0146609
732.356	0.0145303
732.434	0.0143049
732.512	0.0143574
732.590	0.0143338
732.668	0.0141573
732.746	0.0141143
732.825	0.0141932
732.903	0.0141705
732.981	0.0141373
733.059	0.0141325
733.137	0.0141557
733.215	0.0142319
733.293	0.0142088
733.371	0.0141910
733.450	0.0143460
733.528	0.0144632
733.606	0.0145040
733.684	0.0147575
733.762	0.0147026
733.840	0.0145517
733.918	0.0147064
733.996	0.0147674
734.075	0.0146851
734.153	0.0148517
734.231	0.0149024
734.309	0.0146964
734.387	0.0146685
734.465	0.0146516
734.543	0.0146289
734.621	0.0146047
734.700	0.0145510
734.778	0.0144769
734.856	0.0144663
734.934	0.0144326
735.012	0.0146457
735.090	0.0146209
735.168	0.0145627
735.246	0.0143930
735.325	0.0146235
735.403	0.0146279
735.481	0.0146019
735.559	0.0146547
735.637	0.0147314
735.715	0.0144780
735.793	0.0145091
735.871	0.0144707
735.950	0.0145721
736.028	0.0144058
736.106	0.0144971
736.184	0.0145753
736.262	0.0145796
736.340	0.0145435
736.418	0.0145373
736.496	0.0143659
736.575	0.0144366
736.653	0.0143449
736.731	0.0143755
736.809	0.0143636
736.887	0.0144649
736.965	0.0142852
737.043	0.0144338
737.121	0.0143840
737.200	0.0144691
737.278	0.0143824
737.356	0.0143599
737.434	0.0144036
737.512	0.0145875
737.590	0.0146191
737.668	0.0145768
737.746	0.0147861
737.825	0.0147257
737.903	0.0148460
737.981	0.0147215
738.059	0.0147980
738.137	0.0148267
738.215	0.0147729
738.293	0.0147221
738.371	0.0148004
738.450	0.0147215
738.528	0.0146537
738.606	0.0144665
738.684	0.0145635
738.762	0.0145544
738.840	0.0146364
738.918	0.0144217
738.996	0.0143986
739.075	0.0145826
739.153	0.0146301
739.231	0.0143743
739.309	0.0145764
739.387	0.0145659
739.465	0.0145132
739.543	0.0145804
739.621	0.0145174
739.700	0.0145285
739.778	0.0144667
739.856	0.0144955
739.934	0.0144745
740.012	0.0144293
740.090	0.0144180
740.168	0.0143828
740.246	0.0144546
740.325	0.0144020
740.403	0.0144411
740.481	0.0143640
740.559	0.0142395
740.637	0.0142269
740.715	0.0143317
740.793	0.0143700
740.871	0.0144310
740.950	0.0144316
741.028	0.0141779
741.106	0.0143803
741.184	0.0143463
741.262	0.0144550
741.340	0.0144942
741.418	0.0145958
741.496	0.0144094
741.575	0.0146215
741.653	0.0146143
741.731	0.0145935
741.809	0.0146007
741.887	0.0145147
741.965	0.0145934
742.043	0.0145471
742.121	0.0145473
742.200	0.0144376
742.278	0.0144303
742.356	0.0144160
742.434	0.0143586
742.512	0.0145255
742.590	0.0146266
742.668	0.0145506
742.746	0.0144736
742.825	0.0144699
742.903	0.0145776
742.981	0.0145026
743.059	0.0146402
743.137	0.0146706
743.215	0.0146100
743.293	0.0146061
743.371	0.0144485
743.450	0.0144503
743.528	0.0145689
743.606	0.0146561
743.684	0.0145002
743.762	0.0144090
743.840	0.0143933
743.918	0.0144603
743.996	0.0145348
744.075	0.0143153
744.153	0.0144025
744.231	0.0144431
744.309	0.0143861
744.387	0.0143443
744.465	0.0144865
744.543	0.0144792
744.621	0.0143167
744.700	0.0141991
744.778	0.0142249
744.856	0.0143420
744.934	0.0142884
745.012	0.0143136
745.090	0.0143185
745.168	0.0143163
745.246	0.0143934
745.325	0.0142455
745.403	0.0143547
745.481	0.0143475
745.559	0.0143817
745.637	0.0144552
745.715	0.0143784
745.793	0.0144864
745.871	0.0145542
745.950	0.0145297
746.028	0.0147079
746.106	0.0146352
746.184	0.0145941
746.262	0.0147531
746.340	0.0145966
746.418	0.0146489
746.496	0.0147736
746.575	0.0144957
746.653	0.0144013
746.731	0.0145283
746.809	0.0144984
746.887	0.0145100
746.965	0.0144757
747.043	0.0144478
747.121	0.0145086
747.200	0.0145297
747.278	0.0145834
747.356	0.0145548
747.434	0.0145762
747.512	0.0144863
747.590	0.0144827
747.668	0.0144716
747.746	0.0144017
747.825	0.0145610
747.903	0.0145348
747.981	0.0144812
748.059	0.0144776
748.137	0.0144604
748.215	0.0144408
748.293	0.0144208
748.371	0.0144232
748.450	0.0143419
748.528	0.0144130
748.606	0.0141768
748.684	0.0142879
748.762	0.0142359
748.840	0.0141581
748.918	0.0140595
748.996	0.0142488
749.075	0.0141256
749.153	0.0142873
749.231	0.0142793
749.309	0.0142723
749.387	0.0143036
749.465	0.0142151
749.543	0.0142310
749.621	0.0143969
749.700	0.0143448
749.778	0.0143330
749.856	0.0143874
749.934	0.0144585
750.012	0.0143014
750.090	0.0144522
750.168	0.0147053
750.246	0.0145824
750.325	0.0144887
750.403	0.0146023
750.481	0.0145358
750.559	0.0145587
750.637	0.0147057
750.715	0.0146500
750.793	0.0146252
750.871	0.0145609
750.950	0.0145552
751.028	0.0146321
751.106	0.0146822
751.184	0.0146712
751.262	0.0146802
751.340	0.0147020
751.418	0.0145756
751.496	0.0144924
751.575	0.0146893
751.653	0.0147533
751.731	0.0145821
751.809	0.0146227
751.887	0.0146645
751.965	0.0145837
752.043	0.0144140
752.121	0.0145439
752.200	0.0146525
752.278	0.0145347
752.356	0.0144409
752.434	0.0144544
752.512	0.0143696
752.590	0.0144257
752.668	0.0143674
752.746	0.0144176
752.825	0.0143092
752.903	0.0142781
752.981	0.0143745
753.059	0.0142477
753.137	0.0144035
753.215	0.0142667
753.293	0.0142926
753.371	0.0144762
753.450	0.0142637
753.528	0.0143166
753.606	0.0144385
753.684	0.0143625
753.762	0.0144183
753.840	0.0143212
753.918	0.0145107
753.996	0.0145953
754.075	0.0143886
754.153	0.0145831
754.231	0.0144445
754.309	0.0145601
754.387	0.0144860
754.465	0.0143894
754.543	0.0145007
754.621	0.0145485
754.700	0.0144770
754.778	0.0145814
754.856	0.0145696
754.934	0.0145698
755.012	0.0145355
755.090	0.0145057
755.168	0.0147031
755.246	0.0145479
755.325	0.0146124
755.403	0.0147256
755.481	0.0146930
755.559	0.0146532
755.637	0.0145773
755.715	0.0145039
755.793	0.0145817
755.871	0.0145058
755.950	0.0145502
756.028	0.0144962
756.106	0.0143502
756.184	0.0144633
756.262	0.0144489
756.340	0.0142872
756.418	0.0142056
756.496	0.0143837
756.575	0.0144469
756.653	0.0144311
756.731	0.0144506
756.809	0.0143722
756.887	0.0143678
756.965	0.0145065
757.043	0.0143153
757.121	0.0143791
757.200	0.0143095
757.278	0.0144505
757.356	0.0143456
757.434	0.0143031
757.512	0.0144855
757.590	0.0144081
757.668	0.0144637
757.746	0.0146025
757.825	0.0144698
757.903	0.0143833
757.981	0.0145449
758.059	0.0147566
758.137	0.0147021
758.215	0.0145279
758.293	0.0145825
758.371	0.0145538
758.450	0.0146685
758.528	0.0147669
758.606	0.0147337
758.684	0.0148047
758.762	0.0147682
758.840	0.0146549
758.918	0.0146423
758.996	0.0147152
759.075	0.0147301
759.153	0.0144856
759.231	0.0146329
759.309	0.0146404
759.387	0.0146548
759.465	0.0147011
759.543	0.0145789
759.621	0.0145863
759.700	0.0145413
759.778	0.0146057
759.856	0.0146086
759.934	0.0145307
760.012	0.0144128
760.090	0.0145064
760.168	0.0143539
760.246	0.0143836
760.325	0.0144427
760.403	0.0142966
760.481	0.0144558
760.559	0.0144633
760.637	0.0142899
760.715	0.0144041
760.793	0.0143893
760.871	0.0142702
760.950	0.0145148
761.028	0.0142796
761.106	0.0143180
761.184	0.0145579
761.262	0.0142628
761.340	0.0143991
761.418	0.0143227
761.496	0.0144030
761.575	0.0142783
761.653	0.0144112
761.731	0.0144478
761.809	0.0144086
761.887	0.0146143
761.965	0.0144151
762.043	0.0144338
762.121	0.0143780
762.200	0.0145274
762.278	0.0146455
762.356	0.0146609
762.434	0.0145678
762.512	0.0145492
762.590	0.0146918
762.668	0.0146260
762.746	0.0146343
762.825	0.0145902
762.903	0.0146911
762.981	0.0147659
763.059	0.0147341
763.137	0.0146792
763.215	0.0146855
763.293	0.0146255
763.371	0.0146521
763.450	0.0145481
763.528	0.0145906
763.606	0.0145484
763.684	0.0145658
763.762	0.0144351
763.840	0.0144707
763.918	0.0144226
763.996	0.0144830
764.075	0.0145244
764.153	0.0142477
764.231	0.0144494
764.309	0.0142355
764.387	0.0142955
764.465	0.0142993
764.543	0.0142880
764.621	0.0143448
764.700	0.0142255
764.778	0.0143137
764.856	0.0143494
764.934	0.0144083
765.012	0.0142580
765.090	0.0143981
765.168	0.0142355
765.246	0.0143620
765.325	0.0143246
765.403	0.0142954
765.481	0.0143521
765.559	0.0143982
765.637	0.0143913
765.715	0.0145350
765.793	0.0143571
765.871	0.0143861
765.950	0.0143063
766.028	0.0144088
766.106	0.0144894
766.184	0.0146111
766.262	0.0145733
766.340	0.0145506
766.418	0.0146502
766.496	0.0145052
766.575	0.0145721
766.653	0.0146336
766.731	0.0145022
766.809	0.0145119
766.887	0.0145868
766.965	0.0146655
767.043	0.0146435
767.121	0.0146098
767.200	0.0145647
767.278	0.0145654
767.356	0.0144920
767.434	0.0146220
767.512	0.0146098
767.590	0.0147241
767.668	0.0146861
767.746	0.0145416
767.825	0.0145568
767.903	0.0146288
767.981	0.0146684
768.059	0.0143833
768.137	0.0143771
768.215	0.0144312
768.293	0.0143372
768.371	0.0144670
768.450	0.0143741
768.528	0.0141879
768.606	0.0142737
768.684	0.0143325
768.762	0.0143188
768.840	0.0141447
768.918	0.0142609
768.996	0.0142558
769.075	0.0141061
769.153	0.0141667
769.231	0.0142011
769.309	0.0143651
769.387	0.0141628
769.465	0.0142356
769.543	0.0143513
769.621	0.0144134
769.700	0.0144191
769.778	0.0145684
769.856	0.0144831
769.934	0.0144310
770.012	0.0143813
770.090	0.0145387
770.168	0.0144727
770.246	0.0145324
770.325	0.0144664
770.403	0.0146252
770.481	0.0147934
770.559	0.0146568
770.637	0.0145581
770.715	0.0145586
770.793	0.0145459
770.871	0.0144276
770.950	0.0146385
771.028	0.0145722
771.106	0.0146004
771.184	0.0145717
771.262	0.0146452
771.340	0.0146119
771.418	0.0145787
771.496	0.0146176
771.575	0.0146368
771.653	0.0146130
771.731	0.0145044
771.809	0.0144381
771.887	0.0145660
771.965	0.0146348
772.043	0.0146205
772.121	0.0143152
772.200	0.0144892
772.278	0.0145679
772.356	0.0144347
772.434	0.0143361
772.512	0.0144097
772.590	0.0144942
772.668	0.0145700
772.746	0.0144513
772.825	0.0142874
772.903	0.0144138
772.981	0.0145009
773.059	0.0144779
773.137	0.0144322
773.215	0.0144942
773.293	0.0144567
773.371	0.0144033
773.450	0.0145176
773.528	0.0145580
773.606	0.0144585
773.684	0.0143102
773.762	0.0145470
773.840	0.0144410
773.918	0.0146227
773.996	0.0145575
774.075	0.0144939
774.153	0.0145322
774.231	0.0145370
774.309	0.0146136
774.387	0.0146294
774.465	0.0146239
774.543	0.0145908
774.621	0.0146043
774.700	0.0146875
774.778	0.0146114
774.856	0.0145389
774.934	0.0146547
775.012	0.0147092
775.090	0.0146338
775.168	0.0145959
775.246	0.0145776
775.325	0.0144316
775.403	0.0145705
775.481	0.0145400
775.559	0.0144258
775.637	0.0144746
775.715	0.0145322
775.793	0.0146067
775.871	0.0145735
775.950	0.0145550
776.028	0.0143858
776.106	0.0144159
776.184	0.0144355
776.262	0.0143604
776.340	0.0144530
776.418	0.0144169
776.496	0.0143195
776.575	0.0143275
776.653	0.0144112
776.731	0.0143569
776.809	0.0143473
776.887	0.0141694
776.965	0.0142572
777.043	0.0143061
777.121	0.0143623
777.200	0.0142445
777.278	0.0142500
777.356	0.0144034
777.434	0.0143665
777.512	0.0143599
777.590	0.0143375
777.668	0.0144840
777.746	0.0145302
777.825	0.0144580
777.903	0.0143144
777.981	0.0145332
778.059	0.0144296
778.137	0.0144913
778.215	0.0143658
778.293	0.0145481
778.371	0.0146938
778.450	0.0145525
778.528	0.0145763
778.606	0.0144983
778.684	0.0144858
778.762	0.0146017
778.840	0.0143896
778.918	0.0145947
778.996	0.0146219
779.075	0.0145782
779.153	0.0145797
779.231	0.0146204
779.309	0.0145973
779.387	0.0146822
779.465	0.0145760
779.543	0.0145965
779.621	0.0145679
779.700	0.0145932
779.778	0.0145410
779.856	0.0146458
779.934	0.0143999
780.012	0.0145564
780.090	0.0145302
780.168	0.0146525
780.246	0.0145840
780.325	0.0145537
780.403	0.0143770
780.481	0.0144779
780.559	0.0144131
780.637	0.0144292
780.715	0.0144697
780.793	0.0144662
780.871	0.0145367
780.950	0.0144490
781.028	0.0144875
781.106	0.0143921
781.184	0.0143784
781.262	0.0143882
781.340	0.0144062
781.418	0.0143423
781.496	0.0145273
781.575	0.0144685
781.653	0.0143829
781.731	0.0145438
781.809	0.0146390
781.887	0.0144534
781.965	0.0145783
782.043	0.0146366
782.121	0.0145926
782.200	0.0145506
782.278	0.0146850
782.356	0.0146738
782.434	0.0146259
782.512	0.0147512
782.590	0.0146708
782.668	0.0146597
782.746	0.0146244
782.825	0.0144769
782.903	0.0146249
782.981	0.0144293
783.059	0.0146709
783.137	0.0145839
783.215	0.0146188
783.293	0.0145614
783.371	0.0145438
783.450	0.0144740
783.528	0.0144900
783.606	0.0146276
783.684	0.0145345
783.762	0.0145808
783.840	0.0146879
783.918	0.0147311
783.996	0.0145560
784.075	0.0143562
784.153	0.0144965
784.231	0.0147251
784.309	0.0146978
784.387	0.0144075
784.465	0.0143401
784.543	0.0144294
784.621	0.0143642
784.700	0.0144579
784.778	0.0144057
784.856	0.0143851
784.934	0.0144884
785.012	0.0143628
785.090	0.0143189
785.168	0.0143113
785.246	0.0144467
785.325	0.0143853
785.403	0.0143214
785.481	0.0144597
785.559	0.0143613
785.637	0.0142309
785.715	0.0144818
785.793	0.0144651
785.871	0.0145235
785.950	0.0144314
786.028	0.0145448
786.106	0.0145879
786.184	0.0145536
786.262	0.0144486
786.340	0.0145010
786.418	0.0145451
786.496	0.0144976
786.575	0.0145522
786.653	0.0145553
786.731	0.0145018
786.809	0.0145969
786.887	0.0145779
786.965	0.0143978
787.043	0.0145254
787.121	0.0143988
787.200	0.0145532
787.278	0.0145533
787.356	0.0145911
787.434	0.0144858
787.512	0.0146458
787.590	0.0146370
787.668	0.0144789
787.746	0.0145567
787.825	0.0145381
787.903	0.0145542
787.981	0.0145374
788.059	0.0144748
788.137	0.0145493
788.215	0.0146596
788.293	0.0144083
788.371	0.0145401
788.450	0.0145979
788.528	0.0145590
788.606	0.0146526
788.684	0.0146612
788.762	0.0145725
788.840	0.0145233
788.918	0.0145734
788.996	0.0144114
789.075	0.0143619
789.153	0.0145122
789.231	0.0144358
789.309	0.0144183
789.387	0.0143885
789.465	0.0145241
789.543	0.0145484
789.621	0.0144906
789.700	0.0145527
789.778	0.0144126
789.856	0.0146046
789.934	0.0145240
790.012	0.0146414
790.090	0.0144640
790.168	0.0146579
790.246	0.0145764
790.325	0.0145897
790.403	0.0147638
790.481	0.0146449
790.559	0.0145818
790.637	0.0144321
790.715	0.0144841
790.793	0.0145479
790.871	0.0145530
790.950	0.0144576
791.028	0.0144902
791.106	0.0144293
791.184	0.0142794
791.262	0.0145599
791.340	0.0145289
791.418	0.0146191
791.496	0.0145946
791.575	0.0145271
791.653	0.0144065
791.731	0.0144463
791.809	0.0145846
791.887	0.0144435
791.965	0.0144628
792.043	0.0145485
792.121	0.0144864
792.200	0.0144862
792.278	0.0144000
792.356	0.0143736
792.434	0.0144311
792.512	0.0144340
792.590	0.0145538
792.668	0.0143240
792.746	0.0142686
792.825	0.0145008
792.903	0.0146136
792.981	0.0144057
793.059	0.0145188
793.137	0.0143686
793.215	0.0145498
793.293	0.0145525
793.371	0.0144993
793.450	0.0144322
793.528	0.0145827
793.606	0.0145753
793.684	0.0145141
793.762	0.0144988
793.840	0.0145873
793.918	0.0146626
793.996	0.0145081
794.075	0.0145136
794.153	0.0146053
794.231	0.0146110
794.309	0.0147226
794.387	0.0145624
794.465	0.0145901
794.543	0.0145798
794.621	0.0146605
794.700	0.0145472
794.778	0.0145708
794.856	0.0144900
794.934	0.0145133
795.012	0.0145905
795.090	0.0145842
795.168	0.0146333
795.246	0.0144643
795.325	0.0144860
795.403	0.0144910
795.481	0.0143270
795.559	0.0144563
795.637	0.0145867
795.715	0.0145111
795.793	0.0144347
795.871	0.0145034
795.950	0.0144691
796.028	0.0145604
796.106	0.0145907
796.184	0.0145745
796.262	0.0145592
796.340	0.0144698
796.418	0.0146008
796.496	0.0145663
796.575	0.0146603
796.653	0.0145303
796.731	0.0144895
796.809	0.0145026
796.887	0.0145053
796.965	0.0145239
797.043	0.0144864
797.121	0.0145084
797.200	0.0143831
797.278	0.0144651
797.356	0.0145235
797.434	0.0144132
797.512	0.0142878
797.590	0.0144662
797.668	0.0144281
797.746	0.0144912
797.825	0.0145009
797.903	0.0144251
797.981	0.0143605
798.059	0.0143622
798.137	0.0144524
798.215	0.0145835
798.293	0.0144653
798.371	0.0144736
798.450	0.0144510
798.528	0.0144873
798.606	0.0144584
798.684	0.0145230
798.762	0.0145309
798.840	0.0145694
798.918	0.0144144
798.996	0.0146385
799.075	0.0145622
799.153	0.0145451
799.231	0.0145489
799.309	0.0145295
799.387	0.0146301
799.465	0.0144402
799.543	0.0144492
799.621	0.0144106
799.700	0.0144907
799.778	0.0144777
799.856	0.0145921
799.934	0.0143355
800.012	0.0144093
800.090	0.0144551
800.168	0.0144465
800.246	0.0144772
800.325	0.0146231
800.403	0.0144506
800.481	0.0144370
800.559	0.0145869
800.637	0.0144070
800.715	0.0145445
800.793	0.0144053
800.871	0.0143874
800.950	0.0145500
801.028	0.0145934
801.106	0.0145323
801.184	0.0145016
801.262	0.0144812
801.340	0.0144669
801.418	0.0143790
801.496	0.0143820
801.575	0.0143705
801.653	0.0144615
801.731	0.0144056
801.809	0.0145146
801.887	0.0145786
801.965	0.0144897
802.043	0.0144775
802.121	0.0146947
802.200	0.0146198
802.278	0.0145020
802.356	0.0146294
802.434	0.0145586
802.512	0.0145349
802.590	0.0146386
802.668	0.0146996
802.746	0.0144923
802.825	0.0144476
802.903	0.0145739
802.981	0.0145988
803.059	0.0147533
803.137	0.0145187
803.215	0.0146052
803.293	0.0144229
803.371	0.0145390
803.450	0.0146658
803.528	0.0144955
803.606	0.0143810
803.684	0.0144209
803.762	0.0144556
803.840	0.0143793
803.918	0.0144221
803.996	0.0144804
804.075	0.0144514
804.153	0.0143027
804.231	0.0143227
804.309	0.0143601
804.387	0.0144892
804.465	0.0143225
804.543	0.0142065
804.621	0.0144531
804.700	0.0144798
804.778	0.0144892
804.856	0.0143522
804.934	0.0143397
805.012	0.0143993
805.090	0.0144664
805.168	0.0143947
805.246	0.0142974
805.325	0.0144312
805.403	0.0144338
805.481	0.0143288
805.559	0.0144990
805.637	0.0144649
805.715	0.0144156
805.793	0.0143765
805.871	0.0144673
805.950	0.0145007
806.028	0.0146146
806.106	0.0146057
806.184	0.0145924
806.262	0.0145464
806.340	0.0144007
806.418	0.0143645
806.496	0.0144968
806.575	0.0145502
806.653	0.0144941
806.731	0.0144347
806.809	0.0144032
806.887	0.0143799
806.965	0.0142973
807.043	0.0143392
807.121	0.0143660
807.200	0.0144860
807.278	0.0143865
807.356	0.0143555
807.434	0.0144880
807.512	0.0143059
807.590	0.0145033
807.668	0.0145539
807.746	0.0144837
807.825	0.0143843
807.903	0.0143909
807.981	0.0144455
808.059	0.0145474
808.137	0.0144489
808.215	0.0145424
808.293	0.0144804
808.371	0.0144620
808.450	0.0144763
808.528	0.0144160
808.606	0.0144845
808.684	0.0146571
808.762	0.0145802
808.840	0.0145609
808.918	0.0146234
808.996	0.0145050
809.075	0.0145586
809.153	0.0146540
809.231	0.0146069
809.309	0.0146151
809.387	0.0146706
809.465	0.0145048
809.543	0.0145721
809.621	0.0144617
809.700	0.0145748
809.778	0.0145499
809.856	0.0145203
809.934	0.0146118
810.012	0.0144410
810.090	0.0144819
810.168	0.0145163
810.246	0.0144937
810.325	0.0145789
810.403	0.0145478
810.481	0.0145049
810.559	0.0146445
810.637	0.0146663
810.715	0.0144898
810.793	0.0146536
810.871	0.0146058
810.950	0.0144800
811.028	0.0145314
811.106	0.0145651
811.184	0.0146476
811.262	0.0146198
811.340	0.0145250
811.418	0.0144650
811.496	0.0144463
811.575	0.0143742
811.653	0.0144469
811.731	0.0144348
811.809	0.0144501
811.887	0.0143633
811.965	0.0145081
812.043	0.0144933
812.121	0.0144606
812.200	0.0144932
812.278	0.0145271
812.356	0.0145046
812.434	0.0144778
812.512	0.0145219
812.590	0.0144967
812.668	0.0145313
812.746	0.0144936
812.825	0.0145516
812.903	0.0145013
812.981	0.0144333
813.059	0.0145485
813.137	0.0146842
813.215	0.0145425
813.293	0.0143664
813.371	0.0144629
813.450	0.0144993
813.528	0.0145029
813.606	0.0144611
813.684	0.0144399
813.762	0.0144482
813.840	0.0145783
813.918	0.0145706
813.996	0.0146753
814.075	0.0145711
814.153	0.0145890
814.231	0.0144489
814.309	0.0146066
814.387	0.0146411
814.465	0.0146837
814.543	0.0145280
814.621	0.0145589
814.700	0.0144978
814.778	0.0145213
814.856	0.0145536
814.934	0.0145409
815.012	0.0146043
815.090	0.0145176
815.168	0.0146130
815.246	0.0145650
815.325	0.0145490
815.403	0.0145282
815.481	0.0146907
815.559	0.0146254
815.637	0.0145850
815.715	0.0144975
815.793	0.0146341
815.871	0.0146046
815.950	0.0147526
816.028	0.0145815
816.106	0.0144939
816.184	0.0146205
816.262	0.0146117
816.340	0.0144600
816.418	0.0145547
816.496	0.0146416
816.575	0.0143902
816.653	0.0145267
816.731	0.0143810
816.809	0.0142243
816.887	0.0144586
816.965	0.0144960
817.043	0.0145123
817.121	0.0144662
817.200	0.0143909
817.278	0.0144044
817.356	0.0144987
817.434	0.0144803
817.512	0.0146059
817.590	0.0144771
817.668	0.0144876
817.746	0.0145792
817.825	0.0145645
817.903	0.0145792
817.981	0.0146365
818.059	0.0146327
818.137	0.0146349
818.215	0.0145378
818.293	0.0145924
818.371	0.0145729
818.450	0.0146789
818.528	0.0145289
818.606	0.0143926
818.684	0.0145306
818.762	0.0146075
818.840	0.0145077
818.918	0.0145265
818.996	0.0144829
819.075	0.0145367
819.153	0.0145096
819.231	0.0145024
819.309	0.0143743
819.387	0.0144978
819.465	0.0144704
819.543	0.0145278
819.621	0.0144353
819.700	0.0145451
819.778	0.0145564
819.856	0.0145126
819.934	0.0144287
820.012	0.0146269
820.090	0.0143858
820.168	0.0145824
820.246	0.0145123
820.325	0.0145866
820.403	0.0144379
820.481	0.0143426
820.559	0.0143888
820.637	0.0143462
820.715	0.0145000
820.793	0.0145548
820.871	0.0144637
820.950	0.0144744
821.028	0.0143691
821.106	0.0143523
821.184	0.0143027
821.262	0.0144073
821.340	0.0146184
821.418	0.0143651
821.496	0.0144650
821.575	0.0145036
821.653	0.0143552
821.731	0.0145055
821.809	0.0145696
821.887	0.0144026
821.965	0.0143417
822.043	0.0144661
822.121	0.0143934
822.200	0.0143190
822.278	0.0144318
822.356	0.0143882
822.434	0.0144629
822.512	0.0144073
822.590	0.0142534
822.668	0.0142667
822.746	0.0143848
822.825	0.0144666
822.903	0.0144691
822.981	0.0143949
823.059	0.0145547
823.137	0.0144834
823.215	0.0143415
823.293	0.0144928
823.371	0.0144420
823.450	0.0144760
823.528	0.0144697
823.606	0.0145099
823.684	0.0147197
823.762	0.0146375
823.840	0.0144257
823.918	0.0144783
823.996	0.0146043
824.075	0.0145083
824.153	0.0143848
824.231	0.0145830
824.309	0.0144994
824.387	0.0144949
824.465	0.0146172
824.543	0.0144765
824.621	0.0144708
824.700	0.0144923
824.778	0.0144537
824.856	0.0146428
824.934	0.0145095
825.012	0.0145184
825.090	0.0144692
825.168	0.0144460
825.246	0.0146735
825.325	0.0146624
825.403	0.0144244
825.481	0.0144454
825.559	0.0144192
825.637	0.0144984
825.715	0.0144669
825.793	0.0144297
825.871	0.0145869
825.950	0.0144592
826.028	0.0145485
826.106	0.0146510
826.184	0.0145621
826.262	0.0145918
826.340	0.0144736
826.418	0.0143993
826.496	0.0145772
826.575	0.0144537
826.653	0.0144248
826.731	0.0145545
826.809	0.0144847
826.887	0.0144666
826.965	0.0143668
827.043	0.0144116
827.121	0.0144069
827.200	0.0144131
827.278	0.0144228
827.356	0.0143999
827.434	0.0143992
827.512	0.0144417
827.590	0.0145512
827.668	0.0143914
827.746	0.0143988
827.825	0.0145148
827.903	0.0144882
827.981	0.0143784
828.059	0.0143901
828.137	0.0143934
828.215	0.0146088
828.293	0.0145142
828.371	0.0144608
828.450	0.0143696
828.528	0.0143719
828.606	0.0145055
828.684	0.0144523
828.762	0.0143192
828.840	0.0143192
828.918	0.0142374
828.996	0.0144824
829.075	0.0144370
829.153	0.0144515
829.231	0.0144526
829.309	0.0144321
829.387	0.0144592
829.465	0.0146648
829.543	0.0145521
829.621	0.0147237
829.700	0.0144794
829.778	0.0145814
829.856	0.0145182
829.934	0.0145514
830.012	0.0145631
830.090	0.0147238
830.168	0.0146776
830.246	0.0145843
830.325	0.0145494
830.403	0.0145219
830.481	0.0144988
830.559	0.0144973
830.637	0.0144907
830.715	0.0144941
830.793	0.0145149
830.871	0.0145372
830.950	0.0144683
831.028	0.0143794
831.106	0.0143388
831.184	0.0144830
831.262	0.0144577
831.340	0.0143791
831.418	0.0143850
831.496	0.0144535
831.575	0.0143884
831.653	0.0143817
831.731	0.0143745
831.809	0.0144924
831.887	0.0145111
831.965	0.0144224
832.043	0.0143694
832.121	0.0145020
832.200	0.0145602
832.278	0.0145451
832.356	0.0144621
832.434	0.0144131
832.512	0.0144751
832.590	0.0144754
832.668	0.0144173
832.746	0.0143993
832.825	0.0144682
832.903	0.0143982
832.981	0.0144611
833.059	0.0144855
833.137	0.0144646
833.215	0.0144206
833.293	0.0144403
833.371	0.0143673
833.450	0.0144035
833.528	0.0144186
833.606	0.0144719
833.684	0.0145298
833.762	0.0143591
833.840	0.0144161
833.918	0.0145419
833.996	0.0145078
834.075	0.0144377
834.153	0.0144864
834.231	0.0145551
834.309	0.0145418
834.387	0.0145720
834.465	0.0145740
834.543	0.0145399
834.621	0.0145869
834.700	0.0146414
834.778	0.0145533
834.856	0.0145660
834.934	0.0145228
835.012	0.0145470
835.090	0.0145070
835.168	0.0144689
835.246	0.0145313
835.325	0.0145971
835.403	0.0144608
835.481	0.0144788
835.559	0.0145145
835.637	0.0145853
835.715	0.0145641
835.793	0.0145929
835.871	0.0144780
835.950	0.0146289
836.028	0.0145507
836.106	0.0144068
836.184	0.0145332
836.262	0.0144759
836.340	0.0144615
836.418	0.0143707
836.496	0.0145037
836.575	0.0143999
836.653	0.0144913
836.731	0.0144253
836.809	0.0144180
836.887	0.0145059
836.965	0.0144122
837.043	0.0143936
837.121	0.0142885
837.200	0.0145142
837.278	0.0145385
837.356	0.0144616
837.434	0.0144843
837.512	0.0144012
837.590	0.0144671
837.668	0.0144288
837.746	0.0146108
837.825	0.0144923
837.903	0.0144118
837.981	0.0145665
838.059	0.0145352
838.137	0.0145844
838.215	0.0145369
838.293	0.0144635
838.371	0.0144994
838.450	0.0145232
838.528	0.0144396
838.606	0.0145455
838.684	0.0144630
838.762	0.0145223
838.840	0.0143970
838.918	0.0144688
838.996	0.0144948
839.075	0.0145113
839.153	0.0145245
839.231	0.0143791
839.309	0.0143975
839.387	0.0144699
839.465	0.0144378
839.543	0.0143671
839.621	0.0143818
839.700	0.0145620
839.778	0.0144810
839.856	0.0144078
839.934	0.0144972
840.012	0.0145685
840.090	0.0144729
840.168	0.0146188
840.246	0.0145827
840.325	0.0145982
840.403	0.0145813
840.481	0.0144730
840.559	0.0146697
840.637	0.0144813
840.715	0.0145782
840.793	0.0146882
840.871	0.0145079
840.950	0.0145123
841.028	0.0145663
841.106	0.0143552
841.184	0.0145663
841.262	0.0145432
841.340	0.0143568
841.418	0.0144435
841.496	0.0146022
841.575	0.0145156
841.653	0.0144511
841.731	0.0144280
841.809	0.0144501
841.887	0.0145269
841.965	0.0145362
842.043	0.0145085
842.121	0.0146541
842.200	0.0146169
842.278	0.0146958
842.356	0.0146728
842.434	0.0145394
842.512	0.0145325
842.590	0.0145235
842.668	0.0144691
842.746	0.0145692
842.825	0.0145276
842.903	0.0145747
842.981	0.0144266
843.059	0.0144709
843.137	0.0146442
843.215	0.0145813
843.293	0.0144418
843.371	0.0144888
843.450	0.0144868
843.528	0.0145374
843.606	0.0143586
843.684	0.0144366
843.762	0.0143867
843.840	0.0145219
843.918	0.0145650
843.996	0.0145628
844.075	0.0146199
844.153	0.0146654
844.231	0.0144346
844.309	0.0145321
844.387	0.0144715
844.465	0.0145778
844.543	0.0145103
844.621	0.0145506
844.700	0.0145992
844.778	0.0144483
844.856	0.0144239
844.934	0.0146017
845.012	0.0145280
845.090	0.0144608
845.168	0.0144703
845.246	0.0144648
845.325	0.0145535
845.403	0.0145399
845.481	0.0142788
845.559	0.0145098
845.637	0.0143986
845.715	0.0144672
845.793	0.0144061
845.871	0.0144344
845.950	0.0144231
846.028	0.0146096
846.106	0.0145419
846.184	0.0144364
846.262	0.0145898
846.340	0.0146265
846.418	0.0145135
846.496	0.0144904
846.575	0.0146750
846.653	0.0146799
846.731	0.0145998
846.809	0.0144132
846.887	0.0146629
846.965	0.0146360
847.043	0.0145458
847.121	0.0145557
847.200	0.0145993
847.278	0.0144904
847.356	0.0146227
847.434	0.0145921
847.512	0.0146267
847.590	0.0145942
847.668	0.0145007
847.746	0.0145047
847.825	0.0144093
847.903	0.0145135
847.981	0.0145567
848.059	0.0144958
848.137	0.0144175
848.215	0.0144149
848.293	0.0145026
848.371	0.0144626
848.450	0.0145174
848.528	0.0144137
848.606	0.0145544
848.684	0.0146850
848.762	0.0146149
848.840	0.0145062
848.918	0.0144711
848.996	0.0145599
849.075	0.0143613
849.153	0.0145272
849.231	0.0144622
849.309	0.0144864
849.387	0.0145548
849.465	0.0146511
849.543	0.0145080
849.621	0.0144794
849.700	0.0145680
849.778	0.0143993
849.856	0.0144680
849.934	0.0145245
850.012	0.0144636
850.090	0.0144740
850.168	0.0144640
850.246	0.0144173
850.325	0.0145342
850.403	0.0143946
850.481	0.0145377
850.559	0.0144937
850.637	0.0145256
850.715	0.0145401
850.793	0.0144876
850.871	0.0145881
850.950	0.0145262
851.028	0.0146633
851.106	0.0145763
851.184	0.0145320
851.262	0.0145782
851.340	0.0146567
851.418	0.0145438
851.496	0.0146533
851.575	0.0145593
851.653	0.0144755
851.731	0.0144928
851.809	0.0145784
851.887	0.0146008
851.965	0.0144030
852.043	0.0144434
852.121	0.0145138
852.200	0.0144760
852.278	0.0145889
852.356	0.0143987
852.434	0.0143798
852.512	0.0144856
852.590	0.0144830
852.668	0.0144938
852.746	0.0143795
852.825	0.0143554
852.903	0.0144549
852.981	0.0145660
853.059	0.0145209
853.137	0.0143672
853.215	0.0144553
853.293	0.0145553
853.371	0.0145000
853.450	0.0143700
853.528	0.0145913
853.606	0.0146026
853.684	0.0143652
853.762	0.0143180
853.840	0.0143530
853.918	0.0144888
853.996	0.0144032
854.075	0.0144762
854.153	0.0145276
854.231	0.0144541
854.309	0.0144907
854.387	0.0144411
854.465	0.0144563
854.543	0.0143548
854.621	0.0143369
854.700	0.0144389
854.778	0.0145711
854.856	0.0144726
854.934	0.0143069
855.012	0.0144720
855.090	0.0144028
855.168	0.0145061
855.246	0.0144602
855.325	0.0145039
855.403	0.0145858
855.481	0.0146210
855.559	0.0145531
855.637	0.0145876
855.715	0.0146345
855.793	0.0145867
855.871	0.0145010
855.950	0.0146976
856.028	0.0145239
856.106	0.0146049
856.184	0.0144442
856.262	0.0145826
856.340	0.0146942
856.418	0.0145625
856.496	0.0144729
856.575	0.0144624
856.653	0.0143546
856.731	0.0145465
856.809	0.0145444
856.887	0.0143369
856.965	0.0145242
857.043	0.0143636
857.121	0.0144481
857.200	0.0143127
857.278	0.0144193
857.356	0.0144820
857.434	0.0144510
857.512	0.0145173
857.590	0.0145187
857.668	0.0145238
857.746	0.0144767
857.825	0.0144040
857.903	0.0146288
857.981	0.0145654
858.059	0.0144295
858.137	0.0145986
858.215	0.0145074
858.293	0.0145935
858.371	0.0146482
858.450	0.0145879
858.528	0.0145596
858.606	0.0145876
858.684	0.0146617
858.762	0.0145835
858.840	0.0145373
858.918	0.0146398
858.996	0.0147318
859.075	0.0146832
859.153	0.0146830
859.231	0.0143990
859.309	0.0145677
859.387	0.0144410
859.465	0.0145478
859.543	0.0145753
859.621	0.0144943
859.700	0.0145997
859.778	0.0145722
859.856	0.0144770
859.934	0.0145028
860.012	0.0144540
860.090	0.0144463
860.168	0.0143968
860.246	0.0144332
860.325	0.0143449
860.403	0.0145364
860.481	0.0145030
860.559	0.0144390
860.637	0.0145988
860.715	0.0146136
860.793	0.0145491
860.871	0.0145815
860.950	0.0145835
861.028	0.0145864
861.106	0.0145841
861.184	0.0145860
861.262	0.0145103
861.340	0.0145123
861.418	0.0145450
861.496	0.0144916
861.575	0.0147434
861.653	0.0146001
861.731	0.0145370
861.809	0.0146613
861.887	0.0146375
861.965	0.0145996
862.043	0.0145975
862.121	0.0145446
862.200	0.0145927
862.278	0.0145246
862.356	0.0147439
862.434	0.0145501
862.512	0.0144110
862.590	0.0145787
862.668	0.0145509
862.746	0.0144729
862.825	0.0145227
862.903	0.0146642
862.981	0.0146121
863.059	0.0145125
863.137	0.0146382
863.215	0.0146899
863.293	0.0145979
863.371	0.0145852
863.450	0.0145362
863.528	0.0145655
863.606	0.0145714
863.684	0.0143536
863.762	0.0145586
863.840	0.0144460
863.918	0.0145380
863.996	0.0147252
864.075	0.0145546
864.153	0.0145238
864.231	0.0144055
864.309	0.0144654
864.387	0.0145253
864.465	0.0145559
864.543	0.0145557
864.621	0.0145023
864.700	0.0145290
864.778	0.0144264
864.856	0.0145166
864.934	0.0145371
865.012	0.0143813
865.090	0.0144474
865.168	0.0145384
865.246	0.0144930
865.325	0.0144647
865.403	0.0146449
865.481	0.0144834
865.559	0.0145255
865.637	0.0145148
865.715	0.0145650
865.793	0.0146100
865.871	0.0144217
865.950	0.0145157
866.028	0.0145042
866.106	0.0146027
866.184	0.0144850
866.262	0.0145418
866.340	0.0143813
866.418	0.0143608
866.496	0.0143729
866.575	0.0144965
866.653	0.0143623
866.731	0.0143724
866.809	0.0143640
866.887	0.0144968
866.965	0.0144530
867.043	0.0143090
867.121	0.0144154
867.200	0.0144136
867.278	0.0144449
867.356	0.0143698
867.434	0.0143890
867.512	0.0146309
867.590	0.0146697
867.668	0.0144091
867.746	0.0143767
867.825	0.0145339
867.903	0.0145807
867.981	0.0144568
868.059	0.0145306
868.137	0.0145509
868.215	0.0143905
868.293	0.0145596
868.371	0.0144593
868.450	0.0144331
868.528	0.0144900
868.606	0.0143297
868.684	0.0144697
868.762	0.0144477
868.840	0.0143410
868.918	0.0143109
868.996	0.0143240
869.075	0.0143433
869.153	0.0144249
869.231	0.0145581
869.309	0.0143370
869.387	0.0145306
869.465	0.0145192
869.543	0.0144405
869.621	0.0144577
869.700	0.0144717
869.778	0.0145091
869.856	0.0145064
869.934	0.0145667
870.012	0.0144911
870.090	0.0145011
870.168	0.0145033
870.246	0.0144679
870.325	0.0146095
870.403	0.0145221
870.481	0.0144702
870.559	0.0145587
870.637	0.0144991
870.715	0.0144012
870.793	0.0143520
870.871	0.0144701
870.950	0.0146229
871.028	0.0145423
871.106	0.0144773
871.184	0.0146316
871.262	0.0146525
871.340	0.0145457
871.418	0.0145991
871.496	0.0145641
871.575	0.0145889
871.653	0.0146352
871.731	0.0145006
871.809	0.0143870
871.887	0.0144740
871.965	0.0145759
872.043	0.0144645
872.121	0.0144167
872.200	0.0144577
872.278	0.0144287
872.356	0.0144698
872.434	0.0145270
872.512	0.0144555
872.590	0.0145517
872.668	0.0145837
872.746	0.0145867
872.825	0.0146349
872.903	0.0145676
872.981	0.0145427
873.059	0.0144478
873.137	0.0145634
873.215	0.0146616
873.293	0.0145746
873.371	0.0145421
873.450	0.0146055
873.528	0.0145250
873.606	0.0145931
873.684	0.0145055
873.762	0.0145628
873.840	0.0145630
873.918	0.0144961
873.996	0.0144629
874.075	0.0146634
874.153	0.0145143
874.231	0.0144437
874.309	0.0146349
874.387	0.0144933
874.465	0.0144884
874.543	0.0144406
874.621	0.0144795
874.700	0.0144900
874.778	0.0144712
874.856	0.0145396
874.934	0.0146417
875.012	0.0145570
875.090	0.0143536
875.168	0.0144829
875.246	0.0144619
875.325	0.0144109
875.403	0.0145177
875.481	0.0144907
875.559	0.0144167
875.637	0.0147134
875.715	0.0147100
875.793	0.0144717
875.871	0.0144588
875.950	0.0145727
876.028	0.0144707
876.106	0.0144033
876.184	0.0146447
876.262	0.0145815
876.340	0.0144530
876.418	0.0143933
876.496	0.0144736
876.575	0.0144097
876.653	0.0144624
876.731	0.0145071
876.809	0.0145156
876.887	0.0144881
876.965	0.0144302
877.043	0.0144902
877.121	0.0145421
877.200	0.0145844
877.278	0.0144643
877.356	0.0145995
877.434	0.0145914
877.512	0.0145365
877.590	0.0144085
877.668	0.0144656
877.746	0.0144025
877.825	0.0145415
877.903	0.0145495
877.981	0.0144379
878.059	0.0145205
878.137	0.0144127
878.215	0.0144146
878.293	0.0144800
878.371	0.0145798
878.450	0.0144202
878.528	0.0144231
878.606	0.0145285
878.684	0.0146404
878.762	0.0145200
878.840	0.0144205
878.918	0.0144501
878.996	0.0145483
879.075	0.0144086
879.153	0.0144681
879.231	0.0144744
879.309	0.0144640
879.387	0.0144023
879.465	0.0144122
879.543	0.0145123
879.621	0.0146558
879.700	0.0145641
879.778	0.0145116
879.856	0.0143893
879.934	0.0145324
880.012	0.0145014
880.090	0.0144291
880.168	0.0144261
880.246	0.0145414
880.325	0.0144147
880.403	0.0144094
880.481	0.0144582
880.559	0.0144823
880.637	0.0144164
880.715	0.0145094
880.793	0.0144493
880.871	0.0144041
880.950	0.0146149
881.028	0.0144571
881.106	0.0144794
881.184	0.0144366
881.262	0.0144833
881.340	0.0144488
881.418	0.0146080
881.496	0.0145419
881.575	0.0145361
881.653	0.0144656
881.731	0.0143594
881.809	0.0144125
881.887	0.0144174
881.965	0.0143517
882.043	0.0144801
882.121	0.0144989
882.200	0.0145808
882.278	0.0145044
882.356	0.0146765
882.434	0.0145559
882.512	0.0146078
882.590	0.0144875
882.668	0.0146640
882.746	0.0145882
882.825	0.0146008
882.903	0.0146465
882.981	0.0146181
883.059	0.0145934
883.137	0.0147298
883.215	0.0144455
883.293	0.0145477
883.371	0.0145034
883.450	0.0144180
883.528	0.0144756
883.606	0.0144098
883.684	0.0144471
883.762	0.0145132
883.840	0.0144316
883.918	0.0145322
883.996	0.0144653
884.075	0.0145853
884.153	0.0145360
884.231	0.0145253
884.309	0.0144878
884.387	0.0145736
884.465	0.0145535
884.543	0.0146507
884.621	0.0146102
884.700	0.0144312
884.778	0.0144285
884.856	0.0145747
884.934	0.0145894
885.012	0.0145905
885.090	0.0143671
885.168	0.0144864
885.246	0.0145798
885.325	0.0144320
885.403	0.0144147
885.481	0.0145498
885.559	0.0146297
885.637	0.0144352
885.715	0.0146823
885.793	0.0145673
885.871	0.0144320
885.950	0.0143704
886.028	0.0144881
886.106	0.0143849
886.184	0.0145147
886.262	0.0144292
886.340	0.0144659
886.418	0.0144899
886.496	0.0144610
886.575	0.0145798
886.653	0.0146340
886.731	0.0145877
886.809	0.0145764
886.887	0.0146223
886.965	0.0146063
887.043	0.0145272
887.121	0.0144712
887.200	0.0146528
887.278	0.0145640
887.356	0.0143280
887.434	0.0144942
887.512	0.0145098
887.590	0.0145056
887.668	0.0144162
887.746	0.0144253
887.825	0.0144249
887.903	0.0145102
887.981	0.0145090
888.059	0.0144520
888.137	0.0144440
888.215	0.0144959
888.293	0.0146176
888.371	0.0145141
888.450	0.0146406
888.528	0.0146006
888.606	0.0145092
888.684	0.0146329
888.762	0.0145248
888.840	0.0146509
888.918	0.0144788
888.996	0.0144395
889.075	0.0145583
889.153	0.0146143
889.231	0.0144720
889.309	0.0144324
889.387	0.0144010
889.465	0.0144543
889.543	0.0147377
889.621	0.0145488
889.700	0.0144346
889.778	0.0145417
889.856	0.0144878
889.934	0.0145241
890.012	0.0145613
890.090	0.0145405
890.168	0.0144894
890.246	0.0145896
890.325	0.0144305
890.403	0.0144987
890.481	0.0145152
890.559	0.0144495
890.637	0.0145560
890.715	0.0144862
890.793	0.0145211
890.871	0.0145048
890.950	0.0146632
891.028	0.0145434
891.106	0.0144909
891.184	0.0146327
891.262	0.0145758
891.340	0.0145764
891.418	0.0145712
891.496	0.0145468
891.575	0.0145807
891.653	0.0144640
891.731	0.0145974
891.809	0.0145576
891.887	0.0143463
891.965	0.0144280
892.043	0.0145367
892.121	0.0145090
892.200	0.0143220
892.278	0.0144218
892.356	0.0143980
892.434	0.0143962
892.512	0.0144485
892.590	0.0144755
892.668	0.0144274
892.746	0.0146655
892.825	0.0146408
892.903	0.0147292
892.981	0.0147942
893.059	0.0147154
893.137	0.0146636
893.215	0.0146284
893.293	0.0146242
893.371	0.0146512
893.450	0.0147126
893.528	0.0146742
893.606	0.0144715
893.684	0.0145660
893.762	0.0145940
893.840	0.0145850
893.918	0.0144754
893.996	0.0145691
894.075	0.0146609
894.153	0.0146545
894.231	0.0145739
894.309	0.0145789
894.387	0.0145675
894.465	0.0145695
894.543	0.0145719
894.621	0.0145358
894.700	0.0144718
894.778	0.0146194
894.856	0.0145842
894.934	0.0146250
895.012	0.0148530
895.090	0.0146669
895.168	0.0145935
895.246	0.0144606
895.325	0.0145945
895.403	0.0145592
895.481	0.0146388
895.559	0.0145400
895.637	0.0145032
895.715	0.0145753
895.793	0.0145823
895.871	0.0145306
895.950	0.0144828
896.028	0.0145991
896.106	0.0145575
896.184	0.0146924
896.262	0.0147147
896.340	0.0146216
896.418	0.0144740
896.496	0.0145274
896.575	0.0146250
896.653	0.0146634
896.731	0.0145425
896.809	0.0145484
896.887	0.0146492
896.965	0.0146884
897.043	0.0145434
897.121	0.0144501
897.200	0.0145287
897.278	0.0145691
897.356	0.0144376
897.434	0.0144182
897.512	0.0145898
897.590	0.0145281
897.668	0.0145931
897.746	0.0145550
897.825	0.0146741
897.903	0.0145765
897.981	0.0146725
898.059	0.0146673
898.137	0.0145249
898.215	0.0144722
898.293	0.0145059
898.371	0.0144281
898.450	0.0145390
898.528	0.0145007
898.606	0.0144198
898.684	0.0143642
898.762	0.0143120
898.840	0.0142711
898.918	0.0144940
898.996	0.0145133
899.075	0.0144740
899.153	0.0143972
899.231	0.0145612
899.309	0.0144707
899.387	0.0145345
899.465	0.0144988
899.543	0.0144923
899.621	0.0145343
899.700	0.0145440
899.778	0.0144954
899.856	0.0143912
899.934	0.0144873
900.012	0.0145174
900.090	0.0145013
900.168	0.0146198
900.246	0.0145155
900.325	0.0142900
900.403	0.0145923
900.481	0.0145377
900.559	0.0144192
900.637	0.0143954
900.715	0.0145184
900.793	0.0145123
900.871	0.0146667
900.950	0.0145560
901.028	0.0144546
901.106	0.0145285
901.184	0.0145832
901.262	0.0145680
901.340	0.0145226
901.418	0.0145805
901.496	0.0144861
901.575	0.0144040
901.653	0.0145132
901.731	0.0144656
901.809	0.0143183
901.887	0.0144102
901.965	0.0142209
902.043	0.0143675
902.121	0.0143757
902.200	0.0142861
902.278	0.0142563
902.356	0.0143532
902.434	0.0144189
902.512	0.0144137
902.590	0.0144806
902.668	0.0144620
902.746	0.0144911
902.825	0.0146444
902.903	0.0147191
902.981	0.0146774
903.059	0.0145602
903.137	0.0144758
903.215	0.0147426
903.293	0.0146184
903.371	0.0144256
903.450	0.0145110
903.528	0.0144784
903.606	0.0144404
903.684	0.0145539
903.762	0.0143316
903.840	0.0144884
903.918	0.0143742
903.996	0.0144256
904.075	0.0143130
904.153	0.0145108
904.231	0.0146965
904.309	0.0144523
904.387	0.0144009
904.465	0.0144129
904.543	0.0145206
904.621	0.0144716
904.700	0.0144270
904.778	0.0144741
904.856	0.0145183
904.934	0.0145112
905.012	0.0143887
905.090	0.0145580
905.168	0.0145583
905.246	0.0144817
905.325	0.0145184
905.403	0.0143507
905.481	0.0144605
905.559	0.0143816
905.637	0.0143593
905.715	0.0144312
905.793	0.0144469
905.871	0.0142343
905.950	0.0143875
906.028	0.0143703
906.106	0.0141979
906.184	0.0143230
906.262	0.0143517
906.340	0.0143168
906.418	0.0145419
906.496	0.0145437
906.575	0.0144292
906.653	0.0145086
906.731	0.0144326
906.809	0.0145665
906.887	0.0144286
906.965	0.0145236
907.043	0.0145909
907.121	0.0144750
907.200	0.0144453
907.278	0.0144979
907.356	0.0145103
907.434	0.0145919
907.512	0.0145100
907.590	0.0145348
907.668	0.0144264
907.746	0.0145184
907.825	0.0143837
907.903	0.0143674
907.981	0.0143755
908.059	0.0144595
908.137	0.0145347
908.215	0.0144818
908.293	0.0144588
908.371	0.0144859
908.450	0.0145721
908.528	0.0145557
908.606	0.0145666
908.684	0.0146704
908.762	0.0146951
908.840	0.0146730
908.918	0.0146512
908.996	0.0147418
909.075	0.0147066
909.153	0.0145161
909.231	0.0146481
909.309	0.0145282
909.387	0.0144796
909.465	0.0145899
909.543	0.0146083
909.621	0.0145536
909.700	0.0143800
909.778	0.0145552
909.856	0.0144087
909.934	0.0145218
910.012	0.0145119
910.090	0.0144217
910.168	0.0145470
910.246	0.0144648
910.325	0.0143711
910.403	0.0144773
910.481	0.0144057
910.559	0.0144870
910.637	0.0145908
910.715	0.0146003
910.793	0.0146368
910.871	0.0144425
910.950	0.0144839
911.028	0.0146013
911.106	0.0146381
911.184	0.0145211
911.262	0.0147429
911.340	0.0145510
911.418	0.0146582
911.496	0.0146288
911.575	0.0144800
911.653	0.0144743
911.731	0.0146416
911.809	0.0145242
911.887	0.0146081
911.965	0.0146855
912.043	0.0146840
912.121	0.0145592
912.200	0.0145473
912.278	0.0147052
912.356	0.0146696
912.434	0.0146069
912.512	0.0144708
912.590	0.0144398
912.668	0.0145599
912.746	0.0146088
912.825	0.0145793
912.903	0.0145628
912.981	0.0146039
913.059	0.0145369
913.137	0.0145650
913.215	0.0148186
913.293	0.0145776
913.371	0.0146445
913.450	0.0145885
913.528	0.0146831
913.606	0.0145325
913.684	0.0145547
913.762	0.0145152
913.840	0.0145663
913.918	0.0145293
913.996	0.0146610
914.075	0.0145162
914.153	0.0144445
914.231	0.0145359
914.309	0.0144954
914.387	0.0144208
914.465	0.0145823
914.543	0.0145819
914.621	0.0145295
914.700	0.0144862
914.778	0.0146645
914.856	0.0146189
914.934	0.0147362
915.012	0.0145078
915.090	0.0145473
915.168	0.0145399
915.246	0.0147149
915.325	0.0146286
915.403	0.0146221
915.481	0.0144357
915.559	0.0146446
915.637	0.0146149
915.715	0.0145573
915.793	0.0146673
915.871	0.0145162
915.950	0.0144557
916.028	0.0144966
916.106	0.0146245
916.184	0.0144862
916.262	0.0143922
916.340	0.0144990
916.418	0.0145310
916.496	0.0144477
916.575	0.0145513
916.653	0.0146697
916.731	0.0145926
916.809	0.0145147
916.887	0.0145021
916.965	0.0144873
917.043	0.0146457
917.121	0.0145653
917.200	0.0144670
917.278	0.0144868
917.356	0.0145074
917.434	0.0145628
917.512	0.0144770
917.590	0.0144926
917.668	0.0145842
917.746	0.0145760
917.825	0.0144857
917.903	0.0144882
917.981	0.0147117
918.059	0.0146839
918.137	0.0145386
918.215	0.0144683
918.293	0.0144070
918.371	0.0144942
918.450	0.0145107
918.528	0.0143641
918.606	0.0145887
918.684	0.0144891
918.762	0.0144644
918.840	0.0146429
918.918	0.0145165
918.996	0.0145672
919.075	0.0144902
919.153	0.0144516
919.231	0.0145366
919.309	0.0145712
919.387	0.0146497
919.465	0.0147614
919.543	0.0146583
919.621	0.0146938
919.700	0.0146095
919.778	0.0145145
919.856	0.0145557
919.934	0.0145647
920.012	0.0144792
920.090	0.0144965
920.168	0.0144655
920.246	0.0146886
920.325	0.0146027
920.403	0.0145924
920.481	0.0145656
920.559	0.0145496
920.637	0.0145486
920.715	0.0146103
920.793	0.0145001
920.871	0.0144923
920.950	0.0145496
921.028	0.0145385
921.106	0.0145207
921.184	0.0144377
921.262	0.0144900
921.340	0.0144596
921.418	0.0144541
921.496	0.0145753
921.575	0.0146451
921.653	0.0144614
921.731	0.0144793
921.809	0.0145554
921.887	0.0144942
921.965	0.0145766
922.043	0.0146234
922.121	0.0144194
922.200	0.0144564
922.278	0.0145956
922.356	0.0145789
922.434	0.0145909
922.512	0.0143708
922.590	0.0144096
922.668	0.0144720
922.746	0.0145190
922.825	0.0145352
922.903	0.0144992
922.981	0.0144843
923.059	0.0145321
923.137	0.0144977
923.215	0.0144188
923.293	0.0146333
923.371	0.0147547
923.450	0.0145779
923.528	0.0144390
923.606	0.0144907
923.684	0.0145863
923.762	0.0145655
923.840	0.0144082
923.918	0.0144013
923.996	0.0144115
924.075	0.0144842
924.153	0.0145011
924.231	0.0144489
924.309	0.0144987
924.387	0.0142856
924.465	0.0145003
924.543	0.0144302
924.621	0.0143246
924.700	0.0144104
924.778	0.0145874
924.856	0.0144463
924.934	0.0145066
925.012	0.0145912
925.090	0.0144630
925.168	0.0144500
925.246	0.0144593
925.325	0.0145249
925.403	0.0147014
925.481	0.0144387
925.559	0.0145237
925.637	0.0146615
925.715	0.0144875
925.793	0.0144477
925.871	0.0145302
925.950	0.0144846
926.028	0.0144166
926.106	0.0144846
926.184	0.0145008
926.262	0.0144592
926.340	0.0145630
926.418	0.0144350
926.496	0.0144234
926.575	0.0145586
926.653	0.0145432
926.731	0.0144116
926.809	0.0145708
926.887	0.0145352
926.965	0.0145884
927.043	0.0144810
927.121	0.0144308
927.200	0.0144509
927.278	0.0146169
927.356	0.0145026
927.434	0.0144608
927.512	0.0146019
927.590	0.0144696
927.668	0.0145431
927.746	0.0143601
927.825	0.0144498
927.903	0.0144720
927.981	0.0144433
928.059	0.0145798
928.137	0.0145583
928.215	0.0144572
928.293	0.0143751
928.371	0.0143711
928.450	0.0144130
928.528	0.0144166
928.606	0.0144322
928.684	0.0144930
928.762	0.0143678
928.840	0.0145004
928.918	0.0145224
928.996	0.0145358
929.075	0.0144016
929.153	0.0145174
929.231	0.0144990
929.309	0.0144123
929.387	0.0145378
929.465	0.0144832
929.543	0.0145116
929.621	0.0145769
929.700	0.0144315
929.778	0.0143947
929.856	0.0145820
929.934	0.0145483
930.012	0.0145589
930.090	0.0144643
930.168	0.0145014
930.246	0.0142941
930.325	0.0143264
930.403	0.0144994
930.481	0.0144459
930.559	0.0143353
930.637	0.0144061
930.715	0.0144202
930.793	0.0145129
930.871	0.0144566
930.950	0.0144727
931.028	0.0143910
931.106	0.0143143
931.184	0.0144633
931.262	0.0144186
931.340	0.0144075
931.418	0.0143800
931.496	0.0144991
931.575	0.0143724
931.653	0.0143760
931.731	0.0143653
931.809	0.0144795
931.887	0.0143396
931.965	0.0143999
932.043	0.0143523
932.121	0.0144249
932.200	0.0143948
932.278	0.0143856
932.356	0.0144762
932.434	0.0145617
932.512	0.0144104
932.590	0.0144948
932.668	0.0145094
932.746	0.0145030
932.825	0.0144910
932.903	0.0144933
932.981	0.0144957
933.059	0.0145200
933.137	0.0145722
933.215	0.0145834
933.293	0.0144465
933.371	0.0145075
933.450	0.0146368
933.528	0.0144672
933.606	0.0144502
933.684	0.0144279
933.762	0.0144965
933.840	0.0144739
933.918	0.0142835
933.996	0.0143829
934.075	0.0143295
934.153	0.0145227
934.231	0.0145130
934.309	0.0145699
934.387	0.0144957
934.465	0.0144926
934.543	0.0145725
934.621	0.0144529
934.700	0.0145722
934.778	0.0145682
934.856	0.0144096
934.934	0.0144947
935.012	0.0144663
935.090	0.0144712
935.168	0.0144080
935.246	0.0144195
935.325	0.0144857
935.403	0.0143856
935.481	0.0144968
935.559	0.0144610
935.637	0.0144067
935.715	0.0144614
935.793	0.0143810
935.871	0.0145813
935.950	0.0145266
936.028	0.0143427
936.106	0.0143596
936.184	0.0144807
936.262	0.0145622
936.340	0.0145506
936.418	0.0145977
936.496	0.0145853
936.575	0.0145181
936.653	0.0145734
936.731	0.0145345
936.809	0.0144244
936.887	0.0146052
936.965	0.0145740
937.043	0.0144590
937.121	0.0145267
937.200	0.0145788
937.278	0.0145445
937.356	0.0145257
937.434	0.0145108
937.512	0.0146111
937.590	0.0146209
937.668	0.0145860
937.746	0.0144829
937.825	0.0145548
937.903	0.0144784
937.981	0.0145078
938.059	0.0144915
938.137	0.0145099
938.215	0.0145673
938.293	0.0145380
938.371	0.0145213
938.450	0.0144496
938.528	0.0145657
938.606	0.0144897
938.684	0.0144478
938.762	0.0145688
938.840	0.0145911
938.918	0.0143593
938.996	0.0145067
939.075	0.0143623
939.153	0.0143990
939.231	0.0145394
939.309	0.0145353
939.387	0.0145321
939.465	0.0144189
939.543	0.0144596
939.621	0.0145383
939.700	0.0146403
939.778	0.0144062
939.856	0.0144353
939.934	0.0146783
940.012	0.0145561
940.090	0.0145014
940.168	0.0145763
940.246	0.0144332
940.325	0.0145827
940.403	0.0146426
940.481	0.0145734
940.559	0.0144046
940.637	0.0145116
940.715	0.0144898
940.793	0.0145865
940.871	0.0145600
940.950	0.0144489
941.028	0.0145940
941.106	0.0145438
941.184	0.0146595
941.262	0.0145151
941.340	0.0144917
941.418	0.0146053
941.496	0.0146027
941.575	0.0145776
941.653	0.0145583
941.731	0.0145264
941.809	0.0146294
941.887	0.0144919
941.965	0.0144353
942.043	0.0144852
942.121	0.0145927
942.200	0.0146439
942.278	0.0143960
942.356	0.0146253
942.434	0.0145895
942.512	0.0145302
942.590	0.0144624
942.668	0.0145018
942.746	0.0145563
942.825	0.0144981
942.903	0.0145330
942.981	0.0145086
943.059	0.0143427
943.137	0.0145460
943.215	0.0145020
943.293	0.0146027
943.371	0.0145183
943.450	0.0144534
943.528	0.0143860
943.606	0.0145546
943.684	0.0146408
943.762	0.0144361
943.840	0.0145823
943.918	0.0146149
943.996	0.0144609
944.075	0.0144785
944.153	0.0145220
944.231	0.0145587
944.309	0.0146148
944.387	0.0146371
944.465	0.0146283
944.543	0.0144490
944.621	0.0144689
944.700	0.0144472
944.778	0.0145904
944.856	0.0144879
944.934	0.0145128
945.012	0.0145542
945.090	0.0144854
945.168	0.0144833
945.246	0.0146889
945.325	0.0145115
945.403	0.0143912
945.481	0.0144016
945.559	0.0144208
945.637	0.0144506
945.715	0.0144639
945.793	0.0145208
945.871	0.0144650
945.950	0.0146273
946.028	0.0146516
946.106	0.0145863
946.184	0.0145459
946.262	0.0146644
946.340	0.0145390
946.418	0.0145649
946.496	0.0145389
946.575	0.0144935
946.653	0.0146822
946.731	0.0144506
946.809	0.0145476
946.887	0.0143829
946.965	0.0143942
947.043	0.0143446
947.121	0.0145101
947.200	0.0145291
947.278	0.0144453
947.356	0.0144554
947.434	0.0144997
947.512	0.0144081
947.590	0.0143664
947.668	0.0144228
947.746	0.0143538
947.825	0.0143332
947.903	0.0143303
947.981	0.0146096
948.059	0.0144660
948.137	0.0142648
948.215	0.0144405
948.293	0.0144024
948.371	0.0144825
948.450	0.0145079
948.528	0.0144157
948.606	0.0144170
948.684	0.0144783
948.762	0.0144423
948.840	0.0143833
948.918	0.0145118
948.996	0.0144064
949.075	0.0143909
949.153	0.0144232
949.231	0.0143940
949.309	0.0145823
949.387	0.0144627
949.465	0.0144391
949.543	0.0145135
949.621	0.0144889
949.700	0.0145365
949.778	0.0144957
949.856	0.0143060
949.934	0.0144467
950.012	0.0144280
950.090	0.0144102
950.168	0.0145711
950.246	0.0144107
950.325	0.0145400
950.403	0.0146053
950.481	0.0145411
950.559	0.0144245
950.637	0.0145537
950.715	0.0144369
950.793	0.0144102
950.871	0.0144861
950.950	0.0144591
951.028	0.0144103
951.106	0.0144491
951.184	0.0144310
951.262	0.0145580
951.340	0.0146485
951.418	0.0144245
951.496	0.0143870
951.575	0.0145576
951.653	0.0144540
951.731	0.0144491
951.809	0.0144745
951.887	0.0143319
951.965	0.0144471
952.043	0.0144485
952.121	0.0144901
952.200	0.0144129
952.278	0.0144685
952.356	0.0143828
952.434	0.0143384
952.512	0.0143886
952.590	0.0140848
952.668	0.0145027
952.746	0.0145261
952.825	0.0144778
952.903	0.0144949
952.981	0.0144321
953.059	0.0145303
953.137	0.0146049
953.215	0.0145125
953.293	0.0145991
953.371	0.0145181
953.450	0.0146003
953.528	0.0144115
953.606	0.0144963
953.684	0.0144704
953.762	0.0145832
953.840	0.0144585
953.918	0.0145032
953.996	0.0145393
954.075	0.0144482
954.153	0.0143935
954.231	0.0145430
954.309	0.0144787
954.387	0.0144218
954.465	0.0144990
954.543	0.0143276
954.621	0.0143932
954.700	0.0143565
954.778	0.0143716
954.856	0.0144747
954.934	0.0144579
955.012	0.0144527
955.090	0.0144123
955.168	0.0144617
955.246	0.0143997
955.325	0.0144090
955.403	0.0144814
955.481	0.0144987
955.559	0.0143802
955.637	0.0143401
955.715	0.0145948
955.793	0.0144117
955.871	0.0143586
955.950	0.0144901
956.028	0.0145052
956.106	0.0143811
956.184	0.0146730
956.262	0.0145548
956.340	0.0144016
956.418	0.0146161
956.496	0.0146107
956.575	0.0146311
956.653	0.0146590
956.731	0.0145934
956.809	0.0146223
956.887	0.0145412
956.965	0.0145427
957.043	0.0145762
957.121	0.0145315
957.200	0.0142888
957.278	0.0146712
957.356	0.0145742
957.434	0.0144724
957.512	0.0144874
957.590	0.0144862
957.668	0.0144048
957.746	0.0144346
957.825	0.0144093
957.903	0.0144975
957.981	0.0143264
958.059	0.0143683
958.137	0.0144804
958.215	0.0145084
958.293	0.0143652
958.371	0.0144973
958.450	0.0146110
958.528	0.0144044
958.606	0.0144620
958.684	0.0144217
958.762	0.0145318
958.840	0.0144910
958.918	0.0144965
958.996	0.0145315
959.075	0.0145993
959.153	0.0145480
959.231	0.0146002
959.309	0.0145653
959.387	0.0146048
959.465	0.0144687
959.543	0.0146140
959.621	0.0145232
959.700	0.0143759
959.778	0.0145200
959.856	0.0143716
959.934	0.0144772
960.012	0.0144206
960.090	0.0145119
960.168	0.0143925
960.246	0.0143702
960.325	0.0144100
960.403	0.0144122
960.481	0.0144617
960.559	0.0145097
960.637	0.0144033
960.715	0.0144982
960.793	0.0144476
960.871	0.0143894
960.950	0.0145776
961.028	0.0145336
961.106	0.0146227
961.184	0.0145892
961.262	0.0144547
961.340	0.0146402
961.418	0.0147697
961.496	0.0146623
961.575	0.0145745
961.653	0.0145721
961.731	0.0146233
961.809	0.0145914
961.887	0.0145779
961.965	0.0145077
962.043	0.0144138
962.121	0.0145406
962.200	0.0144421
962.278	0.0144553
962.356	0.0145817
962.434	0.0145464
962.512	0.0144350
962.590	0.0145543
962.668	0.0144376
962.746	0.0145705
962.825	0.0144834
962.903	0.0144283
962.981	0.0145193
963.059	0.0145047
963.137	0.0145090
963.215	0.0144916
963.293	0.0144968
963.371	0.0145292
963.450	0.0145201
963.528	0.0146014
963.606	0.0145557
963.684	0.0144546
963.762	0.0145222
963.840	0.0145786
963.918	0.0145832
963.996	0.0145531
964.075	0.0145435
964.153	0.0144676
964.231	0.0145724
964.309	0.0145477
964.387	0.0145554
964.465	0.0145090
964.543	0.0145246
964.621	0.0146046
964.700	0.0146285
964.778	0.0145602
964.856	0.0146703
964.934	0.0145522
965.012	0.0145664
965.090	0.0145918
965.168	0.0144997
965.246	0.0146004
965.325	0.0146341
965.403	0.0145486
965.481	0.0145666
965.559	0.0144843
965.637	0.0145038
965.715	0.0144670
965.793	0.0144608
965.871	0.0144088
965.950	0.0144283
966.028	0.0144006
966.106	0.0144179
966.184	0.0141905
966.262	0.0142350
966.340	0.0144931
966.418	0.0145555
966.496	0.0143533
966.575	0.0144322
966.653	0.0144202
966.731	0.0145298
966.809	0.0145061
966.887	0.0144027
966.965	0.0146037
967.043	0.0145670
967.121	0.0143728
967.200	0.0145417
967.278	0.0147304
967.356	0.0146729
967.434	0.0145375
967.512	0.0145576
967.590	0.0146062
967.668	0.0145656
967.746	0.0145438
967.825	0.0145163
967.903	0.0146909
967.981	0.0145001
968.059	0.0144789
968.137	0.0143266
968.215	0.0144730
968.293	0.0144393
968.371	0.0142912
968.450	0.0143584
968.528	0.0143839
968.606	0.0144468
968.684	0.0143919
968.762	0.0144093
968.840	0.0145038
968.918	0.0145780
968.996	0.0144450
969.075	0.0144717
969.153	0.0143775
969.231	0.0145314
969.309	0.0145254
969.387	0.0145142
969.465	0.0144718
969.543	0.0145882
969.621	0.0145839
969.700	0.0145013
969.778	0.0144198
969.856	0.0144915
969.934	0.0146793
970.012	0.0145260
970.090	0.0144402
970.168	0.0144463
970.246	0.0143779
970.325	0.0144240
970.403	0.0145188
970.481	0.0142881
970.559	0.0144323
970.637	0.0145472
970.715	0.0144288
970.793	0.0144211
970.871	0.0145033
970.950	0.0143922
971.028	0.0143900
971.106	0.0144366
971.184	0.0144466
971.262	0.0144781
971.340	0.0144836
971.418	0.0144247
971.496	0.0145039
971.575	0.0145493
971.653	0.0144052
971.731	0.0145555
971.809	0.0145264
971.887	0.0144811
971.965	0.0144904
972.043	0.0145021
972.121	0.0145126
972.200	0.0145185
972.278	0.0143904
972.356	0.0143917
972.434	0.0145624
972.512	0.0145234
972.590	0.0143896
972.668	0.0144064
972.746	0.0145670
972.825	0.0145862
972.903	0.0145921
972.981	0.0144483
973.059	0.0145248
973.137	0.0146486
973.215	0.0147234
973.293	0.0144885
973.371	0.0145565
973.450	0.0144754
973.528	0.0145953
973.606	0.0146470
973.684	0.0146048
973.762	0.0144965
973.840	0.0145670
973.918	0.0144908
973.996	0.0144660
974.075	0.0144209
974.153	0.0144723
974.231	0.0144341
974.309	0.0144689
974.387	0.0142495
974.465	0.0141724
974.543	0.0144274
974.621	0.0144005
974.700	0.0144556
974.778	0.0144973
974.856	0.0144785
974.934	0.0143235
975.012	0.0144233
975.090	0.0144477
975.168	0.0145430
975.246	0.0145026
975.325	0.0144746
975.403	0.0145828
975.481	0.0146796
975.559	0.0145614
975.637	0.0144743
975.715	0.0144982
975.793	0.0146290
975.871	0.0145879
975.950	0.0144054
976.028	0.0145728
976.106	0.0147697
976.184	0.0145420
976.262	0.0146051
976.340	0.0144610
976.418	0.0145850
976.496	0.0144395
976.575	0.0142280
976.653	0.0144100
976.731	0.0143708
976.809	0.0145161
976.887	0.0143878
976.965	0.0144248
977.043	0.0143098
977.121	0.0145743
977.200	0.0144464
977.278	0.0144734
977.356	0.0143079
977.434	0.0144540
977.512	0.0144240
977.590	0.0144864
977.668	0.0145789
977.746	0.0144440
977.825	0.0145311
977.903	0.0144209
977.981	0.0144991
978.059	0.0145132
978.137	0.0143848
978.215	0.0143864
978.293	0.0145209
978.371	0.0145088
978.450	0.0144110
978.528	0.0145512
978.606	0.0144797
978.684	0.0144569
978.762	0.0143858
978.840	0.0143009
978.918	0.0144037
978.996	0.0143179
979.075	0.0143829
979.153	0.0144823
979.231	0.0145054
979.309	0.0145004
979.387	0.0145140
979.465	0.0144339
979.543	0.0143761
979.621	0.0145049
979.700	0.0144551
979.778	0.0145866
979.856	0.0145868
979.934	0.0144263
980.012	0.0145432
980.090	0.0145244
980.168	0.0146397
980.246	0.0145381
980.325	0.0145424
980.403	0.0145834
980.481	0.0143777
980.559	0.0142853
980.637	0.0145190
980.715	0.0145042
980.793	0.0144693
980.871	0.0144218
980.950	0.0144012
981.028	0.0144170
981.106	0.0143301
981.184	0.0144499
981.262	0.0144633
981.340	0.0144016
981.418	0.0144961
981.496	0.0144117
981.575	0.0143654
981.653	0.0145361
981.731	0.0144095
981.809	0.0144051
981.887	0.0145630
981.965	0.0144466
982.043	0.0145039
982.121	0.0144623
982.200	0.0145816
982.278	0.0146687
982.356	0.0146063
982.434	0.0147084
982.512	0.0145856
982.590	0.0144996
982.668	0.0146017
982.746	0.0146124
982.825	0.0145609
982.903	0.0146737
982.981	0.0145278
983.059	0.0144472
983.137	0.0146308
983.215	0.0145602
983.293	0.0144812
983.371	0.0144708
983.450	0.0144172
983.528	0.0144691
983.606	0.0145162
983.684	0.0143490
983.762	0.0145725
983.840	0.0145323
983.918	0.0144221
983.996	0.0145036
984.075	0.0144236
984.153	0.0144699
984.231	0.0145412
984.309	0.0145491
984.387	0.0146885
984.465	0.0145178
984.543	0.0145216
984.621	0.0143311
984.700	0.0144241
984.778	0.0144772
984.856	0.0143774
984.934	0.0142894
985.012	0.0143285
985.090	0.0144753
985.168	0.0145074
985.246	0.0146109
985.325	0.0144894
985.403	0.0143715
985.481	0.0142991
985.559	0.0145042
985.637	0.0145608
985.715	0.0144073
985.793	0.0145106
985.871	0.0144879
985.950	0.0144160
986.028	0.0144430
986.106	0.0144128
986.184	0.0144897
986.262	0.0145360
986.340	0.0144305
986.418	0.0144308
986.496	0.0143552
986.575	0.0143724
986.653	0.0143819
986.731	0.0144118
986.809	0.0143873
986.887	0.0143491
986.965	0.0144209
987.043	0.0143437
987.121	0.0145616
987.200	0.0143962
987.278	0.0145023
987.356	0.0144545
987.434	0.0144400
987.512	0.0145110
987.590	0.0145725
987.668	0.0145023
987.746	0.0144382
987.825	0.0144737
987.903	0.0144767
987.981	0.0145315
988.059	0.0145219
988.137	0.0144652
988.215	0.0145354
988.293	0.0145351
988.371	0.0144659
988.450	0.0144978
988.528	0.0144338
988.606	0.0146087
988.684	0.0145891
988.762	0.0145452
988.840	0.0145640
988.918	0.0145768
988.996	0.0145332
989.075	0.0144569
989.153	0.0144566
989.231	0.0145134
989.309	0.0144488
989.387	0.0144680
989.465	0.0144280
989.543	0.0145826
989.621	0.0144096
989.700	0.0143594
989.778	0.0143793
989.856	0.0144106
989.934	0.0143589
990.012	0.0145486
990.090	0.0145457
990.168	0.0145161
990.246	0.0144888
990.325	0.0147166
990.403	0.0145290
990.481	0.0145178
990.559	0.0144983
990.637	0.0145000
990.715	0.0145911
990.793	0.0147422
990.871	0.0145070
990.950	0.0144431
991.028	0.0144184
991.106	0.0146016
991.184	0.0145325
991.262	0.0145273
991.340	0.0146517
991.418	0.0144952
991.496	0.0143922
991.575	0.0144985
991.653	0.0145435
991.731	0.0145769
991.809	0.0143827
991.887	0.0144621
991.965	0.0144535
992.043	0.0146053
992.121	0.0145100
992.200	0.0144298
992.278	0.0143259
992.356	0.0144670
992.434	0.0144418
992.512	0.0144495
992.590	0.0144795
992.668	0.0143912
992.746	0.0145280
992.825	0.0144545
992.903	0.0144046
992.981	0.0145583
993.059	0.0144883
993.137	0.0144323
993.215	0.0142927
993.293	0.0144620
993.371	0.0145613
993.450	0.0144078
993.528	0.0144959
993.606	0.0144781
993.684	0.0144110
993.762	0.0143961
993.840	0.0144310
993.918	0.0146721
993.996	0.0145410
994.075	0.0145676
994.153	0.0145132
994.231	0.0144344
994.309	0.0145495
994.387	0.0146309
994.465	0.0145094
994.543	0.0144926
994.621	0.0144213
994.700	0.0144770
994.778	0.0145295
994.856	0.0144797
994.934	0.0144917
995.012	0.0144186
995.090	0.0145127
995.168	0.0146185
995.246	0.0145735
995.325	0.0145695
995.403	0.0142847
995.481	0.0143762
995.559	0.0144048
995.637	0.0144973
995.715	0.0143835
995.793	0.0144817
995.871	0.0146060
995.950	0.0144756
996.028	0.0145189
996.106	0.0143457
996.184	0.0144130
996.262	0.0143880
996.340	0.0143457
996.418	0.0145319
996.496	0.0145070
996.575	0.0145389
996.653	0.0145372
996.731	0.0145285
996.809	0.0147133
996.887	0.0146590
996.965	0.0146080
997.043	0.0146560
997.121	0.0146487
997.200	0.0145417
997.278	0.0145901
997.356	0.0147425
997.434	0.0146169
997.512	0.0144869
997.590	0.0144938
997.668	0.0145881
997.746	0.0144875
997.825	0.0145303
997.903	0.0145899
997.981	0.0145006
998.059	0.0145094
998.137	0.0144067
998.215	0.0144759
998.293	0.0146062
998.371	0.0145881
998.450	0.0146835
998.528	0.0146027
998.606	0.0145969
998.684	0.0146084
998.762	0.0146770
998.840	0.0146431
998.918	0.0146272
