05/04/2022	21:21:23	Ver.	4.1	UNKNOWN
Optical Delay	678.996401	Delta X		0.078125	Sweeps	1	Scan Rate	0/0
Coordinates	Axis 1	NaN	Axis 2	NaN	Axis 3	NaN	Axis 4	NaN	Axis 5	NaN	Axis 6	0.000000
TX Power	0.000000	RX Power	0.000000

678.996	0.0143123
679.075	0.0142159
679.153	0.0143661
679.231	0.0144064
679.309	0.0141978
679.387	0.0141456
679.465	0.0141385
679.543	0.0143253
679.621	0.0142757
679.700	0.0141601
679.778	0.0142207
679.856	0.0141766
679.934	0.0140318
680.012	0.0141241
680.090	0.0142437
680.168	0.0143813
680.246	0.0142570
680.325	0.0143340
680.403	0.0143497
680.481	0.0143221
680.559	0.0144691
680.637	0.0142868
680.715	0.0145839
680.793	0.0143889
680.871	0.0145004
680.950	0.0142869
681.028	0.0143717
681.106	0.0145866
681.184	0.0143666
681.262	0.0143008
681.340	0.0142715
681.418	0.0142435
681.496	0.0142588
681.575	0.0143572
681.653	0.0142181
681.731	0.0142756
681.809	0.0142321
681.887	0.0141677
681.965	0.0142350
682.043	0.0141837
682.121	0.0142822
682.200	0.0142741
682.278	0.0143341
682.356	0.0144126
682.434	0.0142691
682.512	0.0143090
682.590	0.0143108
682.668	0.0142916
682.746	0.0145383
682.825	0.0144512
682.903	0.0144384
682.981	0.0144486
683.059	0.0145186
683.137	0.0143275
683.215	0.0143507
683.293	0.0144350
683.371	0.0143549
683.450	0.0144219
683.528	0.0143774
683.606	0.0143231
683.684	0.0143587
683.762	0.0142744
683.840	0.0143153
683.918	0.0143572
683.996	0.0143079
684.075	0.0143183
684.153	0.0141673
684.231	0.0141122
684.309	0.0141488
684.387	0.0142097
684.465	0.0140968
684.543	0.0141811
684.621	0.0141839
684.700	0.0141533
684.778	0.0140876
684.856	0.0141716
684.934	0.0141671
685.012	0.0142219
685.090	0.0143549
685.168	0.0143906
685.246	0.0143713
685.325	0.0142220
685.403	0.0144201
685.481	0.0142844
685.559	0.0143857
685.637	0.0143339
685.715	0.0144573
685.793	0.0143142
685.871	0.0143887
685.950	0.0143307
686.028	0.0143246
686.106	0.0142629
686.184	0.0142478
686.262	0.0142197
686.340	0.0142928
686.418	0.0140364
686.496	0.0140982
686.575	0.0140616
686.653	0.0141328
686.731	0.0141563
686.809	0.0141270
686.887	0.0140465
686.965	0.0142535
687.043	0.0142765
687.121	0.0142458
687.200	0.0140965
687.278	0.0141589
687.356	0.0142738
687.434	0.0143378
687.512	0.0143654
687.590	0.0143995
687.668	0.0142417
687.746	0.0143272
687.825	0.0143539
687.903	0.0142351
687.981	0.0144075
688.059	0.0143753
688.137	0.0141859
688.215	0.0142641
688.293	0.0141199
688.371	0.0142693
688.450	0.0142587
688.528	0.0141821
688.606	0.0141102
688.684	0.0142892
688.762	0.0141953
688.840	0.0142206
688.918	0.0142242
688.996	0.0140914
689.075	0.0142422
689.153	0.0142449
689.231	0.0141329
689.309	0.0141891
689.387	0.0142780
689.465	0.0141987
689.543	0.0142224
689.621	0.0142500
689.700	0.0143730
689.778	0.0143258
689.856	0.0142471
689.934	0.0143076
690.012	0.0144257
690.090	0.0141741
690.168	0.0141930
690.246	0.0143302
690.325	0.0142612
690.403	0.0142873
690.481	0.0143574
690.559	0.0141974
690.637	0.0141579
690.715	0.0142429
690.793	0.0142070
690.871	0.0140485
690.950	0.0140487
691.028	0.0141749
691.106	0.0141929
691.184	0.0141950
691.262	0.0140975
691.340	0.0141009
691.418	0.0143320
691.496	0.0142438
691.575	0.0142884
691.653	0.0144193
691.731	0.0142643
691.809	0.0143353
691.887	0.0143077
691.965	0.0142757
692.043	0.0143472
692.121	0.0142793
692.200	0.0142451
692.278	0.0141574
692.356	0.0142200
692.434	0.0143091
692.512	0.0142899
692.590	0.0141651
692.668	0.0141597
692.746	0.0142542
692.825	0.0141806
692.903	0.0143003
692.981	0.0145200
693.059	0.0145011
693.137	0.0143811
693.215	0.0145224
693.293	0.0145670
693.371	0.0145493
693.450	0.0145559
693.528	0.0144565
693.606	0.0142978
693.684	0.0141923
693.762	0.0143290
693.840	0.0140765
693.918	0.0139695
693.996	0.0139751
694.075	0.0139764
694.153	0.0138512
694.231	0.0138663
694.309	0.0139477
694.387	0.0140939
694.465	0.0141214
694.543	0.0143136
694.621	0.0145993
694.700	0.0146837
694.778	0.0147372
694.856	0.0147982
694.934	0.0149738
695.012	0.0149197
695.090	0.0147768
695.168	0.0146815
695.246	0.0145676
695.325	0.0142727
695.403	0.0142422
695.481	0.0141252
695.559	0.0140216
695.637	0.0138280
695.715	0.0137112
695.793	0.0137266
695.871	0.0137008
695.950	0.0139211
696.028	0.0140612
696.106	0.0141156
696.184	0.0142928
696.262	0.0144804
696.340	0.0145116
696.418	0.0147124
696.496	0.0148157
696.575	0.0147571
696.653	0.0146959
696.731	0.0146699
696.809	0.0147323
696.887	0.0144600
696.965	0.0142607
697.043	0.0140381
697.121	0.0140192
697.200	0.0138074
697.278	0.0137498
697.356	0.0136825
697.434	0.0138432
697.512	0.0139988
697.590	0.0140076
697.668	0.0143409
697.746	0.0146771
697.825	0.0146898
697.903	0.0150578
697.981	0.0150741
698.059	0.0150979
698.137	0.0151530
698.215	0.0151346
698.293	0.0151180
698.371	0.0149516
698.450	0.0148091
698.528	0.0145643
698.606	0.0140543
698.684	0.0137655
698.762	0.0135111
698.840	0.0133040
698.918	0.0131554
698.996	0.0130217
699.075	0.0132085
699.153	0.0134719
699.231	0.0136586
699.309	0.0138362
699.387	0.0143893
699.465	0.0146721
699.543	0.0148829
699.621	0.0152213
699.700	0.0154214
699.778	0.0154690
699.856	0.0153816
699.934	0.0152373
700.012	0.0151021
700.090	0.0148528
700.168	0.0144057
700.246	0.0140623
700.325	0.0138181
700.403	0.0136884
700.481	0.0136586
700.559	0.0134529
700.637	0.0133862
700.715	0.0137100
700.793	0.0138076
700.871	0.0141097
700.950	0.0142387
701.028	0.0145080
701.106	0.0145173
701.184	0.0148051
701.262	0.0149840
701.340	0.0149920
701.418	0.0150641
701.496	0.0149519
701.575	0.0148858
701.653	0.0147446
701.731	0.0144186
701.809	0.0141352
701.887	0.0139320
701.965	0.0137161
702.043	0.0135316
702.121	0.0134685
702.200	0.0134230
702.278	0.0136195
702.356	0.0136400
702.434	0.0140067
702.512	0.0142252
702.590	0.0144567
702.668	0.0146365
702.746	0.0148503
702.825	0.0148472
702.903	0.0149356
702.981	0.0147281
703.059	0.0147507
703.137	0.0147157
703.215	0.0145337
703.293	0.0142620
703.371	0.0142245
703.450	0.0140311
703.528	0.0139085
703.606	0.0137267
703.684	0.0137674
703.762	0.0137222
703.840	0.0139744
703.918	0.0139767
703.996	0.0141883
704.075	0.0143882
704.153	0.0145658
704.231	0.0146233
704.309	0.0148288
704.387	0.0149108
704.465	0.0149663
704.543	0.0149068
704.621	0.0149235
704.700	0.0147939
704.778	0.0146635
704.856	0.0145163
704.934	0.0142457
705.012	0.0141938
705.090	0.0139909
705.168	0.0136282
705.246	0.0136269
705.325	0.0135374
705.403	0.0133607
705.481	0.0135172
705.559	0.0135172
705.637	0.0136000
705.715	0.0138947
705.793	0.0138737
705.871	0.0139323
705.950	0.0142634
706.028	0.0145319
706.106	0.0148481
706.184	0.0149735
706.262	0.0151283
706.340	0.0151917
706.418	0.0153049
706.496	0.0153793
706.575	0.0153128
706.653	0.0150417
706.731	0.0147798
706.809	0.0142632
706.887	0.0140301
706.965	0.0136868
707.043	0.0132815
707.121	0.0132018
707.200	0.0129937
707.278	0.0130479
707.356	0.0129882
707.434	0.0132169
707.512	0.0133766
707.590	0.0137805
707.668	0.0139538
707.746	0.0143130
707.825	0.0146485
707.903	0.0149095
707.981	0.0149619
708.059	0.0150964
708.137	0.0151553
708.215	0.0152676
708.293	0.0151260
708.371	0.0149741
708.450	0.0146960
708.528	0.0145358
708.606	0.0143635
708.684	0.0140002
708.762	0.0138689
708.840	0.0137605
708.918	0.0135966
708.996	0.0135847
709.075	0.0136127
709.153	0.0134489
709.231	0.0135189
709.309	0.0134451
709.387	0.0137139
709.465	0.0137713
709.543	0.0138244
709.621	0.0139351
709.700	0.0140411
709.778	0.0141868
709.856	0.0144571
709.934	0.0145817
710.012	0.0148657
710.090	0.0149040
710.168	0.0149913
710.246	0.0151615
710.325	0.0152325
710.403	0.0150311
710.481	0.0148717
710.559	0.0148814
710.637	0.0146228
710.715	0.0142470
710.793	0.0139599
710.871	0.0138818
710.950	0.0137168
711.028	0.0135012
711.106	0.0135162
711.184	0.0135658
711.262	0.0136986
711.340	0.0137811
711.418	0.0138511
711.496	0.0138939
711.575	0.0140202
711.653	0.0140650
711.731	0.0142568
711.809	0.0141920
711.887	0.0142123
711.965	0.0143064
712.043	0.0144024
712.121	0.0143120
712.200	0.0143504
712.278	0.0143738
712.356	0.0144440
712.434	0.0144960
712.512	0.0144636
712.590	0.0143576
712.668	0.0145150
712.746	0.0144001
712.825	0.0144813
712.903	0.0144334
712.981	0.0144060
713.059	0.0142796
713.137	0.0142416
713.215	0.0140683
713.293	0.0140209
713.371	0.0141513
713.450	0.0141829
713.528	0.0140574
713.606	0.0142065
713.684	0.0141902
713.762	0.0141519
713.840	0.0144151
713.918	0.0143243
713.996	0.0144538
714.075	0.0146115
714.153	0.0146133
714.231	0.0146512
714.309	0.0146844
714.387	0.0146710
714.465	0.0146363
714.543	0.0145965
714.621	0.0144324
714.700	0.0143395
714.778	0.0142857
714.856	0.0142422
714.934	0.0140362
715.012	0.0140553
715.090	0.0141845
715.168	0.0141520
715.246	0.0140489
715.325	0.0141030
715.403	0.0141222
715.481	0.0142668
715.559	0.0141235
715.637	0.0140829
715.715	0.0140572
715.793	0.0141413
715.871	0.0140468
715.950	0.0141634
716.028	0.0143804
716.106	0.0141412
716.184	0.0144283
716.262	0.0144657
716.340	0.0145316
716.418	0.0145649
716.496	0.0145646
716.575	0.0144866
716.653	0.0145199
716.731	0.0144408
716.809	0.0143678
716.887	0.0144061
716.965	0.0142830
717.043	0.0140970
717.121	0.0139444
717.200	0.0139449
717.278	0.0138270
717.356	0.0137243
717.434	0.0138155
717.512	0.0138757
717.590	0.0140501
717.668	0.0140741
717.746	0.0141456
717.825	0.0143978
717.903	0.0144489
717.981	0.0146735
718.059	0.0146452
718.137	0.0150008
718.215	0.0150551
718.293	0.0150121
718.371	0.0148882
718.450	0.0148116
718.528	0.0148151
718.606	0.0147633
718.684	0.0146260
718.762	0.0145681
718.840	0.0145103
718.918	0.0144415
718.996	0.0141671
719.075	0.0141448
719.153	0.0141483
719.231	0.0139744
719.309	0.0137159
719.387	0.0136340
719.465	0.0137290
719.543	0.0137691
719.621	0.0139034
719.700	0.0139157
719.778	0.0140373
719.856	0.0141222
719.934	0.0142332
720.012	0.0143738
720.090	0.0143756
720.168	0.0144720
720.246	0.0145752
720.325	0.0145589
720.403	0.0145670
720.481	0.0145568
720.559	0.0146141
720.637	0.0144305
720.715	0.0142218
720.793	0.0141345
720.871	0.0142463
720.950	0.0140510
721.028	0.0140119
721.106	0.0140284
721.184	0.0140118
721.262	0.0139153
721.340	0.0139936
721.418	0.0139467
721.496	0.0139471
721.575	0.0138811
721.653	0.0140481
721.731	0.0139323
721.809	0.0139709
721.887	0.0140556
721.965	0.0138763
722.043	0.0139532
722.121	0.0138622
722.200	0.0140790
722.278	0.0142851
722.356	0.0142469
722.434	0.0143941
722.512	0.0143436
722.590	0.0145119
722.668	0.0146523
722.746	0.0147436
722.825	0.0148106
722.903	0.0148899
722.981	0.0149284
723.059	0.0147534
723.137	0.0148512
723.215	0.0146655
723.293	0.0146426
723.371	0.0144130
723.450	0.0143748
723.528	0.0141112
723.606	0.0139944
723.684	0.0137788
723.762	0.0138017
723.840	0.0137399
723.918	0.0137665
723.996	0.0138071
724.075	0.0138404
724.153	0.0137865
724.231	0.0140257
724.309	0.0140637
724.387	0.0143961
724.465	0.0143853
724.543	0.0143593
724.621	0.0144738
724.700	0.0145509
724.778	0.0145075
724.856	0.0144195
724.934	0.0146098
725.012	0.0146191
725.090	0.0144854
725.168	0.0144770
725.246	0.0145307
725.325	0.0143948
725.403	0.0143949
725.481	0.0144921
725.559	0.0144080
725.637	0.0143472
725.715	0.0144267
725.793	0.0142815
725.871	0.0142744
725.950	0.0139964
726.028	0.0141801
726.106	0.0141523
726.184	0.0140770
726.262	0.0139088
726.340	0.0139126
726.418	0.0140105
726.496	0.0140131
726.575	0.0140645
726.653	0.0141348
726.731	0.0141705
726.809	0.0143054
726.887	0.0142342
726.965	0.0144305
727.043	0.0144861
727.121	0.0145220
727.200	0.0146104
727.278	0.0145930
727.356	0.0145621
727.434	0.0145439
727.512	0.0144636
727.590	0.0143838
727.668	0.0142976
727.746	0.0141924
727.825	0.0140443
727.903	0.0139529
727.981	0.0137859
728.059	0.0138255
728.137	0.0136902
728.215	0.0136804
728.293	0.0136950
728.371	0.0137936
728.450	0.0138765
728.528	0.0140565
728.606	0.0141707
728.684	0.0141824
728.762	0.0143373
728.840	0.0143867
728.918	0.0144216
728.996	0.0144633
729.075	0.0146264
729.153	0.0145039
729.231	0.0145953
729.309	0.0145473
729.387	0.0145705
729.465	0.0145728
729.543	0.0143348
729.621	0.0144666
729.700	0.0143723
729.778	0.0142828
729.856	0.0142092
729.934	0.0143658
730.012	0.0142345
730.090	0.0141705
730.168	0.0141888
730.246	0.0142778
730.325	0.0142464
730.403	0.0143471
730.481	0.0142550
730.559	0.0141410
730.637	0.0144534
730.715	0.0143889
730.793	0.0142448
730.871	0.0143341
730.950	0.0144472
731.028	0.0144232
731.106	0.0142785
731.184	0.0142063
731.262	0.0143516
731.340	0.0142826
731.418	0.0142931
731.496	0.0142869
731.575	0.0143634
731.653	0.0141824
731.731	0.0142971
731.809	0.0142387
731.887	0.0143706
731.965	0.0143038
732.043	0.0142367
732.121	0.0143551
732.200	0.0142941
732.278	0.0143637
732.356	0.0143034
732.434	0.0143063
732.512	0.0144278
732.590	0.0144199
732.668	0.0143563
732.746	0.0143156
732.825	0.0143416
732.903	0.0143683
732.981	0.0143309
733.059	0.0140993
733.137	0.0141048
733.215	0.0142968
733.293	0.0142022
733.371	0.0142305
733.450	0.0141872
733.528	0.0140592
733.606	0.0140683
733.684	0.0141950
733.762	0.0139982
733.840	0.0141004
733.918	0.0142264
733.996	0.0141656
734.075	0.0143501
734.153	0.0143137
734.231	0.0142896
734.309	0.0143001
734.387	0.0144798
734.465	0.0143342
734.543	0.0144746
734.621	0.0144216
734.700	0.0143482
734.778	0.0144328
734.856	0.0145122
734.934	0.0144430
735.012	0.0144073
735.090	0.0142892
735.168	0.0143540
735.246	0.0142931
735.325	0.0140797
735.403	0.0140557
735.481	0.0141199
735.559	0.0140022
735.637	0.0140005
735.715	0.0140028
735.793	0.0139716
735.871	0.0140168
735.950	0.0141357
736.028	0.0141817
736.106	0.0141914
736.184	0.0144324
736.262	0.0144582
736.340	0.0143222
736.418	0.0144936
736.496	0.0146466
736.575	0.0147639
736.653	0.0148660
736.731	0.0147197
736.809	0.0147031
736.887	0.0146186
736.965	0.0147004
737.043	0.0146506
737.121	0.0146049
737.200	0.0144598
737.278	0.0144822
737.356	0.0144001
737.434	0.0143314
737.512	0.0141819
737.590	0.0141685
737.668	0.0140955
737.746	0.0141019
737.825	0.0142306
737.903	0.0141422
737.981	0.0141330
738.059	0.0139804
738.137	0.0140888
738.215	0.0141669
738.293	0.0140805
738.371	0.0140012
738.450	0.0141097
738.528	0.0142233
738.606	0.0142393
738.684	0.0143416
738.762	0.0141940
738.840	0.0141935
738.918	0.0142789
738.996	0.0144079
739.075	0.0143475
739.153	0.0143225
739.231	0.0143601
739.309	0.0143800
739.387	0.0143041
739.465	0.0143480
739.543	0.0142789
739.621	0.0142366
739.700	0.0142188
739.778	0.0143606
739.856	0.0140842
739.934	0.0141174
740.012	0.0141509
740.090	0.0140762
740.168	0.0140841
740.246	0.0140761
740.325	0.0140261
740.403	0.0139218
740.481	0.0140556
740.559	0.0141096
740.637	0.0142913
740.715	0.0141737
740.793	0.0143099
740.871	0.0144106
740.950	0.0144104
741.028	0.0145842
741.106	0.0145373
741.184	0.0144398
741.262	0.0144116
741.340	0.0145960
741.418	0.0146752
741.496	0.0144800
741.575	0.0144361
741.653	0.0144508
741.731	0.0143058
741.809	0.0143031
741.887	0.0141877
741.965	0.0142332
742.043	0.0142884
742.121	0.0141768
742.200	0.0141707
742.278	0.0141271
742.356	0.0142160
742.434	0.0140987
742.512	0.0140950
742.590	0.0141720
742.668	0.0140958
742.746	0.0142461
742.825	0.0141351
742.903	0.0141191
742.981	0.0140450
743.059	0.0140355
743.137	0.0140953
743.215	0.0139856
743.293	0.0141045
743.371	0.0140615
743.450	0.0142133
743.528	0.0141182
743.606	0.0141345
743.684	0.0141539
743.762	0.0143397
743.840	0.0144100
743.918	0.0145264
743.996	0.0144153
744.075	0.0144093
744.153	0.0145387
744.231	0.0145441
744.309	0.0144566
744.387	0.0145027
744.465	0.0145230
744.543	0.0144611
744.621	0.0144188
744.700	0.0144647
744.778	0.0143880
744.856	0.0144613
744.934	0.0142879
745.012	0.0143227
745.090	0.0141593
745.168	0.0142589
745.246	0.0141884
745.325	0.0141517
745.403	0.0142574
745.481	0.0142780
745.559	0.0143314
745.637	0.0143196
745.715	0.0143275
745.793	0.0142458
745.871	0.0142186
745.950	0.0142468
746.028	0.0142415
746.106	0.0143039
746.184	0.0142983
746.262	0.0143108
746.340	0.0142810
746.418	0.0142998
746.496	0.0142612
746.575	0.0144172
746.653	0.0143166
746.731	0.0144545
746.809	0.0144022
746.887	0.0144878
746.965	0.0144223
747.043	0.0143284
747.121	0.0142191
747.200	0.0141695
747.278	0.0142176
747.356	0.0142727
747.434	0.0141061
747.512	0.0139795
747.590	0.0139276
747.668	0.0140218
747.746	0.0139104
747.825	0.0138527
747.903	0.0138620
747.981	0.0138707
748.059	0.0139822
748.137	0.0140131
748.215	0.0139813
748.293	0.0141280
748.371	0.0143468
748.450	0.0143964
748.528	0.0143323
748.606	0.0143577
748.684	0.0144813
748.762	0.0145018
748.840	0.0145596
748.918	0.0145382
748.996	0.0145474
749.075	0.0145126
749.153	0.0145290
749.231	0.0144141
749.309	0.0143452
749.387	0.0144591
749.465	0.0143654
749.543	0.0143871
749.621	0.0143759
749.700	0.0142006
749.778	0.0142513
749.856	0.0141640
749.934	0.0141495
750.012	0.0142001
750.090	0.0143017
750.168	0.0142258
750.246	0.0141582
750.325	0.0142851
750.403	0.0141864
750.481	0.0143721
750.559	0.0143515
750.637	0.0143818
750.715	0.0143115
750.793	0.0142648
750.871	0.0144016
750.950	0.0142866
751.028	0.0142912
751.106	0.0143354
751.184	0.0145056
751.262	0.0143874
751.340	0.0143731
751.418	0.0143922
751.496	0.0143037
751.575	0.0143666
751.653	0.0143021
751.731	0.0143764
751.809	0.0143121
751.887	0.0142765
751.965	0.0142499
752.043	0.0142471
752.121	0.0142505
752.200	0.0141519
752.278	0.0143179
752.356	0.0144694
752.434	0.0142702
752.512	0.0142874
752.590	0.0143544
752.668	0.0143353
752.746	0.0144571
752.825	0.0143382
752.903	0.0144679
752.981	0.0144475
753.059	0.0143584
753.137	0.0145350
753.215	0.0145592
753.293	0.0144982
753.371	0.0145625
753.450	0.0147163
753.528	0.0144188
753.606	0.0144947
753.684	0.0143937
753.762	0.0145107
753.840	0.0144807
753.918	0.0144382
753.996	0.0144391
754.075	0.0143464
754.153	0.0142891
754.231	0.0143678
754.309	0.0142689
754.387	0.0142411
754.465	0.0141247
754.543	0.0143422
754.621	0.0143416
754.700	0.0140946
754.778	0.0143317
754.856	0.0142373
754.934	0.0141153
755.012	0.0141458
755.090	0.0142422
755.168	0.0141226
755.246	0.0140100
755.325	0.0140748
755.403	0.0141265
755.481	0.0141368
755.559	0.0141223
755.637	0.0141104
755.715	0.0141113
755.793	0.0140768
755.871	0.0140640
755.950	0.0142675
756.028	0.0142051
756.106	0.0141572
756.184	0.0139983
756.262	0.0141674
756.340	0.0142506
756.418	0.0141903
756.496	0.0142683
756.575	0.0143652
756.653	0.0142570
756.731	0.0142628
756.809	0.0141933
756.887	0.0141509
756.965	0.0141603
757.043	0.0142395
757.121	0.0142979
757.200	0.0142777
757.278	0.0143581
757.356	0.0143399
757.434	0.0143575
757.512	0.0142844
757.590	0.0142680
757.668	0.0141690
757.746	0.0142947
757.825	0.0143567
757.903	0.0143615
757.981	0.0142660
758.059	0.0142955
758.137	0.0141515
758.215	0.0142139
758.293	0.0142760
758.371	0.0143425
758.450	0.0142809
758.528	0.0142039
758.606	0.0141930
758.684	0.0143291
758.762	0.0141327
758.840	0.0142103
758.918	0.0142045
758.996	0.0141862
759.075	0.0142181
759.153	0.0142867
759.231	0.0141457
759.309	0.0141288
759.387	0.0142271
759.465	0.0142043
759.543	0.0141055
759.621	0.0141747
759.700	0.0141509
759.778	0.0142934
759.856	0.0142786
759.934	0.0141723
760.012	0.0141922
760.090	0.0142210
760.168	0.0141291
760.246	0.0141443
760.325	0.0142509
760.403	0.0143066
760.481	0.0143804
760.559	0.0142710
760.637	0.0142886
760.715	0.0142767
760.793	0.0143124
760.871	0.0143876
760.950	0.0143616
761.028	0.0144280
761.106	0.0144321
761.184	0.0143729
761.262	0.0144115
761.340	0.0144592
761.418	0.0144309
761.496	0.0146526
761.575	0.0145177
761.653	0.0144336
761.731	0.0144216
761.809	0.0143822
761.887	0.0144165
761.965	0.0143900
762.043	0.0144157
762.121	0.0142257
762.200	0.0141698
762.278	0.0142404
762.356	0.0143521
762.434	0.0143990
762.512	0.0141807
762.590	0.0141920
762.668	0.0142944
762.746	0.0143296
762.825	0.0143356
762.903	0.0141782
762.981	0.0143097
763.059	0.0141061
763.137	0.0141577
763.215	0.0142141
763.293	0.0142316
763.371	0.0142743
763.450	0.0141915
763.528	0.0140012
763.606	0.0142456
763.684	0.0140736
763.762	0.0142441
763.840	0.0142147
763.918	0.0140931
763.996	0.0140563
764.075	0.0142561
764.153	0.0142035
764.231	0.0141494
764.309	0.0141904
764.387	0.0141019
764.465	0.0142937
764.543	0.0142488
764.621	0.0141779
764.700	0.0142886
764.778	0.0143171
764.856	0.0143391
764.934	0.0143088
765.012	0.0142776
765.090	0.0142520
765.168	0.0142836
765.246	0.0143979
765.325	0.0143509
765.403	0.0142343
765.481	0.0143971
765.559	0.0143698
765.637	0.0142998
765.715	0.0142601
765.793	0.0142593
765.871	0.0142248
765.950	0.0142268
766.028	0.0141758
766.106	0.0141527
766.184	0.0142596
766.262	0.0142303
766.340	0.0142352
766.418	0.0144260
766.496	0.0143835
766.575	0.0143880
766.653	0.0143393
766.731	0.0141458
766.809	0.0142850
766.887	0.0142503
766.965	0.0142152
767.043	0.0141258
767.121	0.0141186
767.200	0.0140730
767.278	0.0141288
767.356	0.0140375
767.434	0.0141000
767.512	0.0140810
767.590	0.0139436
767.668	0.0141274
767.746	0.0141148
767.825	0.0141756
767.903	0.0142142
767.981	0.0142126
768.059	0.0141607
768.137	0.0142112
768.215	0.0143091
768.293	0.0142478
768.371	0.0141670
768.450	0.0143333
768.528	0.0143098
768.606	0.0141570
768.684	0.0141491
768.762	0.0143197
768.840	0.0141930
768.918	0.0141827
768.996	0.0142657
769.075	0.0144519
769.153	0.0143061
769.231	0.0142171
769.309	0.0143272
769.387	0.0143658
769.465	0.0143855
769.543	0.0144646
769.621	0.0145363
769.700	0.0143779
769.778	0.0143420
769.856	0.0145384
769.934	0.0144714
770.012	0.0143016
770.090	0.0144276
770.168	0.0143713
770.246	0.0143069
770.325	0.0144379
770.403	0.0144208
770.481	0.0143559
770.559	0.0143218
770.637	0.0143665
770.715	0.0142979
770.793	0.0142663
770.871	0.0144117
770.950	0.0142527
771.028	0.0142597
771.106	0.0141825
771.184	0.0141045
771.262	0.0141067
771.340	0.0141850
771.418	0.0141729
771.496	0.0142041
771.575	0.0142419
771.653	0.0142152
771.731	0.0142786
771.809	0.0142612
771.887	0.0142048
771.965	0.0142833
772.043	0.0141854
772.121	0.0142912
772.200	0.0143095
772.278	0.0143238
772.356	0.0144185
772.434	0.0143510
772.512	0.0143195
772.590	0.0143167
772.668	0.0143912
772.746	0.0144793
772.825	0.0145386
772.903	0.0144224
772.981	0.0145055
773.059	0.0144587
773.137	0.0143894
773.215	0.0143268
773.293	0.0143525
773.371	0.0143180
773.450	0.0143814
773.528	0.0144366
773.606	0.0143925
773.684	0.0143788
773.762	0.0144802
773.840	0.0144358
773.918	0.0143553
773.996	0.0143709
774.075	0.0143732
774.153	0.0143830
774.231	0.0144224
774.309	0.0145419
774.387	0.0143655
774.465	0.0144588
774.543	0.0145175
774.621	0.0143632
774.700	0.0144179
774.778	0.0143761
774.856	0.0143298
774.934	0.0144089
775.012	0.0144316
775.090	0.0143503
775.168	0.0143421
775.246	0.0142976
775.325	0.0142956
775.403	0.0142965
775.481	0.0141939
775.559	0.0141164
775.637	0.0143021
775.715	0.0142989
775.793	0.0142281
775.871	0.0143450
775.950	0.0142774
776.028	0.0142209
776.106	0.0143163
776.184	0.0142585
776.262	0.0143214
776.340	0.0141994
776.418	0.0143551
776.496	0.0144391
776.575	0.0144619
776.653	0.0143611
776.731	0.0143098
776.809	0.0143268
776.887	0.0142039
776.965	0.0144021
777.043	0.0144095
777.121	0.0142792
777.200	0.0143771
777.278	0.0144585
777.356	0.0143838
777.434	0.0142769
777.512	0.0143040
777.590	0.0143310
777.668	0.0143962
777.746	0.0143023
777.825	0.0142659
777.903	0.0141602
777.981	0.0141931
778.059	0.0143110
778.137	0.0142810
778.215	0.0143467
778.293	0.0141279
778.371	0.0143423
778.450	0.0143354
778.528	0.0143771
778.606	0.0143269
778.684	0.0142934
778.762	0.0143156
778.840	0.0143520
778.918	0.0142644
778.996	0.0142379
779.075	0.0143230
779.153	0.0143134
779.231	0.0142245
779.309	0.0142526
779.387	0.0141927
779.465	0.0143243
779.543	0.0143311
779.621	0.0143025
779.700	0.0141693
779.778	0.0142724
779.856	0.0143405
779.934	0.0143625
780.012	0.0143497
780.090	0.0141694
780.168	0.0141608
780.246	0.0144176
780.325	0.0142531
780.403	0.0142986
780.481	0.0143710
780.559	0.0141538
780.637	0.0142562
780.715	0.0144279
780.793	0.0142815
780.871	0.0142564
780.950	0.0143187
781.028	0.0143134
781.106	0.0143163
781.184	0.0142352
781.262	0.0142688
781.340	0.0141695
781.418	0.0142442
781.496	0.0142600
781.575	0.0142627
781.653	0.0143184
781.731	0.0143568
781.809	0.0143912
781.887	0.0143049
781.965	0.0141702
782.043	0.0143261
782.121	0.0143217
782.200	0.0143004
782.278	0.0142580
782.356	0.0142854
782.434	0.0142556
782.512	0.0142600
782.590	0.0141821
782.668	0.0141634
782.746	0.0141651
782.825	0.0142178
782.903	0.0142825
782.981	0.0143494
783.059	0.0143427
783.137	0.0141816
783.215	0.0142285
783.293	0.0142223
783.371	0.0141540
783.450	0.0141695
783.528	0.0142728
783.606	0.0142834
783.684	0.0140543
783.762	0.0141563
783.840	0.0141280
783.918	0.0142599
783.996	0.0141225
784.075	0.0139632
784.153	0.0141039
784.231	0.0142059
784.309	0.0142596
784.387	0.0141602
784.465	0.0142112
784.543	0.0141329
784.621	0.0141630
784.700	0.0142624
784.778	0.0141010
784.856	0.0143065
784.934	0.0143843
785.012	0.0143094
785.090	0.0143155
785.168	0.0142294
785.246	0.0143604
785.325	0.0142252
785.403	0.0142477
785.481	0.0142989
785.559	0.0141829
785.637	0.0142645
785.715	0.0141642
785.793	0.0141293
785.871	0.0143681
785.950	0.0142999
786.028	0.0141519
786.106	0.0142506
786.184	0.0143680
786.262	0.0142703
786.340	0.0141594
786.418	0.0142451
786.496	0.0143124
786.575	0.0143409
786.653	0.0142103
786.731	0.0142684
786.809	0.0143433
786.887	0.0143030
786.965	0.0143341
787.043	0.0143619
787.121	0.0142391
787.200	0.0143562
787.278	0.0143762
787.356	0.0143014
787.434	0.0143068
787.512	0.0142416
787.590	0.0142094
787.668	0.0143103
787.746	0.0141562
787.825	0.0142072
787.903	0.0142741
787.981	0.0141944
788.059	0.0142722
788.137	0.0142712
788.215	0.0143388
788.293	0.0144604
788.371	0.0144064
788.450	0.0143569
788.528	0.0144035
788.606	0.0144466
788.684	0.0142521
788.762	0.0142844
788.840	0.0143176
788.918	0.0143330
788.996	0.0144067
789.075	0.0143661
789.153	0.0142937
789.231	0.0144568
789.309	0.0143581
789.387	0.0142777
789.465	0.0141769
789.543	0.0142718
789.621	0.0143256
789.700	0.0142461
789.778	0.0142686
789.856	0.0141865
789.934	0.0141386
790.012	0.0141666
790.090	0.0140945
790.168	0.0139697
790.246	0.0140715
790.325	0.0141191
790.403	0.0141542
790.481	0.0140434
790.559	0.0140728
790.637	0.0141058
790.715	0.0141756
790.793	0.0141821
790.871	0.0142172
790.950	0.0141634
791.028	0.0141367
791.106	0.0142217
791.184	0.0142775
791.262	0.0141394
791.340	0.0141835
791.418	0.0142536
791.496	0.0143090
791.575	0.0141847
791.653	0.0142314
791.731	0.0142268
791.809	0.0141427
791.887	0.0142712
791.965	0.0141798
792.043	0.0142139
792.121	0.0141862
792.200	0.0142860
792.278	0.0142522
792.356	0.0142445
792.434	0.0141715
792.512	0.0142184
792.590	0.0143039
792.668	0.0143284
792.746	0.0143811
792.825	0.0142854
792.903	0.0144689
792.981	0.0143966
793.059	0.0144759
793.137	0.0143972
793.215	0.0144404
793.293	0.0142438
793.371	0.0143484
793.450	0.0144894
793.528	0.0145155
793.606	0.0145150
793.684	0.0145367
793.762	0.0142875
793.840	0.0143338
793.918	0.0143127
793.996	0.0144730
794.075	0.0142928
794.153	0.0144171
794.231	0.0144301
794.309	0.0143423
794.387	0.0143062
794.465	0.0144373
794.543	0.0144203
794.621	0.0142290
794.700	0.0142538
794.778	0.0142507
794.856	0.0143606
794.934	0.0142856
795.012	0.0143484
795.090	0.0142943
795.168	0.0140643
795.246	0.0142118
795.325	0.0143549
795.403	0.0143715
795.481	0.0142548
795.559	0.0144159
795.637	0.0143710
795.715	0.0143386
795.793	0.0142758
795.871	0.0142854
795.950	0.0142933
796.028	0.0143410
796.106	0.0143913
796.184	0.0144540
796.262	0.0144373
796.340	0.0143781
796.418	0.0143499
796.496	0.0141499
796.575	0.0143538
796.653	0.0144417
796.731	0.0143393
796.809	0.0143108
796.887	0.0143579
796.965	0.0143049
797.043	0.0143642
797.121	0.0143436
797.200	0.0143868
797.278	0.0143803
797.356	0.0144040
797.434	0.0145174
797.512	0.0144716
797.590	0.0144288
797.668	0.0144079
797.746	0.0142494
797.825	0.0144108
797.903	0.0144304
797.981	0.0142206
798.059	0.0141123
798.137	0.0142326
798.215	0.0143129
798.293	0.0141571
798.371	0.0141682
798.450	0.0141517
798.528	0.0141744
798.606	0.0142947
798.684	0.0143275
798.762	0.0142391
798.840	0.0141383
798.918	0.0141984
798.996	0.0141827
799.075	0.0143063
799.153	0.0142427
799.231	0.0143635
799.309	0.0142905
799.387	0.0141673
799.465	0.0140938
799.543	0.0141529
799.621	0.0142410
799.700	0.0142181
799.778	0.0141107
799.856	0.0140182
799.934	0.0141253
800.012	0.0142243
800.090	0.0140485
800.168	0.0142365
800.246	0.0141351
800.325	0.0140885
800.403	0.0141346
800.481	0.0142450
800.559	0.0142783
800.637	0.0141805
800.715	0.0141855
800.793	0.0142662
800.871	0.0142832
800.950	0.0144098
801.028	0.0144750
801.106	0.0143329
801.184	0.0142947
801.262	0.0142582
801.340	0.0142660
801.418	0.0142236
801.496	0.0142889
801.575	0.0142971
801.653	0.0142923
801.731	0.0142870
801.809	0.0141561
801.887	0.0142369
801.965	0.0142750
802.043	0.0142522
802.121	0.0141433
802.200	0.0141245
802.278	0.0142781
802.356	0.0141660
802.434	0.0139733
802.512	0.0141537
802.590	0.0142482
802.668	0.0141014
802.746	0.0142015
802.825	0.0142332
802.903	0.0141572
802.981	0.0141890
803.059	0.0141923
803.137	0.0141166
803.215	0.0141932
803.293	0.0142355
803.371	0.0143031
803.450	0.0142968
803.528	0.0141724
803.606	0.0142009
803.684	0.0140768
803.762	0.0143520
803.840	0.0144275
803.918	0.0142590
803.996	0.0141640
804.075	0.0141936
804.153	0.0142099
804.231	0.0143486
804.309	0.0143309
804.387	0.0142270
804.465	0.0141665
804.543	0.0141900
804.621	0.0141841
804.700	0.0141988
804.778	0.0142367
804.856	0.0142976
804.934	0.0142406
805.012	0.0140937
805.090	0.0142856
805.168	0.0143206
805.246	0.0143109
805.325	0.0142574
805.403	0.0142513
805.481	0.0141813
805.559	0.0142356
805.637	0.0142355
805.715	0.0142521
805.793	0.0142509
805.871	0.0141677
805.950	0.0143671
806.028	0.0141338
806.106	0.0141954
806.184	0.0142422
806.262	0.0142046
806.340	0.0141482
806.418	0.0141911
806.496	0.0141390
806.575	0.0141151
806.653	0.0141210
806.731	0.0141306
806.809	0.0141758
806.887	0.0142651
806.965	0.0141412
807.043	0.0142097
807.121	0.0142392
807.200	0.0143195
807.278	0.0142382
807.356	0.0141380
807.434	0.0142425
807.512	0.0143270
807.590	0.0144378
807.668	0.0142018
807.746	0.0140918
807.825	0.0142345
807.903	0.0143856
807.981	0.0143520
808.059	0.0141270
808.137	0.0140732
808.215	0.0141346
808.293	0.0141692
808.371	0.0142612
808.450	0.0141312
808.528	0.0141314
808.606	0.0142033
808.684	0.0141889
808.762	0.0143102
808.840	0.0143000
808.918	0.0141613
808.996	0.0143020
809.075	0.0142341
809.153	0.0141978
809.231	0.0141743
809.309	0.0142216
809.387	0.0142822
809.465	0.0143446
809.543	0.0143154
809.621	0.0142900
809.700	0.0143057
809.778	0.0141378
809.856	0.0141952
809.934	0.0141182
810.012	0.0142784
810.090	0.0143453
810.168	0.0142122
810.246	0.0142705
810.325	0.0143246
810.403	0.0142936
810.481	0.0143716
810.559	0.0141727
810.637	0.0141605
810.715	0.0142279
810.793	0.0142059
810.871	0.0142123
810.950	0.0142184
811.028	0.0141583
811.106	0.0141608
811.184	0.0142528
811.262	0.0142209
811.340	0.0143056
811.418	0.0142532
811.496	0.0141705
811.575	0.0142983
811.653	0.0142764
811.731	0.0143789
811.809	0.0141675
811.887	0.0142453
811.965	0.0142592
812.043	0.0141806
812.121	0.0141993
812.200	0.0143057
812.278	0.0143746
812.356	0.0142735
812.434	0.0142689
812.512	0.0143130
812.590	0.0143581
812.668	0.0143038
812.746	0.0144324
812.825	0.0143472
812.903	0.0141930
812.981	0.0142685
813.059	0.0143036
813.137	0.0143688
813.215	0.0141375
813.293	0.0140744
813.371	0.0143465
813.450	0.0142654
813.528	0.0142167
813.606	0.0142877
813.684	0.0141788
813.762	0.0142870
813.840	0.0142003
813.918	0.0141152
813.996	0.0142151
814.075	0.0141980
814.153	0.0142923
814.231	0.0141473
814.309	0.0142832
814.387	0.0141721
814.465	0.0141282
814.543	0.0141597
814.621	0.0141925
814.700	0.0143128
814.778	0.0142014
814.856	0.0141643
814.934	0.0141451
815.012	0.0142831
815.090	0.0144070
815.168	0.0143738
815.246	0.0144173
815.325	0.0142970
815.403	0.0143015
815.481	0.0143503
815.559	0.0143293
815.637	0.0143924
815.715	0.0143178
815.793	0.0144071
815.871	0.0144014
815.950	0.0143244
816.028	0.0142091
816.106	0.0142939
816.184	0.0144075
816.262	0.0141907
816.340	0.0143114
816.418	0.0142548
816.496	0.0142258
816.575	0.0142764
816.653	0.0143683
816.731	0.0142338
816.809	0.0141502
816.887	0.0142005
816.965	0.0143657
817.043	0.0142452
817.121	0.0141843
817.200	0.0141766
817.278	0.0144058
817.356	0.0143540
817.434	0.0142197
817.512	0.0141203
817.590	0.0142670
817.668	0.0143352
817.746	0.0141465
817.825	0.0142303
817.903	0.0142641
817.981	0.0142722
818.059	0.0142271
818.137	0.0142633
818.215	0.0142519
818.293	0.0143945
818.371	0.0141913
818.450	0.0143160
818.528	0.0142707
818.606	0.0142612
818.684	0.0142247
818.762	0.0142613
818.840	0.0142514
818.918	0.0142734
818.996	0.0143056
819.075	0.0143697
819.153	0.0144056
819.231	0.0142730
819.309	0.0143691
819.387	0.0144348
819.465	0.0142271
819.543	0.0141675
819.621	0.0143307
819.700	0.0142877
819.778	0.0142727
819.856	0.0143333
819.934	0.0142987
820.012	0.0143503
820.090	0.0143594
820.168	0.0143489
820.246	0.0142709
820.325	0.0144096
820.403	0.0143969
820.481	0.0143812
820.559	0.0143597
820.637	0.0143619
820.715	0.0144171
820.793	0.0144999
820.871	0.0144006
820.950	0.0143581
821.028	0.0143965
821.106	0.0144108
821.184	0.0142142
821.262	0.0143281
821.340	0.0143599
821.418	0.0143588
821.496	0.0144561
821.575	0.0142321
821.653	0.0142690
821.731	0.0142263
821.809	0.0143547
821.887	0.0143826
821.965	0.0143307
822.043	0.0142850
822.121	0.0142784
822.200	0.0142897
822.278	0.0142194
822.356	0.0143699
822.434	0.0142362
822.512	0.0143416
822.590	0.0142004
822.668	0.0141484
822.746	0.0141303
822.825	0.0141314
822.903	0.0140861
822.981	0.0140894
823.059	0.0143138
823.137	0.0141389
823.215	0.0140577
823.293	0.0140512
823.371	0.0141067
823.450	0.0142574
823.528	0.0141835
823.606	0.0142212
823.684	0.0142542
823.762	0.0143027
823.840	0.0141800
823.918	0.0142106
823.996	0.0143640
824.075	0.0144305
824.153	0.0142597
824.231	0.0142012
824.309	0.0143214
824.387	0.0143310
824.465	0.0142703
824.543	0.0141967
824.621	0.0141670
824.700	0.0141582
824.778	0.0142958
824.856	0.0142049
824.934	0.0140510
825.012	0.0141340
825.090	0.0142536
825.168	0.0141737
825.246	0.0141437
825.325	0.0143517
825.403	0.0142099
825.481	0.0142967
825.559	0.0142370
825.637	0.0142493
825.715	0.0142447
825.793	0.0141796
825.871	0.0142900
825.950	0.0141634
826.028	0.0141428
826.106	0.0143549
826.184	0.0144218
826.262	0.0141659
826.340	0.0141281
826.418	0.0143544
826.496	0.0142866
826.575	0.0142008
826.653	0.0144038
826.731	0.0143425
826.809	0.0141599
826.887	0.0143003
826.965	0.0141677
827.043	0.0142686
827.121	0.0141448
827.200	0.0141821
827.278	0.0143121
827.356	0.0143545
827.434	0.0142667
827.512	0.0141602
827.590	0.0142142
827.668	0.0141449
827.746	0.0141354
827.825	0.0142303
827.903	0.0141164
827.981	0.0143285
828.059	0.0142398
828.137	0.0142023
828.215	0.0142893
828.293	0.0142313
828.371	0.0142875
828.450	0.0143251
828.528	0.0143258
828.606	0.0143884
828.684	0.0143167
828.762	0.0141345
828.840	0.0142596
828.918	0.0142905
828.996	0.0141595
829.075	0.0142265
829.153	0.0142457
829.231	0.0141383
829.309	0.0142186
829.387	0.0142203
829.465	0.0141933
829.543	0.0143325
829.621	0.0143034
829.700	0.0143115
829.778	0.0142219
829.856	0.0142163
829.934	0.0143695
830.012	0.0144670
830.090	0.0143307
830.168	0.0143056
830.246	0.0142790
830.325	0.0142072
830.403	0.0143530
830.481	0.0142344
830.559	0.0142528
830.637	0.0142829
830.715	0.0142022
830.793	0.0142135
830.871	0.0143141
830.950	0.0143797
831.028	0.0142926
831.106	0.0141587
831.184	0.0140207
831.262	0.0140901
831.340	0.0142593
831.418	0.0142785
831.496	0.0142324
831.575	0.0142670
831.653	0.0141920
831.731	0.0141521
831.809	0.0140930
831.887	0.0141158
831.965	0.0140765
832.043	0.0141909
832.121	0.0142012
832.200	0.0142776
832.278	0.0141984
832.356	0.0141536
832.434	0.0142188
832.512	0.0141930
832.590	0.0142532
832.668	0.0142451
832.746	0.0142918
832.825	0.0141846
832.903	0.0140772
832.981	0.0141740
833.059	0.0141326
833.137	0.0142452
833.215	0.0141927
833.293	0.0142144
833.371	0.0142486
833.450	0.0142683
833.528	0.0141554
833.606	0.0142867
833.684	0.0143245
833.762	0.0141376
833.840	0.0141939
833.918	0.0142107
833.996	0.0142411
834.075	0.0143337
834.153	0.0142216
834.231	0.0142288
834.309	0.0142800
834.387	0.0141983
834.465	0.0142739
834.543	0.0142268
834.621	0.0142899
834.700	0.0141365
834.778	0.0141002
834.856	0.0142628
834.934	0.0142336
835.012	0.0142439
835.090	0.0142804
835.168	0.0142922
835.246	0.0142413
835.325	0.0143205
835.403	0.0143281
835.481	0.0142184
835.559	0.0142687
835.637	0.0142821
835.715	0.0143262
835.793	0.0142982
835.871	0.0142790
835.950	0.0142287
836.028	0.0142401
836.106	0.0142480
836.184	0.0142074
836.262	0.0143381
836.340	0.0142200
836.418	0.0141774
836.496	0.0142065
836.575	0.0143837
836.653	0.0141758
836.731	0.0142452
836.809	0.0143540
836.887	0.0143571
836.965	0.0142815
837.043	0.0142419
837.121	0.0143375
837.200	0.0142681
837.278	0.0143874
837.356	0.0143072
837.434	0.0143136
837.512	0.0142804
837.590	0.0143349
837.668	0.0143672
837.746	0.0142003
837.825	0.0142911
837.903	0.0143388
837.981	0.0141846
838.059	0.0143155
838.137	0.0142307
838.215	0.0143823
838.293	0.0144809
838.371	0.0144038
838.450	0.0143338
838.528	0.0144039
838.606	0.0142060
838.684	0.0142113
838.762	0.0144120
838.840	0.0142487
838.918	0.0142420
838.996	0.0143257
839.075	0.0143259
839.153	0.0141798
839.231	0.0143090
839.309	0.0142899
839.387	0.0144782
839.465	0.0143472
839.543	0.0143350
839.621	0.0142967
839.700	0.0142806
839.778	0.0144394
839.856	0.0141497
839.934	0.0143658
840.012	0.0143382
840.090	0.0143219
840.168	0.0143044
840.246	0.0143544
840.325	0.0143690
840.403	0.0144273
840.481	0.0143979
840.559	0.0144547
840.637	0.0144492
840.715	0.0146007
840.793	0.0143356
840.871	0.0144501
840.950	0.0143284
841.028	0.0144766
841.106	0.0143172
841.184	0.0143712
841.262	0.0144481
841.340	0.0143301
841.418	0.0143555
841.496	0.0143922
841.575	0.0144098
841.653	0.0143697
841.731	0.0144086
841.809	0.0144270
841.887	0.0142896
841.965	0.0143585
842.043	0.0142739
842.121	0.0143307
842.200	0.0144877
842.278	0.0143408
842.356	0.0142544
842.434	0.0143208
842.512	0.0143645
842.590	0.0144270
842.668	0.0144393
842.746	0.0142562
842.825	0.0145050
842.903	0.0143892
842.981	0.0143250
843.059	0.0143428
843.137	0.0142387
843.215	0.0143444
843.293	0.0144066
843.371	0.0142799
843.450	0.0143485
843.528	0.0142917
843.606	0.0143555
843.684	0.0142029
843.762	0.0142569
843.840	0.0142554
843.918	0.0142233
843.996	0.0142757
844.075	0.0141317
844.153	0.0142297
844.231	0.0144028
844.309	0.0143225
844.387	0.0142579
844.465	0.0143369
844.543	0.0144127
844.621	0.0142441
844.700	0.0141928
844.778	0.0142447
844.856	0.0142903
844.934	0.0141760
845.012	0.0142945
845.090	0.0142647
845.168	0.0142583
845.246	0.0141423
845.325	0.0143871
845.403	0.0141506
845.481	0.0141503
845.559	0.0142883
845.637	0.0143068
845.715	0.0142752
845.793	0.0143302
845.871	0.0143831
845.950	0.0142168
846.028	0.0142123
846.106	0.0141062
846.184	0.0141686
846.262	0.0142307
846.340	0.0141531
846.418	0.0141860
846.496	0.0142410
846.575	0.0142770
846.653	0.0141417
846.731	0.0141146
846.809	0.0144137
846.887	0.0140911
846.965	0.0142030
847.043	0.0142022
847.121	0.0142203
847.200	0.0140621
847.278	0.0141728
847.356	0.0142079
847.434	0.0142305
847.512	0.0140681
847.590	0.0140450
847.668	0.0140730
847.746	0.0141292
847.825	0.0141959
847.903	0.0141208
847.981	0.0141242
848.059	0.0141299
848.137	0.0141609
848.215	0.0141303
848.293	0.0141322
848.371	0.0141978
848.450	0.0142559
848.528	0.0140852
848.606	0.0142061
848.684	0.0142004
848.762	0.0140768
848.840	0.0141573
848.918	0.0141987
848.996	0.0142540
849.075	0.0142557
849.153	0.0143034
849.231	0.0142994
849.309	0.0142361
849.387	0.0142577
849.465	0.0142091
849.543	0.0142932
849.621	0.0141768
849.700	0.0141645
849.778	0.0142106
849.856	0.0141228
849.934	0.0141819
850.012	0.0144056
850.090	0.0143314
850.168	0.0143851
850.246	0.0141988
850.325	0.0143110
850.403	0.0142976
850.481	0.0144028
850.559	0.0143023
850.637	0.0143600
850.715	0.0142370
850.793	0.0143074
850.871	0.0143478
850.950	0.0143755
851.028	0.0143567
851.106	0.0144987
851.184	0.0142803
851.262	0.0141570
851.340	0.0141517
851.418	0.0141891
851.496	0.0141719
851.575	0.0143770
851.653	0.0142814
851.731	0.0141964
851.809	0.0142272
851.887	0.0141883
851.965	0.0143097
852.043	0.0142975
852.121	0.0143285
852.200	0.0141554
852.278	0.0142257
852.356	0.0143106
852.434	0.0141382
852.512	0.0142056
852.590	0.0142493
852.668	0.0143406
852.746	0.0142241
852.825	0.0142799
852.903	0.0144484
852.981	0.0142978
853.059	0.0142720
853.137	0.0142488
853.215	0.0143092
853.293	0.0142749
853.371	0.0142961
853.450	0.0142294
853.528	0.0143519
853.606	0.0141351
853.684	0.0140620
853.762	0.0140887
853.840	0.0142403
853.918	0.0142234
853.996	0.0141899
854.075	0.0142190
854.153	0.0142064
854.231	0.0142062
854.309	0.0143024
854.387	0.0142314
854.465	0.0142908
854.543	0.0142625
854.621	0.0141934
854.700	0.0143996
854.778	0.0142838
854.856	0.0142148
854.934	0.0141525
855.012	0.0141692
855.090	0.0141879
855.168	0.0142022
855.246	0.0142691
855.325	0.0142216
855.403	0.0141787
855.481	0.0141247
855.559	0.0142148
855.637	0.0142788
855.715	0.0142573
855.793	0.0141954
855.871	0.0142689
855.950	0.0142602
856.028	0.0143718
856.106	0.0141669
856.184	0.0141752
856.262	0.0141999
856.340	0.0143218
856.418	0.0143456
856.496	0.0144152
856.575	0.0142771
856.653	0.0141997
856.731	0.0143504
856.809	0.0144939
856.887	0.0143509
856.965	0.0143668
857.043	0.0143324
857.121	0.0142686
857.200	0.0144385
857.278	0.0143018
857.356	0.0143623
857.434	0.0143339
857.512	0.0143156
857.590	0.0143526
857.668	0.0142996
857.746	0.0143183
857.825	0.0142638
857.903	0.0143064
857.981	0.0143765
858.059	0.0141177
858.137	0.0141434
858.215	0.0142473
858.293	0.0141795
858.371	0.0142248
858.450	0.0141625
858.528	0.0141044
858.606	0.0142509
858.684	0.0141383
858.762	0.0140368
858.840	0.0141758
858.918	0.0142049
858.996	0.0141738
859.075	0.0143451
859.153	0.0142997
859.231	0.0142905
859.309	0.0142010
859.387	0.0142300
859.465	0.0143848
859.543	0.0143712
859.621	0.0142410
859.700	0.0141846
859.778	0.0143552
859.856	0.0142763
859.934	0.0141628
860.012	0.0143176
860.090	0.0143349
860.168	0.0143178
860.246	0.0142784
860.325	0.0143177
860.403	0.0142622
860.481	0.0142054
860.559	0.0142514
860.637	0.0142928
860.715	0.0142110
860.793	0.0142885
860.871	0.0141697
860.950	0.0142124
861.028	0.0142532
861.106	0.0143300
861.184	0.0143600
861.262	0.0142643
861.340	0.0144001
861.418	0.0143109
861.496	0.0142337
861.575	0.0141724
861.653	0.0142339
861.731	0.0144443
861.809	0.0143525
861.887	0.0142468
861.965	0.0143703
862.043	0.0143265
862.121	0.0143172
862.200	0.0144226
862.278	0.0143481
862.356	0.0144258
862.434	0.0143688
862.512	0.0142655
862.590	0.0143125
862.668	0.0143774
862.746	0.0142396
862.825	0.0141194
862.903	0.0141483
862.981	0.0142069
863.059	0.0142239
863.137	0.0140741
863.215	0.0140882
863.293	0.0142985
863.371	0.0142706
863.450	0.0142609
863.528	0.0142941
863.606	0.0142072
863.684	0.0143002
863.762	0.0143774
863.840	0.0142744
863.918	0.0141334
863.996	0.0143436
864.075	0.0143056
864.153	0.0144276
864.231	0.0143782
864.309	0.0143855
864.387	0.0142765
864.465	0.0142553
864.543	0.0142799
864.621	0.0143130
864.700	0.0142810
864.778	0.0142471
864.856	0.0142878
864.934	0.0143172
865.012	0.0142730
865.090	0.0142401
865.168	0.0142471
865.246	0.0141196
865.325	0.0142157
865.403	0.0143120
865.481	0.0141135
865.559	0.0142898
865.637	0.0142438
865.715	0.0143163
865.793	0.0140845
865.871	0.0141283
865.950	0.0142968
866.028	0.0143594
866.106	0.0143381
866.184	0.0143823
866.262	0.0143784
866.340	0.0142146
866.418	0.0141892
866.496	0.0141933
866.575	0.0142091
866.653	0.0142120
866.731	0.0143138
866.809	0.0141394
866.887	0.0142618
866.965	0.0142321
867.043	0.0143045
867.121	0.0141711
867.200	0.0141905
867.278	0.0142644
867.356	0.0142935
867.434	0.0144942
867.512	0.0142472
867.590	0.0141688
867.668	0.0143358
867.746	0.0143155
867.825	0.0142847
867.903	0.0142918
867.981	0.0142706
868.059	0.0142435
868.137	0.0142393
868.215	0.0141999
868.293	0.0143822
868.371	0.0142487
868.450	0.0141203
868.528	0.0142280
868.606	0.0143724
868.684	0.0143098
868.762	0.0141056
868.840	0.0143304
868.918	0.0142106
868.996	0.0142458
869.075	0.0140254
869.153	0.0141235
869.231	0.0141599
869.309	0.0142301
869.387	0.0141557
869.465	0.0141978
869.543	0.0140780
869.621	0.0141479
869.700	0.0143362
869.778	0.0142004
869.856	0.0141212
869.934	0.0142029
870.012	0.0142036
870.090	0.0140778
870.168	0.0141274
870.246	0.0143673
870.325	0.0142541
870.403	0.0141592
870.481	0.0142380
870.559	0.0142030
870.637	0.0141930
870.715	0.0142546
870.793	0.0143108
870.871	0.0143925
870.950	0.0142592
871.028	0.0143084
871.106	0.0143800
871.184	0.0143708
871.262	0.0143378
871.340	0.0142278
871.418	0.0143128
871.496	0.0143441
871.575	0.0142435
871.653	0.0142922
871.731	0.0144010
871.809	0.0143438
871.887	0.0142509
871.965	0.0142576
872.043	0.0141654
872.121	0.0143245
872.200	0.0142561
872.278	0.0142532
872.356	0.0142083
872.434	0.0142377
872.512	0.0142110
872.590	0.0141751
872.668	0.0142018
872.746	0.0142274
872.825	0.0142859
872.903	0.0143199
872.981	0.0142320
873.059	0.0142098
873.137	0.0143088
873.215	0.0143488
873.293	0.0143993
873.371	0.0142669
873.450	0.0143835
873.528	0.0143788
873.606	0.0143601
873.684	0.0143645
873.762	0.0142796
873.840	0.0143896
873.918	0.0143532
873.996	0.0143183
874.075	0.0143773
874.153	0.0144274
874.231	0.0143740
874.309	0.0143217
874.387	0.0143108
874.465	0.0143811
874.543	0.0143422
874.621	0.0143433
874.700	0.0143958
874.778	0.0141930
874.856	0.0143137
874.934	0.0142961
875.012	0.0141944
875.090	0.0144567
875.168	0.0143195
875.246	0.0141611
875.325	0.0143011
875.403	0.0142625
875.481	0.0142284
875.559	0.0142734
875.637	0.0141898
875.715	0.0142411
875.793	0.0142271
875.871	0.0143105
875.950	0.0142563
876.028	0.0143299
876.106	0.0142774
876.184	0.0141772
876.262	0.0142003
876.340	0.0142938
876.418	0.0141528
876.496	0.0143406
876.575	0.0142113
876.653	0.0142564
876.731	0.0143426
876.809	0.0144373
876.887	0.0142941
876.965	0.0141451
877.043	0.0143141
877.121	0.0142612
877.200	0.0141931
877.278	0.0141541
877.356	0.0142873
877.434	0.0142445
877.512	0.0141264
877.590	0.0142706
877.668	0.0141483
877.746	0.0141848
877.825	0.0142300
877.903	0.0141947
877.981	0.0142953
878.059	0.0142599
878.137	0.0141147
878.215	0.0140983
878.293	0.0143515
878.371	0.0142687
878.450	0.0141984
878.528	0.0141794
878.606	0.0142894
878.684	0.0142944
878.762	0.0142568
878.840	0.0141114
878.918	0.0143896
878.996	0.0143611
879.075	0.0141032
879.153	0.0140952
879.231	0.0143191
879.309	0.0141356
879.387	0.0141724
879.465	0.0141341
879.543	0.0141373
879.621	0.0141531
879.700	0.0141565
879.778	0.0141155
879.856	0.0141619
879.934	0.0140842
880.012	0.0141099
880.090	0.0142187
880.168	0.0143672
880.246	0.0143422
880.325	0.0143607
880.403	0.0143031
880.481	0.0143336
880.559	0.0144602
880.637	0.0142826
880.715	0.0142142
880.793	0.0142241
880.871	0.0142534
880.950	0.0142787
881.028	0.0141495
881.106	0.0142498
881.184	0.0142535
881.262	0.0142911
881.340	0.0141449
881.418	0.0141193
881.496	0.0143352
881.575	0.0142049
881.653	0.0141064
881.731	0.0143297
881.809	0.0142696
881.887	0.0142639
881.965	0.0141132
882.043	0.0142371
882.121	0.0143188
882.200	0.0143558
882.278	0.0143520
882.356	0.0143105
882.434	0.0142871
882.512	0.0142239
882.590	0.0142190
882.668	0.0143771
882.746	0.0143448
882.825	0.0142184
882.903	0.0142857
882.981	0.0143400
883.059	0.0143604
883.137	0.0143014
883.215	0.0141227
883.293	0.0141710
883.371	0.0142515
883.450	0.0141684
883.528	0.0142493
883.606	0.0142178
883.684	0.0141558
883.762	0.0141080
883.840	0.0142468
883.918	0.0142234
883.996	0.0141709
884.075	0.0140965
884.153	0.0141089
884.231	0.0141236
884.309	0.0141420
884.387	0.0141325
884.465	0.0141719
884.543	0.0141624
884.621	0.0140692
884.700	0.0141155
884.778	0.0141245
884.856	0.0141138
884.934	0.0142775
885.012	0.0142274
885.090	0.0141586
885.168	0.0141651
885.246	0.0141333
885.325	0.0141505
885.403	0.0142459
885.481	0.0142139
885.559	0.0139707
885.637	0.0140470
885.715	0.0141128
885.793	0.0142614
885.871	0.0142999
885.950	0.0142239
886.028	0.0142233
886.106	0.0143594
886.184	0.0142047
886.262	0.0141904
886.340	0.0142789
886.418	0.0143098
886.496	0.0143556
886.575	0.0144173
886.653	0.0141721
886.731	0.0142052
886.809	0.0142982
886.887	0.0141956
886.965	0.0140871
887.043	0.0141845
887.121	0.0141509
887.200	0.0139712
887.278	0.0142747
887.356	0.0143315
887.434	0.0143447
887.512	0.0143083
887.590	0.0142373
887.668	0.0143687
887.746	0.0143905
887.825	0.0143694
887.903	0.0142422
887.981	0.0145010
888.059	0.0144218
888.137	0.0144710
888.215	0.0143166
888.293	0.0143341
888.371	0.0142931
888.450	0.0143832
888.528	0.0143256
888.606	0.0141582
888.684	0.0142071
888.762	0.0142590
888.840	0.0142278
888.918	0.0141743
888.996	0.0141650
889.075	0.0141975
889.153	0.0142786
889.231	0.0141377
889.309	0.0142641
889.387	0.0142759
889.465	0.0142907
889.543	0.0143549
889.621	0.0143156
889.700	0.0141653
889.778	0.0144234
889.856	0.0142486
889.934	0.0143355
890.012	0.0144077
890.090	0.0143539
890.168	0.0141228
890.246	0.0142126
890.325	0.0143568
890.403	0.0141627
890.481	0.0142012
890.559	0.0141820
890.637	0.0141420
890.715	0.0141898
890.793	0.0142880
890.871	0.0143285
890.950	0.0143008
891.028	0.0144381
891.106	0.0143976
891.184	0.0144868
891.262	0.0147202
891.340	0.0145251
891.418	0.0144215
891.496	0.0143528
891.575	0.0143787
891.653	0.0144098
891.731	0.0145696
891.809	0.0143228
891.887	0.0142063
891.965	0.0141651
892.043	0.0142173
892.121	0.0142569
892.200	0.0142799
892.278	0.0143057
892.356	0.0142217
892.434	0.0141103
892.512	0.0142031
892.590	0.0143939
892.668	0.0141880
892.746	0.0142514
892.825	0.0142890
892.903	0.0143266
892.981	0.0143240
893.059	0.0142735
893.137	0.0142419
893.215	0.0143425
893.293	0.0141759
893.371	0.0142924
893.450	0.0143089
893.528	0.0143204
893.606	0.0141211
893.684	0.0140913
893.762	0.0143014
893.840	0.0143105
893.918	0.0141690
893.996	0.0142326
894.075	0.0143405
894.153	0.0143163
894.231	0.0143609
894.309	0.0144230
894.387	0.0143971
894.465	0.0143954
894.543	0.0143782
894.621	0.0143008
894.700	0.0143850
894.778	0.0143047
894.856	0.0141224
894.934	0.0140401
895.012	0.0140813
895.090	0.0141266
895.168	0.0140620
895.246	0.0140817
895.325	0.0140076
895.403	0.0140577
895.481	0.0140911
895.559	0.0139965
895.637	0.0142514
895.715	0.0142015
895.793	0.0142168
895.871	0.0143180
895.950	0.0143320
896.028	0.0143314
896.106	0.0142163
896.184	0.0142995
896.262	0.0142416
896.340	0.0144088
896.418	0.0141962
896.496	0.0143378
896.575	0.0142006
896.653	0.0143772
896.731	0.0141694
896.809	0.0142664
896.887	0.0142338
896.965	0.0142172
897.043	0.0141767
897.121	0.0140983
897.200	0.0142580
897.278	0.0141756
897.356	0.0142528
897.434	0.0142054
897.512	0.0142168
897.590	0.0141718
897.668	0.0141881
897.746	0.0144892
897.825	0.0143460
897.903	0.0143633
897.981	0.0143007
898.059	0.0142024
898.137	0.0143739
898.215	0.0144283
898.293	0.0143066
898.371	0.0144030
898.450	0.0142947
898.528	0.0142822
898.606	0.0142670
898.684	0.0141883
898.762	0.0141004
898.840	0.0140823
898.918	0.0140563
898.996	0.0141988
899.075	0.0142428
899.153	0.0142107
899.231	0.0142990
899.309	0.0142850
899.387	0.0143489
899.465	0.0143060
899.543	0.0144397
899.621	0.0143909
899.700	0.0144003
899.778	0.0143742
899.856	0.0143726
899.934	0.0143793
900.012	0.0143656
900.090	0.0143571
900.168	0.0143885
900.246	0.0142989
900.325	0.0142719
900.403	0.0143212
900.481	0.0141819
900.559	0.0142611
900.637	0.0143311
900.715	0.0142135
900.793	0.0142708
900.871	0.0142302
900.950	0.0142911
901.028	0.0143069
901.106	0.0143087
901.184	0.0142467
901.262	0.0141518
901.340	0.0140722
901.418	0.0142252
901.496	0.0142942
901.575	0.0141704
901.653	0.0143053
901.731	0.0143592
901.809	0.0143629
901.887	0.0143425
901.965	0.0142166
902.043	0.0142651
902.121	0.0143195
902.200	0.0143200
902.278	0.0142352
902.356	0.0143864
902.434	0.0142336
902.512	0.0142612
902.590	0.0141936
902.668	0.0141531
902.746	0.0141716
902.825	0.0141708
902.903	0.0141197
902.981	0.0141918
903.059	0.0141775
903.137	0.0141497
903.215	0.0140833
903.293	0.0142084
903.371	0.0142343
903.450	0.0144574
903.528	0.0142315
903.606	0.0142179
903.684	0.0142609
903.762	0.0143298
903.840	0.0144472
903.918	0.0144833
903.996	0.0143673
904.075	0.0143806
904.153	0.0143195
904.231	0.0143255
904.309	0.0145003
904.387	0.0142576
904.465	0.0143141
904.543	0.0142028
904.621	0.0143909
904.700	0.0142712
904.778	0.0141242
904.856	0.0142718
904.934	0.0141943
905.012	0.0143806
905.090	0.0142197
905.168	0.0142764
905.246	0.0142762
905.325	0.0141821
905.403	0.0141572
905.481	0.0143041
905.559	0.0143034
905.637	0.0143890
905.715	0.0144579
905.793	0.0143660
905.871	0.0142381
905.950	0.0143555
906.028	0.0144767
906.106	0.0143453
906.184	0.0143520
906.262	0.0143447
906.340	0.0142678
906.418	0.0141875
906.496	0.0142701
906.575	0.0142654
906.653	0.0141205
906.731	0.0141193
906.809	0.0142957
906.887	0.0142677
906.965	0.0141305
907.043	0.0142419
907.121	0.0140598
907.200	0.0141731
907.278	0.0143506
907.356	0.0141798
907.434	0.0141167
907.512	0.0142202
907.590	0.0142486
907.668	0.0141700
907.746	0.0142300
907.825	0.0142342
907.903	0.0144191
907.981	0.0144898
908.059	0.0143044
908.137	0.0142706
908.215	0.0144166
908.293	0.0143814
908.371	0.0143394
908.450	0.0142633
908.528	0.0142590
908.606	0.0143370
908.684	0.0143739
908.762	0.0141809
908.840	0.0141592
908.918	0.0141729
908.996	0.0141954
909.075	0.0141402
909.153	0.0141643
909.231	0.0141935
909.309	0.0141344
909.387	0.0142133
909.465	0.0141173
909.543	0.0141829
909.621	0.0140903
909.700	0.0141489
909.778	0.0142310
909.856	0.0142210
909.934	0.0141992
910.012	0.0141721
910.090	0.0142646
910.168	0.0142159
910.246	0.0140456
910.325	0.0141876
910.403	0.0142651
910.481	0.0141370
910.559	0.0141904
910.637	0.0142902
910.715	0.0140614
910.793	0.0140862
910.871	0.0141429
910.950	0.0142570
911.028	0.0141867
911.106	0.0140443
911.184	0.0142059
911.262	0.0142326
911.340	0.0141298
911.418	0.0142404
911.496	0.0142029
911.575	0.0141698
911.653	0.0142162
911.731	0.0142477
911.809	0.0141972
911.887	0.0143444
911.965	0.0143901
912.043	0.0143472
912.121	0.0142559
912.200	0.0143594
912.278	0.0143780
912.356	0.0143888
912.434	0.0142825
912.512	0.0143979
912.590	0.0141748
912.668	0.0141788
912.746	0.0143016
912.825	0.0142970
912.903	0.0142336
912.981	0.0142750
913.059	0.0143053
913.137	0.0143683
913.215	0.0143555
913.293	0.0143137
913.371	0.0142256
913.450	0.0142745
913.528	0.0143476
913.606	0.0143941
913.684	0.0143655
913.762	0.0143644
913.840	0.0142496
913.918	0.0144033
913.996	0.0142830
914.075	0.0142987
914.153	0.0142697
914.231	0.0143069
914.309	0.0143381
914.387	0.0144361
914.465	0.0144016
914.543	0.0144126
914.621	0.0144111
914.700	0.0144125
914.778	0.0143229
914.856	0.0145254
914.934	0.0142457
915.012	0.0141552
915.090	0.0143208
915.168	0.0141638
915.246	0.0141660
915.325	0.0142919
915.403	0.0143156
915.481	0.0142478
915.559	0.0140482
915.637	0.0142414
915.715	0.0142123
915.793	0.0141219
915.871	0.0142180
915.950	0.0142913
916.028	0.0143103
916.106	0.0143252
916.184	0.0141673
916.262	0.0141965
916.340	0.0143480
916.418	0.0142831
916.496	0.0143440
916.575	0.0142250
916.653	0.0142865
916.731	0.0141973
916.809	0.0143320
916.887	0.0143261
916.965	0.0143539
917.043	0.0142928
917.121	0.0143852
917.200	0.0144019
917.278	0.0142706
917.356	0.0142815
917.434	0.0143006
917.512	0.0143803
917.590	0.0143768
917.668	0.0141622
917.746	0.0142973
917.825	0.0141672
917.903	0.0142713
917.981	0.0142562
918.059	0.0142132
918.137	0.0141418
918.215	0.0141344
918.293	0.0141808
918.371	0.0142670
918.450	0.0142275
918.528	0.0142256
918.606	0.0143362
918.684	0.0140635
918.762	0.0142435
918.840	0.0142122
918.918	0.0142703
918.996	0.0143850
919.075	0.0143426
919.153	0.0144157
919.231	0.0142978
919.309	0.0143866
919.387	0.0142773
919.465	0.0142208
919.543	0.0142749
919.621	0.0142214
919.700	0.0142410
919.778	0.0141187
919.856	0.0143393
919.934	0.0142541
920.012	0.0142265
920.090	0.0142525
920.168	0.0142597
920.246	0.0144043
920.325	0.0142241
920.403	0.0141851
920.481	0.0143989
920.559	0.0143670
920.637	0.0143786
920.715	0.0142274
920.793	0.0141972
920.871	0.0141812
920.950	0.0143211
921.028	0.0141336
921.106	0.0142300
921.184	0.0144567
921.262	0.0143873
921.340	0.0141971
921.418	0.0144517
921.496	0.0143341
921.575	0.0140940
921.653	0.0141305
921.731	0.0143613
921.809	0.0144182
921.887	0.0142281
921.965	0.0142208
922.043	0.0142949
922.121	0.0142902
922.200	0.0142427
922.278	0.0142557
922.356	0.0143561
922.434	0.0143743
922.512	0.0143505
922.590	0.0143189
922.668	0.0144568
922.746	0.0142912
922.825	0.0142829
922.903	0.0142572
922.981	0.0141683
923.059	0.0142071
923.137	0.0142250
923.215	0.0143238
923.293	0.0142482
923.371	0.0142627
923.450	0.0141442
923.528	0.0143353
923.606	0.0143008
923.684	0.0142416
923.762	0.0142816
923.840	0.0142152
923.918	0.0144295
923.996	0.0143694
924.075	0.0141516
924.153	0.0142833
924.231	0.0143080
924.309	0.0143583
924.387	0.0141782
924.465	0.0144433
924.543	0.0144445
924.621	0.0143703
924.700	0.0143573
924.778	0.0142914
924.856	0.0144135
924.934	0.0143330
925.012	0.0142848
925.090	0.0141793
925.168	0.0143571
925.246	0.0143396
925.325	0.0142911
925.403	0.0141936
925.481	0.0141385
925.559	0.0144229
925.637	0.0143305
925.715	0.0141113
925.793	0.0142730
925.871	0.0143986
925.950	0.0142638
926.028	0.0143465
926.106	0.0143618
926.184	0.0143325
926.262	0.0142970
926.340	0.0142420
926.418	0.0142730
926.496	0.0142683
926.575	0.0143324
926.653	0.0142696
926.731	0.0141805
926.809	0.0142830
926.887	0.0141922
926.965	0.0141917
927.043	0.0141656
927.121	0.0141538
927.200	0.0141734
927.278	0.0141182
927.356	0.0142442
927.434	0.0141618
927.512	0.0141917
927.590	0.0142054
927.668	0.0141788
927.746	0.0142278
927.825	0.0141731
927.903	0.0142583
927.981	0.0143322
928.059	0.0142867
928.137	0.0142545
928.215	0.0143354
928.293	0.0142670
928.371	0.0143082
928.450	0.0142460
928.528	0.0141040
928.606	0.0142427
928.684	0.0141999
928.762	0.0142274
928.840	0.0142680
928.918	0.0142296
928.996	0.0142587
929.075	0.0141666
929.153	0.0142400
929.231	0.0141293
929.309	0.0142161
929.387	0.0142689
929.465	0.0143137
929.543	0.0141575
929.621	0.0142245
929.700	0.0143584
929.778	0.0142120
929.856	0.0141689
929.934	0.0142838
930.012	0.0143214
930.090	0.0142490
930.168	0.0143455
930.246	0.0142648
930.325	0.0141746
930.403	0.0142389
930.481	0.0143922
930.559	0.0142316
930.637	0.0141495
930.715	0.0142116
930.793	0.0143298
930.871	0.0142486
930.950	0.0142581
931.028	0.0142521
931.106	0.0144115
931.184	0.0143069
931.262	0.0142498
931.340	0.0143006
931.418	0.0142999
931.496	0.0141883
931.575	0.0141371
931.653	0.0141289
931.731	0.0140664
931.809	0.0142393
931.887	0.0141330
931.965	0.0141991
932.043	0.0141653
932.121	0.0140112
932.200	0.0140855
932.278	0.0141665
932.356	0.0141885
932.434	0.0141797
932.512	0.0141203
932.590	0.0140924
932.668	0.0139894
932.746	0.0140506
932.825	0.0142350
932.903	0.0142913
932.981	0.0141534
933.059	0.0142309
933.137	0.0142093
933.215	0.0141796
933.293	0.0140768
933.371	0.0141088
933.450	0.0141952
933.528	0.0141729
933.606	0.0141601
933.684	0.0141509
933.762	0.0142234
933.840	0.0142416
933.918	0.0140711
933.996	0.0141452
934.075	0.0142260
934.153	0.0142305
934.231	0.0142658
934.309	0.0142825
934.387	0.0143274
934.465	0.0142897
934.543	0.0143607
934.621	0.0143805
934.700	0.0142301
934.778	0.0142328
934.856	0.0142410
934.934	0.0142752
935.012	0.0143737
935.090	0.0143914
935.168	0.0141941
935.246	0.0144624
935.325	0.0144435
935.403	0.0142936
935.481	0.0144076
935.559	0.0143636
935.637	0.0143741
935.715	0.0144410
935.793	0.0142050
935.871	0.0142188
935.950	0.0143822
936.028	0.0142076
936.106	0.0142441
936.184	0.0142340
936.262	0.0142625
936.340	0.0142189
936.418	0.0142999
936.496	0.0143042
936.575	0.0143288
936.653	0.0140575
936.731	0.0141127
936.809	0.0142582
936.887	0.0142999
936.965	0.0142463
937.043	0.0142435
937.121	0.0143126
937.200	0.0142536
937.278	0.0143174
937.356	0.0143181
937.434	0.0142498
937.512	0.0143159
937.590	0.0144264
937.668	0.0143031
937.746	0.0142693
937.825	0.0143803
937.903	0.0144829
937.981	0.0144098
938.059	0.0143212
938.137	0.0142307
938.215	0.0143487
938.293	0.0143916
938.371	0.0142476
938.450	0.0142628
938.528	0.0142561
938.606	0.0143132
938.684	0.0143752
938.762	0.0143566
938.840	0.0143419
938.918	0.0142513
938.996	0.0143938
939.075	0.0143736
939.153	0.0144966
939.231	0.0143452
939.309	0.0143000
939.387	0.0143566
939.465	0.0142664
939.543	0.0143951
939.621	0.0143971
939.700	0.0143134
939.778	0.0144149
939.856	0.0142725
939.934	0.0142314
940.012	0.0142828
940.090	0.0144380
940.168	0.0142839
940.246	0.0144704
940.325	0.0144057
940.403	0.0143795
940.481	0.0144093
940.559	0.0142918
940.637	0.0143202
940.715	0.0142791
940.793	0.0142629
940.871	0.0141998
940.950	0.0142998
941.028	0.0141878
941.106	0.0142445
941.184	0.0142039
941.262	0.0141414
941.340	0.0142799
941.418	0.0142679
941.496	0.0142651
941.575	0.0142587
941.653	0.0142327
941.731	0.0142856
941.809	0.0141446
941.887	0.0141841
941.965	0.0142841
942.043	0.0142598
942.121	0.0141708
942.200	0.0143193
942.278	0.0142474
942.356	0.0144180
942.434	0.0143323
942.512	0.0141702
942.590	0.0143265
942.668	0.0143194
942.746	0.0142020
942.825	0.0143263
942.903	0.0142221
942.981	0.0144125
943.059	0.0144122
943.137	0.0142955
943.215	0.0142220
943.293	0.0142487
943.371	0.0143117
943.450	0.0143127
943.528	0.0143124
943.606	0.0142323
943.684	0.0143186
943.762	0.0141998
943.840	0.0141759
943.918	0.0142100
943.996	0.0143417
944.075	0.0144253
944.153	0.0143416
944.231	0.0142490
944.309	0.0142599
944.387	0.0142195
944.465	0.0142800
944.543	0.0143331
944.621	0.0143462
944.700	0.0142474
944.778	0.0141954
944.856	0.0142576
944.934	0.0141810
945.012	0.0143916
945.090	0.0143889
945.168	0.0142780
945.246	0.0143330
945.325	0.0143520
945.403	0.0142834
945.481	0.0143015
945.559	0.0143542
945.637	0.0141784
945.715	0.0143530
945.793	0.0142046
945.871	0.0142480
945.950	0.0142345
946.028	0.0143245
946.106	0.0143002
946.184	0.0142579
946.262	0.0142712
946.340	0.0141360
946.418	0.0140418
946.496	0.0143948
946.575	0.0144069
946.653	0.0142661
946.731	0.0140983
946.809	0.0142278
946.887	0.0141443
946.965	0.0144012
947.043	0.0143164
947.121	0.0143741
947.200	0.0143232
947.278	0.0142592
947.356	0.0143533
947.434	0.0142669
947.512	0.0143297
947.590	0.0143461
947.668	0.0144138
947.746	0.0141282
947.825	0.0143221
947.903	0.0142892
947.981	0.0141933
948.059	0.0143082
948.137	0.0142712
948.215	0.0143021
948.293	0.0141873
948.371	0.0142451
948.450	0.0142236
948.528	0.0142632
948.606	0.0142997
948.684	0.0140351
948.762	0.0141042
948.840	0.0142089
948.918	0.0142426
948.996	0.0142281
949.075	0.0142718
949.153	0.0140371
949.231	0.0140611
949.309	0.0143173
949.387	0.0142186
949.465	0.0142371
949.543	0.0140897
949.621	0.0140707
949.700	0.0142863
949.778	0.0143635
949.856	0.0143096
949.934	0.0142446
950.012	0.0142919
950.090	0.0141782
950.168	0.0141240
950.246	0.0141728
950.325	0.0142843
950.403	0.0142710
950.481	0.0142893
950.559	0.0141257
950.637	0.0142025
950.715	0.0142104
950.793	0.0142242
950.871	0.0142002
950.950	0.0140984
951.028	0.0140564
951.106	0.0141737
951.184	0.0143072
951.262	0.0143648
951.340	0.0142281
951.418	0.0141660
951.496	0.0141866
951.575	0.0141939
951.653	0.0143700
951.731	0.0143668
951.809	0.0142683
951.887	0.0142598
951.965	0.0141450
952.043	0.0143136
952.121	0.0143070
952.200	0.0142072
952.278	0.0142585
952.356	0.0142204
952.434	0.0140527
952.512	0.0140660
952.590	0.0142136
952.668	0.0141884
952.746	0.0141791
952.825	0.0142374
952.903	0.0143279
952.981	0.0143137
953.059	0.0142625
953.137	0.0142617
953.215	0.0141748
953.293	0.0142664
953.371	0.0141463
953.450	0.0142359
953.528	0.0142890
953.606	0.0144029
953.684	0.0141607
953.762	0.0141933
953.840	0.0142241
953.918	0.0142556
953.996	0.0142104
954.075	0.0142335
954.153	0.0140877
954.231	0.0140932
954.309	0.0142464
954.387	0.0142565
954.465	0.0142517
954.543	0.0141647
954.621	0.0141864
954.700	0.0141983
954.778	0.0141878
954.856	0.0142890
954.934	0.0140540
955.012	0.0141182
955.090	0.0141307
955.168	0.0141508
955.246	0.0141566
955.325	0.0142050
955.403	0.0141911
955.481	0.0142336
955.559	0.0141919
955.637	0.0142524
955.715	0.0144694
955.793	0.0141759
955.871	0.0141782
955.950	0.0141914
956.028	0.0142500
956.106	0.0142004
956.184	0.0142166
956.262	0.0143586
956.340	0.0143135
956.418	0.0142783
956.496	0.0143271
956.575	0.0141342
956.653	0.0141688
956.731	0.0142162
956.809	0.0142020
956.887	0.0142305
956.965	0.0142321
957.043	0.0142401
957.121	0.0141596
957.200	0.0142178
957.278	0.0142327
957.356	0.0141243
957.434	0.0142542
957.512	0.0143642
957.590	0.0143676
957.668	0.0144034
957.746	0.0141481
957.825	0.0142637
957.903	0.0143351
957.981	0.0142616
958.059	0.0143892
958.137	0.0144279
958.215	0.0143558
958.293	0.0142619
958.371	0.0143773
958.450	0.0143269
958.528	0.0143857
958.606	0.0143375
958.684	0.0143283
958.762	0.0141025
958.840	0.0142306
958.918	0.0143241
958.996	0.0143595
959.075	0.0144199
959.153	0.0142044
959.231	0.0143361
959.309	0.0143078
959.387	0.0142047
959.465	0.0141941
959.543	0.0143241
959.621	0.0141721
959.700	0.0141566
959.778	0.0142982
959.856	0.0142442
959.934	0.0141747
960.012	0.0141977
960.090	0.0142747
960.168	0.0142403
960.246	0.0142242
960.325	0.0142609
960.403	0.0141211
960.481	0.0141591
960.559	0.0141651
960.637	0.0141744
960.715	0.0140983
960.793	0.0142313
960.871	0.0141518
960.950	0.0142699
961.028	0.0141918
961.106	0.0143626
961.184	0.0142628
961.262	0.0142280
961.340	0.0143536
961.418	0.0142285
961.496	0.0143134
961.575	0.0144635
961.653	0.0144351
961.731	0.0142591
961.809	0.0144156
961.887	0.0143362
961.965	0.0143349
962.043	0.0143628
962.121	0.0142448
962.200	0.0140988
962.278	0.0142924
962.356	0.0143066
962.434	0.0143554
962.512	0.0142070
962.590	0.0140975
962.668	0.0142587
962.746	0.0142278
962.825	0.0141111
962.903	0.0141885
962.981	0.0142235
963.059	0.0143285
963.137	0.0142233
963.215	0.0142299
963.293	0.0143194
963.371	0.0142717
963.450	0.0141554
963.528	0.0142637
963.606	0.0142608
963.684	0.0143100
963.762	0.0141763
963.840	0.0143595
963.918	0.0142786
963.996	0.0142883
964.075	0.0142315
964.153	0.0142233
964.231	0.0142928
964.309	0.0142767
964.387	0.0141695
964.465	0.0142319
964.543	0.0141841
964.621	0.0141782
964.700	0.0141515
964.778	0.0140865
964.856	0.0142089
964.934	0.0142821
965.012	0.0142349
965.090	0.0141444
965.168	0.0141190
965.246	0.0140794
965.325	0.0141671
965.403	0.0142154
965.481	0.0142773
965.559	0.0143697
965.637	0.0141602
965.715	0.0141490
965.793	0.0141561
965.871	0.0142268
965.950	0.0142754
966.028	0.0142347
966.106	0.0142842
966.184	0.0143015
966.262	0.0141930
966.340	0.0142365
966.418	0.0142538
966.496	0.0142838
966.575	0.0142859
966.653	0.0142351
966.731	0.0142160
966.809	0.0142213
966.887	0.0143087
966.965	0.0141458
967.043	0.0142826
967.121	0.0143246
967.200	0.0143433
967.278	0.0143704
967.356	0.0142829
967.434	0.0142921
967.512	0.0142361
967.590	0.0142722
967.668	0.0143055
967.746	0.0143233
967.825	0.0142465
967.903	0.0140962
967.981	0.0142644
968.059	0.0142476
968.137	0.0143638
968.215	0.0143884
968.293	0.0142811
968.371	0.0142220
968.450	0.0142998
968.528	0.0142870
968.606	0.0142345
968.684	0.0140572
968.762	0.0142567
968.840	0.0142294
968.918	0.0142818
968.996	0.0142072
969.075	0.0141653
969.153	0.0143887
969.231	0.0143111
969.309	0.0142670
969.387	0.0142890
969.465	0.0142942
969.543	0.0142667
969.621	0.0141927
969.700	0.0143201
969.778	0.0143446
969.856	0.0141700
969.934	0.0140521
970.012	0.0141687
970.090	0.0142466
970.168	0.0142553
970.246	0.0142356
970.325	0.0141989
970.403	0.0142130
970.481	0.0142947
970.559	0.0142214
970.637	0.0142754
970.715	0.0142948
970.793	0.0143144
970.871	0.0141959
970.950	0.0142216
971.028	0.0142771
971.106	0.0143056
971.184	0.0141646
971.262	0.0143033
971.340	0.0142323
971.418	0.0142072
971.496	0.0142477
971.575	0.0142309
971.653	0.0141464
971.731	0.0141748
971.809	0.0141290
971.887	0.0140952
971.965	0.0142220
972.043	0.0142291
972.121	0.0141553
972.200	0.0141673
972.278	0.0141512
972.356	0.0142727
972.434	0.0141934
972.512	0.0140629
972.590	0.0141611
972.668	0.0143616
972.746	0.0142802
972.825	0.0141619
972.903	0.0142935
972.981	0.0141654
973.059	0.0142554
973.137	0.0143366
973.215	0.0141643
973.293	0.0143370
973.371	0.0141515
973.450	0.0142033
973.528	0.0141254
973.606	0.0142630
973.684	0.0144167
973.762	0.0141454
973.840	0.0142326
973.918	0.0143341
973.996	0.0141157
974.075	0.0141064
974.153	0.0143188
974.231	0.0143195
974.309	0.0141348
974.387	0.0142042
974.465	0.0144138
974.543	0.0143835
974.621	0.0144160
974.700	0.0141526
974.778	0.0142786
974.856	0.0142671
974.934	0.0142920
975.012	0.0144254
975.090	0.0143755
975.168	0.0142721
975.246	0.0142899
975.325	0.0142175
975.403	0.0143081
975.481	0.0143864
975.559	0.0143027
975.637	0.0142726
975.715	0.0141818
975.793	0.0141448
975.871	0.0142844
975.950	0.0142224
976.028	0.0142033
976.106	0.0142635
976.184	0.0143050
976.262	0.0143273
976.340	0.0144341
976.418	0.0143815
976.496	0.0144294
976.575	0.0144770
976.653	0.0143288
976.731	0.0143765
976.809	0.0144035
976.887	0.0143190
976.965	0.0143883
977.043	0.0143230
977.121	0.0143344
977.200	0.0143001
977.278	0.0142544
977.356	0.0142912
977.434	0.0143362
977.512	0.0142311
977.590	0.0143644
977.668	0.0143842
977.746	0.0142399
977.825	0.0141026
977.903	0.0141647
977.981	0.0142554
978.059	0.0142340
978.137	0.0142567
978.215	0.0142545
978.293	0.0142175
978.371	0.0143513
978.450	0.0142500
978.528	0.0142878
978.606	0.0142987
978.684	0.0142361
978.762	0.0142370
978.840	0.0143187
978.918	0.0141907
978.996	0.0142239
979.075	0.0141827
979.153	0.0141936
979.231	0.0141764
979.309	0.0141631
979.387	0.0140734
979.465	0.0139821
979.543	0.0140775
979.621	0.0141566
979.700	0.0141364
979.778	0.0142799
979.856	0.0141313
979.934	0.0141167
980.012	0.0143172
980.090	0.0142670
980.168	0.0142242
980.246	0.0141414
980.325	0.0140822
980.403	0.0142550
980.481	0.0141943
980.559	0.0140742
980.637	0.0140533
980.715	0.0141864
980.793	0.0141836
980.871	0.0142007
980.950	0.0141031
981.028	0.0142429
981.106	0.0142079
981.184	0.0140926
981.262	0.0141403
981.340	0.0140759
981.418	0.0140514
981.496	0.0140253
981.575	0.0141656
981.653	0.0141129
981.731	0.0142027
981.809	0.0141622
981.887	0.0141215
981.965	0.0140742
982.043	0.0142156
982.121	0.0142850
982.200	0.0144778
982.278	0.0142651
982.356	0.0142197
982.434	0.0144196
982.512	0.0144705
982.590	0.0144508
982.668	0.0143473
982.746	0.0144385
982.825	0.0144706
982.903	0.0143784
982.981	0.0143042
983.059	0.0142327
983.137	0.0143597
983.215	0.0144215
983.293	0.0144205
983.371	0.0141876
983.450	0.0142075
983.528	0.0142786
983.606	0.0143085
983.684	0.0142681
983.762	0.0142007
983.840	0.0142147
983.918	0.0141742
983.996	0.0143764
984.075	0.0143220
984.153	0.0142181
984.231	0.0142081
984.309	0.0143213
984.387	0.0142277
984.465	0.0142139
984.543	0.0142913
984.621	0.0143311
984.700	0.0143468
984.778	0.0143442
984.856	0.0143126
984.934	0.0144424
985.012	0.0144148
985.090	0.0142878
985.168	0.0143710
985.246	0.0143114
985.325	0.0144576
985.403	0.0143214
985.481	0.0143340
985.559	0.0142828
985.637	0.0143110
985.715	0.0143852
985.793	0.0142966
985.871	0.0142099
985.950	0.0142117
986.028	0.0142179
986.106	0.0143630
986.184	0.0142715
986.262	0.0142049
986.340	0.0141496
986.418	0.0142845
986.496	0.0142535
986.575	0.0143268
986.653	0.0142628
986.731	0.0141167
986.809	0.0141528
986.887	0.0142547
986.965	0.0143102
987.043	0.0143996
987.121	0.0142972
987.200	0.0142348
987.278	0.0142201
987.356	0.0143494
987.434	0.0144771
987.512	0.0141750
987.590	0.0142368
987.668	0.0144716
987.746	0.0142878
987.825	0.0142888
987.903	0.0141801
987.981	0.0142690
988.059	0.0142463
988.137	0.0141758
988.215	0.0142452
988.293	0.0141074
988.371	0.0140336
988.450	0.0142199
988.528	0.0141367
988.606	0.0141957
988.684	0.0143514
988.762	0.0142401
988.840	0.0142188
988.918	0.0142991
988.996	0.0143615
989.075	0.0143447
989.153	0.0143007
989.231	0.0142823
989.309	0.0143102
989.387	0.0142049
989.465	0.0142852
989.543	0.0142404
989.621	0.0141869
989.700	0.0141268
989.778	0.0142783
989.856	0.0141452
989.934	0.0141962
990.012	0.0142139
990.090	0.0142295
990.168	0.0142183
990.246	0.0141090
990.325	0.0141576
990.403	0.0142857
990.481	0.0143256
990.559	0.0142118
990.637	0.0142194
990.715	0.0142477
990.793	0.0142498
990.871	0.0143912
990.950	0.0142209
991.028	0.0143081
991.106	0.0142282
991.184	0.0141875
991.262	0.0142349
991.340	0.0142587
991.418	0.0140710
991.496	0.0142779
991.575	0.0141900
991.653	0.0142583
991.731	0.0142860
991.809	0.0142922
991.887	0.0142155
991.965	0.0142303
992.043	0.0141726
992.121	0.0142403
992.200	0.0141600
992.278	0.0141445
992.356	0.0141101
992.434	0.0142739
992.512	0.0142933
992.590	0.0142847
992.668	0.0142558
992.746	0.0142497
992.825	0.0142625
992.903	0.0142445
992.981	0.0143468
993.059	0.0141643
993.137	0.0142060
993.215	0.0143721
993.293	0.0144608
993.371	0.0143098
993.450	0.0143734
993.528	0.0142358
993.606	0.0144128
993.684	0.0142831
993.762	0.0144215
993.840	0.0143468
993.918	0.0141671
993.996	0.0142831
994.075	0.0142291
994.153	0.0142995
994.231	0.0142523
994.309	0.0142366
994.387	0.0143613
994.465	0.0141973
994.543	0.0142499
994.621	0.0144394
994.700	0.0143079
994.778	0.0141877
994.856	0.0144982
994.934	0.0143461
995.012	0.0142943
995.090	0.0143147
995.168	0.0142609
995.246	0.0143259
995.325	0.0142936
995.403	0.0143815
995.481	0.0143768
995.559	0.0143098
995.637	0.0143655
995.715	0.0142046
995.793	0.0141874
995.871	0.0141885
995.950	0.0140940
996.028	0.0139986
996.106	0.0140015
996.184	0.0141489
996.262	0.0141473
996.340	0.0142083
996.418	0.0142107
996.496	0.0140402
996.575	0.0140452
996.653	0.0140548
996.731	0.0141284
996.809	0.0141366
996.887	0.0142461
996.965	0.0141985
997.043	0.0142623
997.121	0.0142908
997.200	0.0142219
997.278	0.0141697
997.356	0.0140859
997.434	0.0143054
997.512	0.0144112
997.590	0.0142924
997.668	0.0142314
997.746	0.0142834
997.825	0.0144168
997.903	0.0141526
997.981	0.0140862
998.059	0.0141814
998.137	0.0141112
998.215	0.0141490
998.293	0.0141203
998.371	0.0142131
998.450	0.0142283
998.528	0.0142551
998.606	0.0143420
998.684	0.0142574
998.762	0.0142650
998.840	0.0142918
998.918	0.0142500
