05/04/2022	21:22:23	Ver.	4.1	UNKNOWN
Optical Delay	678.996401	Delta X		0.078125	Sweeps	1	Scan Rate	0/0
Coordinates	Axis 1	NaN	Axis 2	NaN	Axis 3	NaN	Axis 4	NaN	Axis 5	NaN	Axis 6	0.000000
TX Power	0.000000	RX Power	0.000000

678.996	0.0146986
679.075	0.0146295
679.153	0.0148359
679.231	0.0147696
679.309	0.0147134
679.387	0.0147533
679.465	0.0147507
679.543	0.0148618
679.621	0.0147308
679.700	0.0148833
679.778	0.0148093
679.856	0.0147410
679.934	0.0148392
680.012	0.0148438
680.090	0.0147929
680.168	0.0149072
680.246	0.0147649
680.325	0.0148364
680.403	0.0148495
680.481	0.0147054
680.559	0.0148177
680.637	0.0146817
680.715	0.0146669
680.793	0.0145956
680.871	0.0147660
680.950	0.0147197
681.028	0.0147049
681.106	0.0145467
681.184	0.0146236
681.262	0.0146034
681.340	0.0147560
681.418	0.0147746
681.496	0.0147202
681.575	0.0146441
681.653	0.0147538
681.731	0.0146654
681.809	0.0146565
681.887	0.0147852
681.965	0.0148763
682.043	0.0149098
682.121	0.0149110
682.200	0.0148302
682.278	0.0148260
682.356	0.0148296
682.434	0.0148065
682.512	0.0146980
682.590	0.0146718
682.668	0.0147850
682.746	0.0148125
682.825	0.0146047
682.903	0.0145724
682.981	0.0146755
683.059	0.0144501
683.137	0.0144987
683.215	0.0147299
683.293	0.0144782
683.371	0.0144849
683.450	0.0145580
683.528	0.0144957
683.606	0.0145339
683.684	0.0146814
683.762	0.0146494
683.840	0.0145927
683.918	0.0146416
683.996	0.0147770
684.075	0.0146338
684.153	0.0147215
684.231	0.0145994
684.309	0.0146053
684.387	0.0147068
684.465	0.0147739
684.543	0.0146680
684.621	0.0148289
684.700	0.0148944
684.778	0.0146821
684.856	0.0148476
684.934	0.0147376
685.012	0.0146939
685.090	0.0146307
685.168	0.0145947
685.246	0.0145583
685.325	0.0145534
685.403	0.0145688
685.481	0.0145629
685.559	0.0146276
685.637	0.0146221
685.715	0.0145536
685.793	0.0145911
685.871	0.0147088
685.950	0.0145537
686.028	0.0146445
686.106	0.0147566
686.184	0.0147981
686.262	0.0147082
686.340	0.0147411
686.418	0.0147703
686.496	0.0148049
686.575	0.0148099
686.653	0.0148226
686.731	0.0147324
686.809	0.0148615
686.887	0.0146283
686.965	0.0145616
687.043	0.0146762
687.121	0.0146413
687.200	0.0146765
687.278	0.0146895
687.356	0.0145578
687.434	0.0146866
687.512	0.0144992
687.590	0.0145638
687.668	0.0145538
687.746	0.0144657
687.825	0.0146953
687.903	0.0146380
687.981	0.0144624
688.059	0.0146777
688.137	0.0147230
688.215	0.0147617
688.293	0.0145746
688.371	0.0145148
688.450	0.0145907
688.528	0.0147296
688.606	0.0147828
688.684	0.0145734
688.762	0.0146042
688.840	0.0145876
688.918	0.0146105
688.996	0.0146281
689.075	0.0145113
689.153	0.0146978
689.231	0.0145915
689.309	0.0146347
689.387	0.0146078
689.465	0.0145648
689.543	0.0146513
689.621	0.0145591
689.700	0.0147778
689.778	0.0145667
689.856	0.0146433
689.934	0.0144992
690.012	0.0145847
690.090	0.0146015
690.168	0.0145538
690.246	0.0144504
690.325	0.0144299
690.403	0.0145058
690.481	0.0144321
690.559	0.0145767
690.637	0.0145424
690.715	0.0144672
690.793	0.0145979
690.871	0.0146905
690.950	0.0147129
691.028	0.0147205
691.106	0.0146514
691.184	0.0145956
691.262	0.0146938
691.340	0.0145051
691.418	0.0145874
691.496	0.0147110
691.575	0.0145954
691.653	0.0146239
691.731	0.0146096
691.809	0.0145409
691.887	0.0146214
691.965	0.0146702
692.043	0.0148055
692.121	0.0147973
692.200	0.0147836
692.278	0.0149095
692.356	0.0148189
692.434	0.0150088
692.512	0.0148549
692.590	0.0147195
692.668	0.0149754
692.746	0.0149193
692.825	0.0147929
692.903	0.0147665
692.981	0.0148295
693.059	0.0145158
693.137	0.0144183
693.215	0.0142917
693.293	0.0143544
693.371	0.0142549
693.450	0.0142753
693.528	0.0142548
693.606	0.0143098
693.684	0.0144192
693.762	0.0146118
693.840	0.0147137
693.918	0.0148863
693.996	0.0148431
694.075	0.0150423
694.153	0.0152447
694.231	0.0151705
694.309	0.0151746
694.387	0.0153625
694.465	0.0152979
694.543	0.0152397
694.621	0.0151109
694.700	0.0150314
694.778	0.0148907
694.856	0.0147662
694.934	0.0145531
695.012	0.0142931
695.090	0.0143109
695.168	0.0142422
695.246	0.0141092
695.325	0.0141529
695.403	0.0141692
695.481	0.0143085
695.559	0.0144215
695.637	0.0146187
695.715	0.0147070
695.793	0.0147180
695.871	0.0148784
695.950	0.0149449
696.028	0.0150462
696.106	0.0151374
696.184	0.0151298
696.262	0.0150648
696.340	0.0150738
696.418	0.0149541
696.496	0.0150212
696.575	0.0148163
696.653	0.0147340
696.731	0.0145084
696.809	0.0143819
696.887	0.0143737
696.965	0.0143249
697.043	0.0142965
697.121	0.0142984
697.200	0.0145749
697.278	0.0146114
697.356	0.0147871
697.434	0.0149620
697.512	0.0150171
697.590	0.0150828
697.668	0.0151815
697.746	0.0152842
697.825	0.0151423
697.903	0.0150200
697.981	0.0148719
698.059	0.0148777
698.137	0.0145940
698.215	0.0144154
698.293	0.0143262
698.371	0.0140869
698.450	0.0139419
698.528	0.0141232
698.606	0.0139724
698.684	0.0141038
698.762	0.0145001
698.840	0.0145200
698.918	0.0148647
698.996	0.0152591
699.075	0.0154311
699.153	0.0153809
699.231	0.0155183
699.309	0.0154691
699.387	0.0156983
699.465	0.0155143
699.543	0.0153831
699.621	0.0150208
699.700	0.0147368
699.778	0.0146181
699.856	0.0142673
699.934	0.0142219
700.012	0.0140266
700.090	0.0138939
700.168	0.0141251
700.246	0.0140986
700.325	0.0143248
700.403	0.0144521
700.481	0.0147511
700.559	0.0150552
700.637	0.0151690
700.715	0.0153513
700.793	0.0154216
700.871	0.0153970
700.950	0.0153424
701.028	0.0153306
701.106	0.0150729
701.184	0.0146558
701.262	0.0144043
701.340	0.0141855
701.418	0.0140421
701.496	0.0139095
701.575	0.0139487
701.653	0.0138598
701.731	0.0141669
701.809	0.0143949
701.887	0.0145739
701.965	0.0147385
702.043	0.0150995
702.121	0.0151512
702.200	0.0152319
702.278	0.0153107
702.356	0.0151653
702.434	0.0151888
702.512	0.0151592
702.590	0.0149888
702.668	0.0147679
702.746	0.0146904
702.825	0.0144669
702.903	0.0144160
702.981	0.0141520
703.059	0.0141687
703.137	0.0141705
703.215	0.0140504
703.293	0.0140540
703.371	0.0140284
703.450	0.0142512
703.528	0.0143800
703.606	0.0145054
703.684	0.0147331
703.762	0.0149220
703.840	0.0150710
703.918	0.0153581
703.996	0.0154151
704.075	0.0154558
704.153	0.0154121
704.231	0.0155202
704.309	0.0155955
704.387	0.0154641
704.465	0.0154225
704.543	0.0153593
704.621	0.0151270
704.700	0.0147729
704.778	0.0146509
704.856	0.0144864
704.934	0.0140978
705.012	0.0139597
705.090	0.0137565
705.168	0.0135018
705.246	0.0132439
705.325	0.0131474
705.403	0.0132444
705.481	0.0134809
705.559	0.0135408
705.637	0.0138743
705.715	0.0143867
705.793	0.0148547
705.871	0.0154027
705.950	0.0159570
706.028	0.0162392
706.106	0.0164182
706.184	0.0163519
706.262	0.0162271
706.340	0.0158829
706.418	0.0157700
706.496	0.0154808
706.575	0.0150857
706.653	0.0146629
706.731	0.0143461
706.809	0.0140327
706.887	0.0139747
706.965	0.0138191
707.043	0.0136639
707.121	0.0135771
707.200	0.0135338
707.278	0.0136608
707.356	0.0137646
707.434	0.0138712
707.512	0.0141462
707.590	0.0143882
707.668	0.0144968
707.746	0.0147485
707.825	0.0149083
707.903	0.0150407
707.981	0.0151807
708.059	0.0151778
708.137	0.0152934
708.215	0.0153833
708.293	0.0153458
708.371	0.0154206
708.450	0.0152034
708.528	0.0151598
708.606	0.0149998
708.684	0.0147954
708.762	0.0147415
708.840	0.0146030
708.918	0.0145624
708.996	0.0142844
709.075	0.0143053
709.153	0.0140804
709.231	0.0141310
709.309	0.0140583
709.387	0.0139987
709.465	0.0141670
709.543	0.0141627
709.621	0.0143021
709.700	0.0145674
709.778	0.0147691
709.856	0.0148730
709.934	0.0149053
710.012	0.0150085
710.090	0.0149133
710.168	0.0149799
710.246	0.0149422
710.325	0.0148490
710.403	0.0146687
710.481	0.0146521
710.559	0.0146217
710.637	0.0145882
710.715	0.0144484
710.793	0.0145454
710.871	0.0147179
710.950	0.0144955
711.028	0.0142014
711.106	0.0144717
711.184	0.0144758
711.262	0.0144783
711.340	0.0145026
711.418	0.0143079
711.496	0.0144202
711.575	0.0144311
711.653	0.0144727
711.731	0.0143508
711.809	0.0142301
711.887	0.0143504
711.965	0.0142751
712.043	0.0143253
712.121	0.0143163
712.200	0.0142931
712.278	0.0142982
712.356	0.0144048
712.434	0.0145374
712.512	0.0146295
712.590	0.0146304
712.668	0.0146201
712.746	0.0146215
712.825	0.0147831
712.903	0.0148373
712.981	0.0147205
713.059	0.0147704
713.137	0.0148286
713.215	0.0147399
713.293	0.0146203
713.371	0.0147110
713.450	0.0146320
713.528	0.0146817
713.606	0.0146507
713.684	0.0146667
713.762	0.0148747
713.840	0.0146384
713.918	0.0146445
713.996	0.0150450
714.075	0.0148553
714.153	0.0148441
714.231	0.0148618
714.309	0.0150182
714.387	0.0148958
714.465	0.0149157
714.543	0.0147208
714.621	0.0146610
714.700	0.0145875
714.778	0.0143550
714.856	0.0142956
714.934	0.0142348
715.012	0.0142833
715.090	0.0142343
715.168	0.0140469
715.246	0.0142075
715.325	0.0142606
715.403	0.0144207
715.481	0.0145275
715.559	0.0148017
715.637	0.0149375
715.715	0.0150152
715.793	0.0151985
715.871	0.0152467
715.950	0.0154293
716.028	0.0154871
716.106	0.0154456
716.184	0.0153908
716.262	0.0154579
716.340	0.0150928
716.418	0.0150777
716.496	0.0150184
716.575	0.0147723
716.653	0.0149541
716.731	0.0146603
716.809	0.0146678
716.887	0.0143694
716.965	0.0143092
717.043	0.0143877
717.121	0.0143219
717.200	0.0142503
717.278	0.0142073
717.356	0.0142413
717.434	0.0141051
717.512	0.0141836
717.590	0.0142306
717.668	0.0143570
717.746	0.0144453
717.825	0.0144292
717.903	0.0147367
717.981	0.0148006
718.059	0.0150777
718.137	0.0152584
718.215	0.0153058
718.293	0.0153136
718.371	0.0154587
718.450	0.0154466
718.528	0.0153875
718.606	0.0152323
718.684	0.0151419
718.762	0.0150049
718.840	0.0147911
718.918	0.0146756
718.996	0.0144144
719.075	0.0143018
719.153	0.0141906
719.231	0.0139328
719.309	0.0138470
719.387	0.0138436
719.465	0.0138785
719.543	0.0138593
719.621	0.0139797
719.700	0.0141464
719.778	0.0143642
719.856	0.0144118
719.934	0.0146439
720.012	0.0149320
720.090	0.0149206
720.168	0.0151424
720.246	0.0151689
720.325	0.0150867
720.403	0.0151925
720.481	0.0151940
720.559	0.0150939
720.637	0.0151777
720.715	0.0150385
720.793	0.0150055
720.871	0.0148672
720.950	0.0147947
721.028	0.0147623
721.106	0.0146407
721.184	0.0147124
721.262	0.0146951
721.340	0.0147181
721.418	0.0145347
721.496	0.0144272
721.575	0.0144424
721.653	0.0142556
721.731	0.0142213
721.809	0.0141858
721.887	0.0141014
721.965	0.0139112
722.043	0.0141615
722.121	0.0142321
722.200	0.0141389
722.278	0.0143614
722.356	0.0144739
722.434	0.0145496
722.512	0.0149058
722.590	0.0151131
722.668	0.0153070
722.746	0.0154199
722.825	0.0154883
722.903	0.0155753
722.981	0.0156419
723.059	0.0155163
723.137	0.0154375
723.215	0.0153861
723.293	0.0151461
723.371	0.0149967
723.450	0.0148702
723.528	0.0145509
723.606	0.0144972
723.684	0.0143620
723.762	0.0141635
723.840	0.0142397
723.918	0.0140923
723.996	0.0139075
724.075	0.0142259
724.153	0.0140195
724.231	0.0141919
724.309	0.0141876
724.387	0.0141982
724.465	0.0145125
724.543	0.0146684
724.621	0.0146742
724.700	0.0147809
724.778	0.0149167
724.856	0.0149538
724.934	0.0150574
725.012	0.0150927
725.090	0.0152981
725.168	0.0151724
725.246	0.0151351
725.325	0.0152306
725.403	0.0151894
725.481	0.0148833
725.559	0.0148199
725.637	0.0148180
725.715	0.0146745
725.793	0.0144052
725.871	0.0144262
725.950	0.0143826
726.028	0.0142513
726.106	0.0141378
726.184	0.0141415
726.262	0.0142281
726.340	0.0142128
726.418	0.0141924
726.496	0.0144559
726.575	0.0144095
726.653	0.0146093
726.731	0.0148111
726.809	0.0148217
726.887	0.0148370
726.965	0.0149975
727.043	0.0150421
727.121	0.0149496
727.200	0.0150120
727.278	0.0149452
727.356	0.0150719
727.434	0.0150117
727.512	0.0148758
727.590	0.0147547
727.668	0.0147591
727.746	0.0147085
727.825	0.0146909
727.903	0.0145836
727.981	0.0145222
728.059	0.0146615
728.137	0.0145544
728.215	0.0143999
728.293	0.0145970
728.371	0.0144414
728.450	0.0145085
728.528	0.0144989
728.606	0.0145168
728.684	0.0143707
728.762	0.0144036
728.840	0.0146008
728.918	0.0146851
728.996	0.0146403
729.075	0.0144972
729.153	0.0146937
729.231	0.0145683
729.309	0.0147397
729.387	0.0147335
729.465	0.0147616
729.543	0.0148151
729.621	0.0148343
729.700	0.0148170
729.778	0.0148202
729.856	0.0148664
729.934	0.0148811
730.012	0.0149670
730.090	0.0150801
730.168	0.0149791
730.246	0.0149937
730.325	0.0150539
730.403	0.0149775
730.481	0.0148328
730.559	0.0149483
730.637	0.0148814
730.715	0.0146825
730.793	0.0147386
730.871	0.0145685
730.950	0.0145104
731.028	0.0145264
731.106	0.0143449
731.184	0.0142781
731.262	0.0142686
731.340	0.0141599
731.418	0.0140589
731.496	0.0143488
731.575	0.0143460
731.653	0.0143613
731.731	0.0143825
731.809	0.0144825
731.887	0.0145631
731.965	0.0146806
732.043	0.0146262
732.121	0.0146338
732.200	0.0148033
732.278	0.0147496
732.356	0.0148236
732.434	0.0148015
732.512	0.0149316
732.590	0.0149072
732.668	0.0147121
732.746	0.0147775
732.825	0.0148249
732.903	0.0146330
732.981	0.0147099
733.059	0.0147778
733.137	0.0145144
733.215	0.0145229
733.293	0.0145187
733.371	0.0144096
733.450	0.0143288
733.528	0.0143147
733.606	0.0144550
733.684	0.0143249
733.762	0.0143754
733.840	0.0142760
733.918	0.0142666
733.996	0.0144207
734.075	0.0144544
734.153	0.0145396
734.231	0.0145293
734.309	0.0147878
734.387	0.0149512
734.465	0.0149818
734.543	0.0149443
734.621	0.0150189
734.700	0.0151369
734.778	0.0152229
734.856	0.0151311
734.934	0.0150326
735.012	0.0150858
735.090	0.0150753
735.168	0.0148566
735.246	0.0148653
735.325	0.0147618
735.403	0.0145817
735.481	0.0146047
735.559	0.0146264
735.637	0.0143742
735.715	0.0144912
735.793	0.0145020
735.871	0.0145228
735.950	0.0143928
736.028	0.0145721
736.106	0.0144588
736.184	0.0145703
736.262	0.0146453
736.340	0.0147547
736.418	0.0147711
736.496	0.0147559
736.575	0.0146912
736.653	0.0149234
736.731	0.0149696
736.809	0.0149991
736.887	0.0150848
736.965	0.0150140
737.043	0.0151999
737.121	0.0151030
737.200	0.0149886
737.278	0.0151340
737.356	0.0151704
737.434	0.0151095
737.512	0.0149896
737.590	0.0150506
737.668	0.0149244
737.746	0.0147415
737.825	0.0147927
737.903	0.0147029
737.981	0.0144746
738.059	0.0145715
738.137	0.0145546
738.215	0.0144255
738.293	0.0143946
738.371	0.0144247
738.450	0.0143997
738.528	0.0144553
738.606	0.0143894
738.684	0.0142757
738.762	0.0144714
738.840	0.0145035
738.918	0.0145922
738.996	0.0146500
739.075	0.0146658
739.153	0.0147633
739.231	0.0146497
739.309	0.0147719
739.387	0.0147996
739.465	0.0148446
739.543	0.0148057
739.621	0.0149742
739.700	0.0150253
739.778	0.0149464
739.856	0.0149281
739.934	0.0149250
740.012	0.0148302
740.090	0.0148598
740.168	0.0149861
740.246	0.0147065
740.325	0.0148863
740.403	0.0147304
740.481	0.0146805
740.559	0.0147340
740.637	0.0146758
740.715	0.0145894
740.793	0.0145075
740.871	0.0144279
740.950	0.0144073
741.028	0.0145175
741.106	0.0145811
741.184	0.0145142
741.262	0.0144134
741.340	0.0145504
741.418	0.0145119
741.496	0.0144484
741.575	0.0146236
741.653	0.0146294
741.731	0.0146472
741.809	0.0146503
741.887	0.0147373
741.965	0.0145557
742.043	0.0145884
742.121	0.0146824
742.200	0.0146693
742.278	0.0146770
742.356	0.0147326
742.434	0.0148719
742.512	0.0147270
742.590	0.0145901
742.668	0.0146671
742.746	0.0146731
742.825	0.0146264
742.903	0.0144668
742.981	0.0145183
743.059	0.0145509
743.137	0.0144295
743.215	0.0144291
743.293	0.0144482
743.371	0.0143008
743.450	0.0144357
743.528	0.0143910
743.606	0.0144310
743.684	0.0147174
743.762	0.0146961
743.840	0.0146964
743.918	0.0148126
743.996	0.0148836
744.075	0.0149087
744.153	0.0151404
744.231	0.0150887
744.309	0.0149502
744.387	0.0150862
744.465	0.0150690
744.543	0.0151420
744.621	0.0149515
744.700	0.0149128
744.778	0.0148946
744.856	0.0149490
744.934	0.0150422
745.012	0.0148579
745.090	0.0146267
745.168	0.0146429
745.246	0.0146697
745.325	0.0145586
745.403	0.0144823
745.481	0.0145461
745.559	0.0144968
745.637	0.0145522
745.715	0.0144091
745.793	0.0144445
745.871	0.0145196
745.950	0.0144514
746.028	0.0146007
746.106	0.0146169
746.184	0.0144759
746.262	0.0146171
746.340	0.0146829
746.418	0.0147412
746.496	0.0147868
746.575	0.0149797
746.653	0.0148096
746.731	0.0149841
746.809	0.0151344
746.887	0.0149810
746.965	0.0148845
747.043	0.0148551
747.121	0.0150025
747.200	0.0148198
747.278	0.0146533
747.356	0.0146128
747.434	0.0146581
747.512	0.0145341
747.590	0.0145306
747.668	0.0144408
747.746	0.0144135
747.825	0.0144575
747.903	0.0145965
747.981	0.0144470
748.059	0.0146692
748.137	0.0145661
748.215	0.0145392
748.293	0.0146425
748.371	0.0146486
748.450	0.0146764
748.528	0.0148501
748.606	0.0148256
748.684	0.0146437
748.762	0.0148557
748.840	0.0147636
748.918	0.0148306
748.996	0.0147234
749.075	0.0147782
749.153	0.0149274
749.231	0.0147802
749.309	0.0147958
749.387	0.0148138
749.465	0.0145242
749.543	0.0145567
749.621	0.0146051
749.700	0.0146193
749.778	0.0146458
749.856	0.0146531
749.934	0.0145823
750.012	0.0146316
750.090	0.0146333
750.168	0.0145819
750.246	0.0144916
750.325	0.0144644
750.403	0.0146361
750.481	0.0143792
750.559	0.0145090
750.637	0.0148057
750.715	0.0146182
750.793	0.0146105
750.871	0.0146425
750.950	0.0145884
751.028	0.0145734
751.106	0.0146867
751.184	0.0147775
751.262	0.0147816
751.340	0.0147263
751.418	0.0146712
751.496	0.0147453
751.575	0.0147337
751.653	0.0146812
751.731	0.0149123
751.809	0.0147584
751.887	0.0147849
751.965	0.0148305
752.043	0.0148111
752.121	0.0147271
752.200	0.0146708
752.278	0.0145756
752.356	0.0146165
752.434	0.0146148
752.512	0.0146997
752.590	0.0147134
752.668	0.0146861
752.746	0.0146056
752.825	0.0147574
752.903	0.0146494
752.981	0.0146408
753.059	0.0145426
753.137	0.0146836
753.215	0.0146856
753.293	0.0146403
753.371	0.0145966
753.450	0.0145786
753.528	0.0145966
753.606	0.0145784
753.684	0.0146652
753.762	0.0146465
753.840	0.0144558
753.918	0.0144527
753.996	0.0146234
754.075	0.0145927
754.153	0.0146208
754.231	0.0146165
754.309	0.0145190
754.387	0.0146365
754.465	0.0146346
754.543	0.0146040
754.621	0.0145803
754.700	0.0145037
754.778	0.0147122
754.856	0.0145739
754.934	0.0145744
755.012	0.0146167
755.090	0.0146519
755.168	0.0146194
755.246	0.0145628
755.325	0.0147055
755.403	0.0144883
755.481	0.0146291
755.559	0.0146985
755.637	0.0146693
755.715	0.0146442
755.793	0.0145612
755.871	0.0146194
755.950	0.0145697
756.028	0.0146109
756.106	0.0146774
756.184	0.0147680
756.262	0.0147948
756.340	0.0147001
756.418	0.0146255
756.496	0.0146688
756.575	0.0146284
756.653	0.0147871
756.731	0.0147346
756.809	0.0148213
756.887	0.0148148
756.965	0.0148895
757.043	0.0148350
757.121	0.0147591
757.200	0.0150056
757.278	0.0149152
757.356	0.0147904
757.434	0.0148009
757.512	0.0147687
757.590	0.0148615
757.668	0.0146593
757.746	0.0147389
757.825	0.0147077
757.903	0.0146735
757.981	0.0148123
758.059	0.0146425
758.137	0.0146975
758.215	0.0147551
758.293	0.0146528
758.371	0.0147266
758.450	0.0146871
758.528	0.0146301
758.606	0.0147533
758.684	0.0147004
758.762	0.0146286
758.840	0.0146541
758.918	0.0148347
758.996	0.0148059
759.075	0.0147311
759.153	0.0146861
759.231	0.0147741
759.309	0.0147529
759.387	0.0146841
759.465	0.0147996
759.543	0.0147433
759.621	0.0147140
759.700	0.0148199
759.778	0.0147303
759.856	0.0146745
759.934	0.0145901
760.012	0.0145744
760.090	0.0147546
760.168	0.0148132
760.246	0.0147225
760.325	0.0146268
760.403	0.0147318
760.481	0.0147498
760.559	0.0146949
760.637	0.0145834
760.715	0.0147028
760.793	0.0148836
760.871	0.0149308
760.950	0.0148523
761.028	0.0147084
761.106	0.0149854
761.184	0.0148141
761.262	0.0148119
761.340	0.0146879
761.418	0.0147823
761.496	0.0148419
761.575	0.0148566
761.653	0.0147886
761.731	0.0147334
761.809	0.0147397
761.887	0.0147070
761.965	0.0147220
762.043	0.0147397
762.121	0.0146107
762.200	0.0146470
762.278	0.0146398
762.356	0.0146280
762.434	0.0145855
762.512	0.0147948
762.590	0.0146241
762.668	0.0146552
762.746	0.0147162
762.825	0.0146028
762.903	0.0145882
762.981	0.0146980
763.059	0.0147012
763.137	0.0145572
763.215	0.0146478
763.293	0.0145493
763.371	0.0146205
763.450	0.0146201
763.528	0.0147186
763.606	0.0145947
763.684	0.0145726
763.762	0.0146252
763.840	0.0146330
763.918	0.0146896
763.996	0.0146093
764.075	0.0145679
764.153	0.0146532
764.231	0.0148759
764.309	0.0147189
764.387	0.0146818
764.465	0.0145734
764.543	0.0146670
764.621	0.0146152
764.700	0.0145576
764.778	0.0148103
764.856	0.0148451
764.934	0.0147059
765.012	0.0147594
765.090	0.0147842
765.168	0.0147755
765.246	0.0148676
765.325	0.0149084
765.403	0.0147481
765.481	0.0147377
765.559	0.0147897
765.637	0.0148271
765.715	0.0146264
765.793	0.0147186
765.871	0.0147300
765.950	0.0147588
766.028	0.0146433
766.106	0.0145759
766.184	0.0146634
766.262	0.0146964
766.340	0.0147090
766.418	0.0145425
766.496	0.0146107
766.575	0.0145943
766.653	0.0146206
766.731	0.0145879
766.809	0.0145694
766.887	0.0145838
766.965	0.0143968
767.043	0.0144524
767.121	0.0144798
767.200	0.0144218
767.278	0.0144981
767.356	0.0145538
767.434	0.0145197
767.512	0.0142693
767.590	0.0144698
767.668	0.0144713
767.746	0.0145496
767.825	0.0144715
767.903	0.0144547
767.981	0.0144874
768.059	0.0144688
768.137	0.0143997
768.215	0.0145168
768.293	0.0145361
768.371	0.0145461
768.450	0.0144653
768.528	0.0145954
768.606	0.0146825
768.684	0.0145261
768.762	0.0144546
768.840	0.0145877
768.918	0.0146056
768.996	0.0144967
769.075	0.0145509
769.153	0.0147549
769.231	0.0147198
769.309	0.0147834
769.387	0.0148076
769.465	0.0146906
769.543	0.0146611
769.621	0.0148492
769.700	0.0147200
769.778	0.0148571
769.856	0.0148276
769.934	0.0147340
770.012	0.0147379
770.090	0.0147360
770.168	0.0146463
770.246	0.0147516
770.325	0.0146644
770.403	0.0146542
770.481	0.0145282
770.559	0.0145927
770.637	0.0145763
770.715	0.0146460
770.793	0.0145761
770.871	0.0147291
770.950	0.0147842
771.028	0.0144804
771.106	0.0146797
771.184	0.0147778
771.262	0.0146672
771.340	0.0146732
771.418	0.0146239
771.496	0.0144931
771.575	0.0147813
771.653	0.0145056
771.731	0.0147046
771.809	0.0146085
771.887	0.0145690
771.965	0.0146104
772.043	0.0146963
772.121	0.0147238
772.200	0.0148472
772.278	0.0147971
772.356	0.0146675
772.434	0.0147936
772.512	0.0148293
772.590	0.0148117
772.668	0.0146404
772.746	0.0146149
772.825	0.0147846
772.903	0.0148743
772.981	0.0148306
773.059	0.0148799
773.137	0.0147580
773.215	0.0148157
773.293	0.0150005
773.371	0.0147039
773.450	0.0147586
773.528	0.0146701
773.606	0.0147848
773.684	0.0146130
773.762	0.0147158
773.840	0.0147600
773.918	0.0147074
773.996	0.0145995
774.075	0.0147307
774.153	0.0147208
774.231	0.0145860
774.309	0.0147598
774.387	0.0146986
774.465	0.0146546
774.543	0.0145793
774.621	0.0145969
774.700	0.0147531
774.778	0.0146597
774.856	0.0146604
774.934	0.0146035
775.012	0.0147233
775.090	0.0147207
775.168	0.0147498
775.246	0.0147225
775.325	0.0147222
775.403	0.0145370
775.481	0.0146189
775.559	0.0146331
775.637	0.0146614
775.715	0.0145921
775.793	0.0145845
775.871	0.0144467
775.950	0.0144725
776.028	0.0144822
776.106	0.0144909
776.184	0.0145170
776.262	0.0144508
776.340	0.0144768
776.418	0.0144593
776.496	0.0145677
776.575	0.0145937
776.653	0.0146486
776.731	0.0146836
776.809	0.0147927
776.887	0.0147793
776.965	0.0147857
777.043	0.0147792
777.121	0.0148056
777.200	0.0147434
777.278	0.0148306
777.356	0.0149048
777.434	0.0147046
777.512	0.0148416
777.590	0.0148045
777.668	0.0146603
777.746	0.0147617
777.825	0.0147899
777.903	0.0147998
777.981	0.0147392
778.059	0.0148357
778.137	0.0146185
778.215	0.0146450
778.293	0.0148816
778.371	0.0146885
778.450	0.0147678
778.528	0.0147884
778.606	0.0147456
778.684	0.0147637
778.762	0.0147425
778.840	0.0147304
778.918	0.0147652
778.996	0.0147552
779.075	0.0145438
779.153	0.0148180
779.231	0.0148595
779.309	0.0147937
779.387	0.0146009
779.465	0.0148080
779.543	0.0148039
779.621	0.0147719
779.700	0.0147715
779.778	0.0147961
779.856	0.0147941
779.934	0.0146323
780.012	0.0147495
780.090	0.0148353
780.168	0.0149171
780.246	0.0146510
780.325	0.0146931
780.403	0.0147977
780.481	0.0148503
780.559	0.0148540
780.637	0.0148330
780.715	0.0147768
780.793	0.0148131
780.871	0.0147405
780.950	0.0148074
781.028	0.0147446
781.106	0.0147830
781.184	0.0147456
781.262	0.0149113
781.340	0.0147609
781.418	0.0147222
781.496	0.0147744
781.575	0.0148034
781.653	0.0146970
781.731	0.0148418
781.809	0.0147245
781.887	0.0147329
781.965	0.0146838
782.043	0.0148122
782.121	0.0148767
782.200	0.0147785
782.278	0.0146479
782.356	0.0148644
782.434	0.0148018
782.512	0.0147673
782.590	0.0147324
782.668	0.0148019
782.746	0.0146275
782.825	0.0146344
782.903	0.0145985
782.981	0.0145079
783.059	0.0146593
783.137	0.0145853
783.215	0.0146181
783.293	0.0145644
783.371	0.0144036
783.450	0.0144289
783.528	0.0145619
783.606	0.0145251
783.684	0.0147327
783.762	0.0144283
783.840	0.0145515
783.918	0.0146008
783.996	0.0146181
784.075	0.0146504
784.153	0.0145302
784.231	0.0145616
784.309	0.0144638
784.387	0.0146314
784.465	0.0146973
784.543	0.0145856
784.621	0.0146500
784.700	0.0146391
784.778	0.0146323
784.856	0.0146895
784.934	0.0146806
785.012	0.0146869
785.090	0.0146420
785.168	0.0145573
785.246	0.0146973
785.325	0.0145664
785.403	0.0146294
785.481	0.0146889
785.559	0.0146145
785.637	0.0146023
785.715	0.0146425
785.793	0.0147266
785.871	0.0145876
785.950	0.0146088
786.028	0.0148457
786.106	0.0147854
786.184	0.0146094
786.262	0.0147681
786.340	0.0145294
786.418	0.0145741
786.496	0.0146435
786.575	0.0145486
786.653	0.0145039
786.731	0.0146737
786.809	0.0146514
786.887	0.0146687
786.965	0.0147070
787.043	0.0145504
787.121	0.0146815
787.200	0.0146500
787.278	0.0145835
787.356	0.0148109
787.434	0.0146249
787.512	0.0147427
787.590	0.0147938
787.668	0.0147758
787.746	0.0146655
787.825	0.0145236
787.903	0.0147034
787.981	0.0147627
788.059	0.0146549
788.137	0.0145439
788.215	0.0146645
788.293	0.0146542
788.371	0.0145824
788.450	0.0146667
788.528	0.0146528
788.606	0.0146911
788.684	0.0146898
788.762	0.0146620
788.840	0.0145885
788.918	0.0147428
788.996	0.0146794
789.075	0.0146559
789.153	0.0145595
789.231	0.0147236
789.309	0.0147773
789.387	0.0145843
789.465	0.0146322
789.543	0.0147127
789.621	0.0146440
789.700	0.0146436
789.778	0.0146264
789.856	0.0146723
789.934	0.0146582
790.012	0.0146575
790.090	0.0146055
790.168	0.0147050
790.246	0.0145753
790.325	0.0146504
790.403	0.0145358
790.481	0.0144918
790.559	0.0147215
790.637	0.0146277
790.715	0.0145620
790.793	0.0145908
790.871	0.0145982
790.950	0.0146307
791.028	0.0144982
791.106	0.0145744
791.184	0.0144717
791.262	0.0144700
791.340	0.0144131
791.418	0.0145748
791.496	0.0146347
791.575	0.0146918
791.653	0.0146422
791.731	0.0147000
791.809	0.0145518
791.887	0.0145219
791.965	0.0146951
792.043	0.0147316
792.121	0.0145367
792.200	0.0147176
792.278	0.0146661
792.356	0.0146399
792.434	0.0147604
792.512	0.0146642
792.590	0.0145764
792.668	0.0147474
792.746	0.0146240
792.825	0.0147089
792.903	0.0148359
792.981	0.0148067
793.059	0.0147829
793.137	0.0147305
793.215	0.0148235
793.293	0.0147100
793.371	0.0146859
793.450	0.0147104
793.528	0.0146244
793.606	0.0147068
793.684	0.0148125
793.762	0.0147062
793.840	0.0147292
793.918	0.0148060
793.996	0.0146751
794.075	0.0147256
794.153	0.0146860
794.231	0.0146107
794.309	0.0145055
794.387	0.0144523
794.465	0.0146059
794.543	0.0146162
794.621	0.0145952
794.700	0.0146549
794.778	0.0147061
794.856	0.0146726
794.934	0.0146907
795.012	0.0146780
795.090	0.0146774
795.168	0.0147577
795.246	0.0146813
795.325	0.0148154
795.403	0.0147948
795.481	0.0147643
795.559	0.0146922
795.637	0.0148331
795.715	0.0147993
795.793	0.0147102
795.871	0.0147991
795.950	0.0146578
796.028	0.0146560
796.106	0.0146224
796.184	0.0146680
796.262	0.0147851
796.340	0.0147764
796.418	0.0147545
796.496	0.0147315
796.575	0.0146465
796.653	0.0146873
796.731	0.0147303
796.809	0.0147572
796.887	0.0146909
796.965	0.0147972
797.043	0.0147066
797.121	0.0147192
797.200	0.0147794
797.278	0.0147334
797.356	0.0146582
797.434	0.0146798
797.512	0.0147425
797.590	0.0147703
797.668	0.0146302
797.746	0.0147054
797.825	0.0146646
797.903	0.0146342
797.981	0.0146478
798.059	0.0145434
798.137	0.0147114
798.215	0.0147663
798.293	0.0144734
798.371	0.0146940
798.450	0.0147492
798.528	0.0145242
798.606	0.0146753
798.684	0.0146360
798.762	0.0146175
798.840	0.0144465
798.918	0.0145886
798.996	0.0145201
799.075	0.0147308
799.153	0.0147172
799.231	0.0146656
799.309	0.0146253
799.387	0.0146510
799.465	0.0147392
799.543	0.0148014
799.621	0.0147435
799.700	0.0146478
799.778	0.0147357
799.856	0.0147230
799.934	0.0147253
800.012	0.0147491
800.090	0.0146214
800.168	0.0146523
800.246	0.0146715
800.325	0.0146200
800.403	0.0145405
800.481	0.0146112
800.559	0.0147729
800.637	0.0147535
800.715	0.0147112
800.793	0.0146669
800.871	0.0146790
800.950	0.0147838
801.028	0.0147108
801.106	0.0147122
801.184	0.0149056
801.262	0.0147996
801.340	0.0147137
801.418	0.0146962
801.496	0.0145525
801.575	0.0148026
801.653	0.0146472
801.731	0.0147112
801.809	0.0147266
801.887	0.0148947
801.965	0.0146221
802.043	0.0145985
802.121	0.0146785
802.200	0.0146867
802.278	0.0147182
802.356	0.0147981
802.434	0.0146732
802.512	0.0146210
802.590	0.0147117
802.668	0.0145486
802.746	0.0146059
802.825	0.0147504
802.903	0.0144474
802.981	0.0145956
803.059	0.0147119
803.137	0.0147595
803.215	0.0146104
803.293	0.0146937
803.371	0.0145421
803.450	0.0144872
803.528	0.0146389
803.606	0.0146558
803.684	0.0146765
803.762	0.0146370
803.840	0.0147710
803.918	0.0146656
803.996	0.0146773
804.075	0.0146394
804.153	0.0147058
804.231	0.0147863
804.309	0.0145718
804.387	0.0146503
804.465	0.0147191
804.543	0.0146764
804.621	0.0146590
804.700	0.0146928
804.778	0.0148229
804.856	0.0146927
804.934	0.0146758
805.012	0.0146819
805.090	0.0147535
805.168	0.0147622
805.246	0.0146626
805.325	0.0147829
805.403	0.0147219
805.481	0.0147565
805.559	0.0147585
805.637	0.0147958
805.715	0.0147139
805.793	0.0146973
805.871	0.0147482
805.950	0.0147699
806.028	0.0146313
806.106	0.0146381
806.184	0.0146581
806.262	0.0147424
806.340	0.0146817
806.418	0.0145380
806.496	0.0146865
806.575	0.0148123
806.653	0.0146584
806.731	0.0145850
806.809	0.0147682
806.887	0.0146419
806.965	0.0146329
807.043	0.0145841
807.121	0.0147940
807.200	0.0145908
807.278	0.0145293
807.356	0.0144730
807.434	0.0146129
807.512	0.0146176
807.590	0.0145859
807.668	0.0145550
807.746	0.0145287
807.825	0.0145747
807.903	0.0144602
807.981	0.0145677
808.059	0.0146061
808.137	0.0144802
808.215	0.0144874
808.293	0.0145374
808.371	0.0145882
808.450	0.0146767
808.528	0.0146936
808.606	0.0145421
808.684	0.0145716
808.762	0.0146655
808.840	0.0146385
808.918	0.0145947
808.996	0.0145657
809.075	0.0146924
809.153	0.0146864
809.231	0.0146526
809.309	0.0146547
809.387	0.0147246
809.465	0.0146030
809.543	0.0146957
809.621	0.0145956
809.700	0.0146346
809.778	0.0144509
809.856	0.0146452
809.934	0.0146181
810.012	0.0147025
810.090	0.0145437
810.168	0.0146091
810.246	0.0146458
810.325	0.0145900
810.403	0.0145887
810.481	0.0145336
810.559	0.0146053
810.637	0.0144044
810.715	0.0145660
810.793	0.0146677
810.871	0.0146778
810.950	0.0146956
811.028	0.0146051
811.106	0.0145205
811.184	0.0145321
811.262	0.0147495
811.340	0.0147928
811.418	0.0145663
811.496	0.0147050
811.575	0.0147085
811.653	0.0146500
811.731	0.0147060
811.809	0.0148170
811.887	0.0147684
811.965	0.0146582
812.043	0.0147601
812.121	0.0147720
812.200	0.0146424
812.278	0.0146210
812.356	0.0146383
812.434	0.0147179
812.512	0.0145872
812.590	0.0145513
812.668	0.0146927
812.746	0.0146464
812.825	0.0145334
812.903	0.0144783
812.981	0.0147009
813.059	0.0145074
813.137	0.0145675
813.215	0.0145328
813.293	0.0146229
813.371	0.0147040
813.450	0.0145613
813.528	0.0146140
813.606	0.0147375
813.684	0.0146391
813.762	0.0146444
813.840	0.0147102
813.918	0.0148411
813.996	0.0147571
814.075	0.0147973
814.153	0.0147385
814.231	0.0148468
814.309	0.0146889
814.387	0.0147173
814.465	0.0147952
814.543	0.0147642
814.621	0.0147625
814.700	0.0147038
814.778	0.0146416
814.856	0.0146577
814.934	0.0149191
815.012	0.0146596
815.090	0.0146101
815.168	0.0147129
815.246	0.0145068
815.325	0.0147540
815.403	0.0146947
815.481	0.0145524
815.559	0.0146111
815.637	0.0147914
815.715	0.0146487
815.793	0.0145778
815.871	0.0145696
815.950	0.0146760
816.028	0.0147222
816.106	0.0146575
816.184	0.0144205
816.262	0.0144796
816.340	0.0146007
816.418	0.0146394
816.496	0.0146003
816.575	0.0147458
816.653	0.0146652
816.731	0.0145027
816.809	0.0145322
816.887	0.0146301
816.965	0.0146116
817.043	0.0147827
817.121	0.0145673
817.200	0.0146687
817.278	0.0146132
817.356	0.0145580
817.434	0.0145692
817.512	0.0144968
817.590	0.0146442
817.668	0.0146356
817.746	0.0145712
817.825	0.0146265
817.903	0.0145146
817.981	0.0147168
818.059	0.0145940
818.137	0.0146575
818.215	0.0146619
818.293	0.0146993
818.371	0.0146593
818.450	0.0147121
818.528	0.0146871
818.606	0.0146696
818.684	0.0146652
818.762	0.0146367
818.840	0.0147148
818.918	0.0146522
818.996	0.0146753
819.075	0.0147404
819.153	0.0148519
819.231	0.0147361
819.309	0.0146712
819.387	0.0147636
819.465	0.0147356
819.543	0.0147983
819.621	0.0147860
819.700	0.0147233
819.778	0.0146976
819.856	0.0147195
819.934	0.0147066
820.012	0.0146116
820.090	0.0147239
820.168	0.0148624
820.246	0.0148148
820.325	0.0146186
820.403	0.0147726
820.481	0.0147174
820.559	0.0147581
820.637	0.0146070
820.715	0.0145827
820.793	0.0145444
820.871	0.0147119
820.950	0.0146069
821.028	0.0145917
821.106	0.0145922
821.184	0.0146976
821.262	0.0145046
821.340	0.0146158
821.418	0.0146039
821.496	0.0146067
821.575	0.0146507
821.653	0.0147609
821.731	0.0145793
821.809	0.0147359
821.887	0.0147741
821.965	0.0147041
822.043	0.0146605
822.121	0.0147694
822.200	0.0147142
822.278	0.0146133
822.356	0.0146913
822.434	0.0147255
822.512	0.0146329
822.590	0.0145005
822.668	0.0146333
822.746	0.0146819
822.825	0.0145855
822.903	0.0146322
822.981	0.0145471
823.059	0.0145153
823.137	0.0145811
823.215	0.0147818
823.293	0.0148840
823.371	0.0146420
823.450	0.0146977
823.528	0.0147390
823.606	0.0147612
823.684	0.0147960
823.762	0.0147070
823.840	0.0148566
823.918	0.0147588
823.996	0.0147694
824.075	0.0145411
824.153	0.0146449
824.231	0.0147823
824.309	0.0147670
824.387	0.0145287
824.465	0.0146249
824.543	0.0146768
824.621	0.0147600
824.700	0.0147036
824.778	0.0146548
824.856	0.0146362
824.934	0.0147192
825.012	0.0146812
825.090	0.0148763
825.168	0.0147967
825.246	0.0148145
825.325	0.0147628
825.403	0.0147309
825.481	0.0148322
825.559	0.0148726
825.637	0.0146719
825.715	0.0147692
825.793	0.0148130
825.871	0.0147205
825.950	0.0146504
826.028	0.0147577
826.106	0.0148114
826.184	0.0147288
826.262	0.0146912
826.340	0.0147153
826.418	0.0148189
826.496	0.0147675
826.575	0.0146211
826.653	0.0147150
826.731	0.0148605
826.809	0.0148125
826.887	0.0146797
826.965	0.0146732
827.043	0.0147874
827.121	0.0148322
827.200	0.0149133
827.278	0.0148542
827.356	0.0148470
827.434	0.0145827
827.512	0.0147734
827.590	0.0147618
827.668	0.0146960
827.746	0.0147578
827.825	0.0147932
827.903	0.0149018
827.981	0.0146519
828.059	0.0147605
828.137	0.0147222
828.215	0.0147080
828.293	0.0146722
828.371	0.0146961
828.450	0.0146280
828.528	0.0146408
828.606	0.0148053
828.684	0.0146574
828.762	0.0146802
828.840	0.0147355
828.918	0.0147528
828.996	0.0145490
829.075	0.0146719
829.153	0.0146600
829.231	0.0146523
829.309	0.0148446
829.387	0.0147426
829.465	0.0145592
829.543	0.0146567
829.621	0.0146914
829.700	0.0146712
829.778	0.0147150
829.856	0.0147465
829.934	0.0145046
830.012	0.0147021
830.090	0.0144852
830.168	0.0145335
830.246	0.0147350
830.325	0.0145448
830.403	0.0145349
830.481	0.0145451
830.559	0.0146973
830.637	0.0145528
830.715	0.0145806
830.793	0.0147343
830.871	0.0144919
830.950	0.0146196
831.028	0.0145485
831.106	0.0145719
831.184	0.0145332
831.262	0.0144831
831.340	0.0144730
831.418	0.0144521
831.496	0.0146088
831.575	0.0144947
831.653	0.0143987
831.731	0.0144966
831.809	0.0146678
831.887	0.0146113
831.965	0.0145058
832.043	0.0146147
832.121	0.0145210
832.200	0.0146044
832.278	0.0146637
832.356	0.0146985
832.434	0.0145900
832.512	0.0146675
832.590	0.0146985
832.668	0.0145718
832.746	0.0145145
832.825	0.0144090
832.903	0.0144725
832.981	0.0145258
833.059	0.0145728
833.137	0.0146204
833.215	0.0145460
833.293	0.0146201
833.371	0.0145497
833.450	0.0145870
833.528	0.0145885
833.606	0.0147347
833.684	0.0146496
833.762	0.0146552
833.840	0.0146689
833.918	0.0147104
833.996	0.0147297
834.075	0.0147012
834.153	0.0147291
834.231	0.0145343
834.309	0.0147914
834.387	0.0147818
834.465	0.0146051
834.543	0.0147445
834.621	0.0147180
834.700	0.0147036
834.778	0.0146623
834.856	0.0147015
834.934	0.0145642
835.012	0.0146683
835.090	0.0146511
835.168	0.0147432
835.246	0.0146001
835.325	0.0146310
835.403	0.0148236
835.481	0.0147845
835.559	0.0147156
835.637	0.0147076
835.715	0.0147250
835.793	0.0147807
835.871	0.0146637
835.950	0.0146542
836.028	0.0146412
836.106	0.0148530
836.184	0.0149306
836.262	0.0148558
836.340	0.0146426
836.418	0.0148277
836.496	0.0148971
836.575	0.0148686
836.653	0.0147162
836.731	0.0148482
836.809	0.0148154
836.887	0.0146627
836.965	0.0147372
837.043	0.0147046
837.121	0.0148981
837.200	0.0147480
837.278	0.0146783
837.356	0.0149525
837.434	0.0146999
837.512	0.0145109
837.590	0.0147191
837.668	0.0147280
837.746	0.0145862
837.825	0.0147013
837.903	0.0146694
837.981	0.0146540
838.059	0.0145917
838.137	0.0146493
838.215	0.0146526
838.293	0.0146294
838.371	0.0146475
838.450	0.0145021
838.528	0.0144971
838.606	0.0146374
838.684	0.0145341
838.762	0.0144059
838.840	0.0147331
838.918	0.0147057
838.996	0.0146358
839.075	0.0145949
839.153	0.0147911
839.231	0.0147032
839.309	0.0145573
839.387	0.0146185
839.465	0.0146371
839.543	0.0147252
839.621	0.0144934
839.700	0.0146362
839.778	0.0146366
839.856	0.0146816
839.934	0.0148081
840.012	0.0146616
840.090	0.0145560
840.168	0.0147980
840.246	0.0146556
840.325	0.0146928
840.403	0.0145968
840.481	0.0146398
840.559	0.0146575
840.637	0.0145830
840.715	0.0146082
840.793	0.0146735
840.871	0.0145419
840.950	0.0146906
841.028	0.0146944
841.106	0.0146857
841.184	0.0146790
841.262	0.0146611
841.340	0.0147185
841.418	0.0146365
841.496	0.0147644
841.575	0.0145660
841.653	0.0146583
841.731	0.0146069
841.809	0.0146385
841.887	0.0147323
841.965	0.0146357
842.043	0.0147231
842.121	0.0145847
842.200	0.0146892
842.278	0.0147569
842.356	0.0146233
842.434	0.0145084
842.512	0.0145846
842.590	0.0145229
842.668	0.0146991
842.746	0.0146032
842.825	0.0146064
842.903	0.0145494
842.981	0.0145844
843.059	0.0146004
843.137	0.0144733
843.215	0.0146759
843.293	0.0146562
843.371	0.0146905
843.450	0.0145627
843.528	0.0145921
843.606	0.0146822
843.684	0.0147258
843.762	0.0147102
843.840	0.0146113
843.918	0.0146757
843.996	0.0147189
844.075	0.0147649
844.153	0.0146827
844.231	0.0146233
844.309	0.0146369
844.387	0.0146424
844.465	0.0145264
844.543	0.0146829
844.621	0.0147157
844.700	0.0146075
844.778	0.0146889
844.856	0.0146848
844.934	0.0146276
845.012	0.0146667
845.090	0.0147202
845.168	0.0147996
845.246	0.0145385
845.325	0.0146986
845.403	0.0146342
845.481	0.0145102
845.559	0.0146429
845.637	0.0146779
845.715	0.0147207
845.793	0.0145799
845.871	0.0146522
845.950	0.0147124
846.028	0.0146813
846.106	0.0147544
846.184	0.0146429
846.262	0.0147319
846.340	0.0147430
846.418	0.0146407
846.496	0.0146514
846.575	0.0146428
846.653	0.0146649
846.731	0.0146532
846.809	0.0148413
846.887	0.0146503
846.965	0.0146491
847.043	0.0146619
847.121	0.0147558
847.200	0.0146223
847.278	0.0148190
847.356	0.0147366
847.434	0.0147816
847.512	0.0146622
847.590	0.0144625
847.668	0.0145161
847.746	0.0146892
847.825	0.0145783
847.903	0.0146145
847.981	0.0146819
848.059	0.0148322
848.137	0.0148022
848.215	0.0147804
848.293	0.0148457
848.371	0.0149163
848.450	0.0147399
848.528	0.0147559
848.606	0.0147569
848.684	0.0147484
848.762	0.0147282
848.840	0.0147221
848.918	0.0147914
848.996	0.0147389
849.075	0.0147380
849.153	0.0146878
849.231	0.0147458
849.309	0.0148176
849.387	0.0147263
849.465	0.0146507
849.543	0.0146471
849.621	0.0146077
849.700	0.0147010
849.778	0.0146040
849.856	0.0146773
849.934	0.0146562
850.012	0.0146172
850.090	0.0145148
850.168	0.0146214
850.246	0.0145243
850.325	0.0146497
850.403	0.0147079
850.481	0.0145813
850.559	0.0146239
850.637	0.0148152
850.715	0.0148154
850.793	0.0146417
850.871	0.0146786
850.950	0.0147125
851.028	0.0148153
851.106	0.0148467
851.184	0.0147358
851.262	0.0147543
851.340	0.0147688
851.418	0.0146713
851.496	0.0147276
851.575	0.0146960
851.653	0.0147536
851.731	0.0148454
851.809	0.0147298
851.887	0.0146543
851.965	0.0147103
852.043	0.0147595
852.121	0.0147697
852.200	0.0145855
852.278	0.0145757
852.356	0.0146111
852.434	0.0145502
852.512	0.0145995
852.590	0.0145929
852.668	0.0146194
852.746	0.0144791
852.825	0.0146349
852.903	0.0145834
852.981	0.0147094
853.059	0.0147282
853.137	0.0147715
853.215	0.0147588
853.293	0.0146410
853.371	0.0147042
853.450	0.0146295
853.528	0.0147918
853.606	0.0147074
853.684	0.0147483
853.762	0.0148086
853.840	0.0146798
853.918	0.0147465
853.996	0.0147118
854.075	0.0146955
854.153	0.0146958
854.231	0.0147005
854.309	0.0145895
854.387	0.0147061
854.465	0.0147052
854.543	0.0145738
854.621	0.0147662
854.700	0.0146481
854.778	0.0147773
854.856	0.0147122
854.934	0.0146765
855.012	0.0146823
855.090	0.0147559
855.168	0.0148052
855.246	0.0146624
855.325	0.0146043
855.403	0.0147366
855.481	0.0147285
855.559	0.0147269
855.637	0.0148459
855.715	0.0147253
855.793	0.0146964
855.871	0.0147285
855.950	0.0147092
856.028	0.0148061
856.106	0.0145956
856.184	0.0147414
856.262	0.0147037
856.340	0.0148079
856.418	0.0147478
856.496	0.0147877
856.575	0.0147123
856.653	0.0146738
856.731	0.0146143
856.809	0.0147583
856.887	0.0148557
856.965	0.0146865
857.043	0.0146899
857.121	0.0147042
857.200	0.0147606
857.278	0.0146957
857.356	0.0146268
857.434	0.0145560
857.512	0.0146676
857.590	0.0146600
857.668	0.0145804
857.746	0.0146815
857.825	0.0148542
857.903	0.0147121
857.981	0.0146568
858.059	0.0146455
858.137	0.0147418
858.215	0.0149181
858.293	0.0148045
858.371	0.0147392
858.450	0.0147568
858.528	0.0148627
858.606	0.0148865
858.684	0.0148686
858.762	0.0147738
858.840	0.0149339
858.918	0.0148288
858.996	0.0147692
859.075	0.0148273
859.153	0.0147233
859.231	0.0147539
859.309	0.0148721
859.387	0.0147396
859.465	0.0146351
859.543	0.0146492
859.621	0.0146817
859.700	0.0147929
859.778	0.0147526
859.856	0.0146433
859.934	0.0147633
860.012	0.0146764
860.090	0.0146584
860.168	0.0147689
860.246	0.0146301
860.325	0.0147292
860.403	0.0147710
860.481	0.0147269
860.559	0.0147765
860.637	0.0148666
860.715	0.0147639
860.793	0.0147802
860.871	0.0147137
860.950	0.0147316
861.028	0.0147778
861.106	0.0147683
861.184	0.0146807
861.262	0.0146947
861.340	0.0148177
861.418	0.0147225
861.496	0.0147180
861.575	0.0146564
861.653	0.0145461
861.731	0.0146529
861.809	0.0147552
861.887	0.0147664
861.965	0.0147643
862.043	0.0145561
862.121	0.0144997
862.200	0.0146898
862.278	0.0146449
862.356	0.0145198
862.434	0.0147514
862.512	0.0146667
862.590	0.0145955
862.668	0.0147002
862.746	0.0147466
862.825	0.0145856
862.903	0.0147227
862.981	0.0146249
863.059	0.0145907
863.137	0.0146163
863.215	0.0147413
863.293	0.0145383
863.371	0.0146353
863.450	0.0147408
863.528	0.0145875
863.606	0.0145285
863.684	0.0144935
863.762	0.0145358
863.840	0.0146179
863.918	0.0147288
863.996	0.0147340
864.075	0.0147168
864.153	0.0147162
864.231	0.0146502
864.309	0.0146411
864.387	0.0147427
864.465	0.0147694
864.543	0.0147738
864.621	0.0147399
864.700	0.0146283
864.778	0.0146222
864.856	0.0146162
864.934	0.0146960
865.012	0.0146190
865.090	0.0146859
865.168	0.0148226
865.246	0.0147218
865.325	0.0147607
865.403	0.0147282
865.481	0.0146504
865.559	0.0146764
865.637	0.0146856
865.715	0.0146596
865.793	0.0145510
865.871	0.0144936
865.950	0.0145862
866.028	0.0147035
866.106	0.0146366
866.184	0.0145486
866.262	0.0145421
866.340	0.0146762
866.418	0.0146762
866.496	0.0146850
866.575	0.0146421
866.653	0.0145400
866.731	0.0145575
866.809	0.0146178
866.887	0.0146465
866.965	0.0146714
867.043	0.0146202
867.121	0.0145966
867.200	0.0146597
867.278	0.0147945
867.356	0.0145768
867.434	0.0146026
867.512	0.0146143
867.590	0.0145957
867.668	0.0146058
867.746	0.0144787
867.825	0.0145303
867.903	0.0146864
867.981	0.0146937
868.059	0.0144795
868.137	0.0145888
868.215	0.0145691
868.293	0.0146031
868.371	0.0146342
868.450	0.0145974
868.528	0.0144584
868.606	0.0145087
868.684	0.0143802
868.762	0.0145724
868.840	0.0146265
868.918	0.0145113
868.996	0.0144010
869.075	0.0145667
869.153	0.0144748
869.231	0.0143325
869.309	0.0144666
869.387	0.0147044
869.465	0.0144785
869.543	0.0144960
869.621	0.0145412
869.700	0.0144209
869.778	0.0144348
869.856	0.0144853
869.934	0.0146803
870.012	0.0146245
870.090	0.0146426
870.168	0.0146922
870.246	0.0145779
870.325	0.0146119
870.403	0.0145823
870.481	0.0145670
870.559	0.0146208
870.637	0.0146547
870.715	0.0146239
870.793	0.0146739
870.871	0.0146039
870.950	0.0145325
871.028	0.0147929
871.106	0.0145417
871.184	0.0146984
871.262	0.0146481
871.340	0.0145564
871.418	0.0147424
871.496	0.0147340
871.575	0.0146086
871.653	0.0146358
871.731	0.0146922
871.809	0.0145853
871.887	0.0147098
871.965	0.0147992
872.043	0.0147382
872.121	0.0146961
872.200	0.0146103
872.278	0.0147725
872.356	0.0146651
872.434	0.0147408
872.512	0.0147761
872.590	0.0147375
872.668	0.0146413
872.746	0.0147202
872.825	0.0147805
872.903	0.0147947
872.981	0.0146682
873.059	0.0147346
873.137	0.0147729
873.215	0.0148076
873.293	0.0148573
873.371	0.0148267
873.450	0.0147743
873.528	0.0146952
873.606	0.0147495
873.684	0.0146278
873.762	0.0146701
873.840	0.0147929
873.918	0.0147497
873.996	0.0147861
874.075	0.0146273
874.153	0.0145564
874.231	0.0147567
874.309	0.0146214
874.387	0.0147796
874.465	0.0148143
874.543	0.0145473
874.621	0.0147021
874.700	0.0146616
874.778	0.0147994
874.856	0.0148157
874.934	0.0147926
875.012	0.0147145
875.090	0.0147742
875.168	0.0146957
875.246	0.0147850
875.325	0.0147828
875.403	0.0145892
875.481	0.0147554
875.559	0.0145689
875.637	0.0147224
875.715	0.0147163
875.793	0.0146140
875.871	0.0148441
875.950	0.0148655
876.028	0.0147070
876.106	0.0146172
876.184	0.0147488
876.262	0.0146726
876.340	0.0147249
876.418	0.0147360
876.496	0.0147832
876.575	0.0148949
876.653	0.0148148
876.731	0.0147897
876.809	0.0147722
876.887	0.0149247
876.965	0.0147791
877.043	0.0147902
877.121	0.0146439
877.200	0.0146627
877.278	0.0147253
877.356	0.0145833
877.434	0.0147507
877.512	0.0147381
877.590	0.0147245
877.668	0.0146701
877.746	0.0145801
877.825	0.0146247
877.903	0.0148009
877.981	0.0147462
878.059	0.0148717
878.137	0.0148380
878.215	0.0148110
878.293	0.0148139
878.371	0.0148359
878.450	0.0147739
878.528	0.0147495
878.606	0.0146632
878.684	0.0147340
878.762	0.0146760
878.840	0.0147386
878.918	0.0146396
878.996	0.0147912
879.075	0.0147338
879.153	0.0146383
879.231	0.0146253
879.309	0.0146555
879.387	0.0144218
879.465	0.0146792
879.543	0.0146719
879.621	0.0145575
879.700	0.0146719
879.778	0.0146225
879.856	0.0146223
879.934	0.0145320
880.012	0.0144486
880.090	0.0145227
880.168	0.0145979
880.246	0.0144460
880.325	0.0145534
880.403	0.0145998
880.481	0.0145242
880.559	0.0145731
880.637	0.0146330
880.715	0.0146929
880.793	0.0147173
880.871	0.0145605
880.950	0.0146564
881.028	0.0145451
881.106	0.0147324
881.184	0.0148792
881.262	0.0146545
881.340	0.0147034
881.418	0.0145782
881.496	0.0146105
881.575	0.0146734
881.653	0.0147404
881.731	0.0146819
881.809	0.0147038
881.887	0.0146575
881.965	0.0147873
882.043	0.0147964
882.121	0.0146848
882.200	0.0148501
882.278	0.0147462
882.356	0.0147050
882.434	0.0147315
882.512	0.0147578
882.590	0.0149068
882.668	0.0146935
882.746	0.0147804
882.825	0.0148107
882.903	0.0148009
882.981	0.0148470
883.059	0.0146753
883.137	0.0145969
883.215	0.0146512
883.293	0.0145882
883.371	0.0147048
883.450	0.0148138
883.528	0.0146897
883.606	0.0146335
883.684	0.0147762
883.762	0.0147145
883.840	0.0146503
883.918	0.0147742
883.996	0.0146778
884.075	0.0146158
884.153	0.0147230
884.231	0.0147084
884.309	0.0147884
884.387	0.0147329
884.465	0.0147804
884.543	0.0147697
884.621	0.0146970
884.700	0.0147729
884.778	0.0146613
884.856	0.0147984
884.934	0.0147143
885.012	0.0146891
885.090	0.0147495
885.168	0.0147814
885.246	0.0146295
885.325	0.0146062
885.403	0.0147220
885.481	0.0147138
885.559	0.0147549
885.637	0.0145939
885.715	0.0147608
885.793	0.0148269
885.871	0.0148483
885.950	0.0147498
886.028	0.0146276
886.106	0.0146722
886.184	0.0145222
886.262	0.0144788
886.340	0.0145909
886.418	0.0146668
886.496	0.0145964
886.575	0.0146409
886.653	0.0146410
886.731	0.0145032
886.809	0.0146044
886.887	0.0145612
886.965	0.0144459
887.043	0.0144833
887.121	0.0145806
887.200	0.0145332
887.278	0.0144772
887.356	0.0146169
887.434	0.0146907
887.512	0.0147796
887.590	0.0145707
887.668	0.0146722
887.746	0.0148120
887.825	0.0146858
887.903	0.0146195
887.981	0.0146538
888.059	0.0147634
888.137	0.0147559
888.215	0.0146702
888.293	0.0147934
888.371	0.0147350
888.450	0.0146204
888.528	0.0146511
888.606	0.0147017
888.684	0.0145169
888.762	0.0145110
888.840	0.0146368
888.918	0.0145825
888.996	0.0146673
889.075	0.0146127
889.153	0.0146394
889.231	0.0146014
889.309	0.0147218
889.387	0.0146014
889.465	0.0146387
889.543	0.0147138
889.621	0.0147341
889.700	0.0147483
889.778	0.0146356
889.856	0.0145432
889.934	0.0146015
890.012	0.0146957
890.090	0.0146902
890.168	0.0147142
890.246	0.0147015
890.325	0.0146458
890.403	0.0146345
890.481	0.0146170
890.559	0.0148347
890.637	0.0147240
890.715	0.0146863
890.793	0.0148681
890.871	0.0148753
890.950	0.0147300
891.028	0.0146404
891.106	0.0145600
891.184	0.0145847
891.262	0.0146083
891.340	0.0144539
891.418	0.0144063
891.496	0.0145284
891.575	0.0144991
891.653	0.0144035
891.731	0.0145623
891.809	0.0145114
891.887	0.0145846
891.965	0.0145573
892.043	0.0146202
892.121	0.0146021
892.200	0.0147193
892.278	0.0146104
892.356	0.0145936
892.434	0.0148370
892.512	0.0146867
892.590	0.0148142
892.668	0.0147067
892.746	0.0146788
892.825	0.0145821
892.903	0.0145361
892.981	0.0145238
893.059	0.0145116
893.137	0.0144259
893.215	0.0145370
893.293	0.0143719
893.371	0.0145956
893.450	0.0145164
893.528	0.0145277
893.606	0.0146487
893.684	0.0146135
893.762	0.0146928
893.840	0.0145750
893.918	0.0146770
893.996	0.0146160
894.075	0.0146801
894.153	0.0146515
894.231	0.0145662
894.309	0.0144328
894.387	0.0145558
894.465	0.0143947
894.543	0.0143629
894.621	0.0142986
894.700	0.0144379
894.778	0.0144673
894.856	0.0143843
894.934	0.0144896
895.012	0.0143969
895.090	0.0144384
895.168	0.0144016
895.246	0.0144399
895.325	0.0145615
895.403	0.0145818
895.481	0.0145609
895.559	0.0145534
895.637	0.0147758
895.715	0.0147162
895.793	0.0146783
895.871	0.0148177
895.950	0.0148333
896.028	0.0147731
896.106	0.0147496
896.184	0.0146786
896.262	0.0147256
896.340	0.0146770
896.418	0.0147874
896.496	0.0146595
896.575	0.0145678
896.653	0.0146221
896.731	0.0145659
896.809	0.0144789
896.887	0.0144738
896.965	0.0145055
897.043	0.0145159
897.121	0.0146008
897.200	0.0143340
897.278	0.0146111
897.356	0.0147610
897.434	0.0146507
897.512	0.0146170
897.590	0.0148830
897.668	0.0148635
897.746	0.0148670
897.825	0.0149377
897.903	0.0150198
897.981	0.0149063
898.059	0.0147704
898.137	0.0147434
898.215	0.0147443
898.293	0.0147204
898.371	0.0147316
898.450	0.0146186
898.528	0.0147341
898.606	0.0145503
898.684	0.0145632
898.762	0.0146523
898.840	0.0145545
898.918	0.0145699
898.996	0.0146420
899.075	0.0145978
899.153	0.0145898
899.231	0.0147341
899.309	0.0146662
899.387	0.0146706
899.465	0.0146806
899.543	0.0148252
899.621	0.0147218
899.700	0.0147330
899.778	0.0148361
899.856	0.0149098
899.934	0.0147432
900.012	0.0147068
900.090	0.0148888
900.168	0.0147156
900.246	0.0146630
900.325	0.0147939
900.403	0.0147247
900.481	0.0146162
900.559	0.0146697
900.637	0.0147068
900.715	0.0146339
900.793	0.0146155
900.871	0.0147820
900.950	0.0146185
901.028	0.0147174
901.106	0.0147478
901.184	0.0145628
901.262	0.0145329
901.340	0.0147179
901.418	0.0146850
901.496	0.0146725
901.575	0.0145338
901.653	0.0145272
901.731	0.0146832
901.809	0.0148125
901.887	0.0147441
901.965	0.0147356
902.043	0.0146948
902.121	0.0147388
902.200	0.0146867
902.278	0.0147820
902.356	0.0147437
902.434	0.0147242
902.512	0.0147941
902.590	0.0147297
902.668	0.0147785
902.746	0.0148468
902.825	0.0146889
902.903	0.0147329
902.981	0.0148335
903.059	0.0146469
903.137	0.0146757
903.215	0.0148064
903.293	0.0146460
903.371	0.0147370
903.450	0.0147100
903.528	0.0145827
903.606	0.0148316
903.684	0.0148277
903.762	0.0147090
903.840	0.0146239
903.918	0.0148135
903.996	0.0148672
904.075	0.0146645
904.153	0.0146466
904.231	0.0148517
904.309	0.0147980
904.387	0.0147243
904.465	0.0148717
904.543	0.0147351
904.621	0.0146796
904.700	0.0148026
904.778	0.0147221
904.856	0.0148209
904.934	0.0147215
905.012	0.0147355
905.090	0.0147247
905.168	0.0147050
905.246	0.0147982
905.325	0.0148177
905.403	0.0148697
905.481	0.0147006
905.559	0.0146565
905.637	0.0145280
905.715	0.0146439
905.793	0.0148102
905.871	0.0149265
905.950	0.0147469
906.028	0.0147120
906.106	0.0148034
906.184	0.0146612
906.262	0.0146191
906.340	0.0147764
906.418	0.0147998
906.496	0.0146745
906.575	0.0147070
906.653	0.0146677
906.731	0.0146852
906.809	0.0147477
906.887	0.0147616
906.965	0.0146831
907.043	0.0146992
907.121	0.0148512
907.200	0.0147421
907.278	0.0148143
907.356	0.0148702
907.434	0.0147807
907.512	0.0147730
907.590	0.0147492
907.668	0.0149031
907.746	0.0148532
907.825	0.0148396
907.903	0.0147922
907.981	0.0147471
908.059	0.0147821
908.137	0.0147565
908.215	0.0145822
908.293	0.0145796
908.371	0.0146487
908.450	0.0147469
908.528	0.0146357
908.606	0.0146448
908.684	0.0146644
908.762	0.0146281
908.840	0.0147415
908.918	0.0146922
908.996	0.0146216
909.075	0.0146611
909.153	0.0146275
909.231	0.0146448
909.309	0.0146644
909.387	0.0146767
909.465	0.0147408
909.543	0.0145282
909.621	0.0147131
909.700	0.0148959
909.778	0.0145888
909.856	0.0146741
909.934	0.0147350
910.012	0.0147439
910.090	0.0147133
910.168	0.0146987
910.246	0.0148051
910.325	0.0147624
910.403	0.0145337
910.481	0.0146465
910.559	0.0145575
910.637	0.0144643
910.715	0.0146183
910.793	0.0146255
910.871	0.0145054
910.950	0.0146706
911.028	0.0146622
911.106	0.0146827
911.184	0.0146003
911.262	0.0146822
911.340	0.0146455
911.418	0.0146296
911.496	0.0146182
911.575	0.0147070
911.653	0.0146081
911.731	0.0146033
911.809	0.0146187
911.887	0.0145718
911.965	0.0146913
912.043	0.0146415
912.121	0.0147144
912.200	0.0144697
912.278	0.0145549
912.356	0.0146618
912.434	0.0147100
912.512	0.0146461
912.590	0.0145229
912.668	0.0144734
912.746	0.0146188
912.825	0.0146404
912.903	0.0147211
912.981	0.0144717
913.059	0.0146296
913.137	0.0145172
913.215	0.0146015
913.293	0.0145608
913.371	0.0144345
913.450	0.0145316
913.528	0.0145031
913.606	0.0145588
913.684	0.0144853
913.762	0.0145934
913.840	0.0144588
913.918	0.0145884
913.996	0.0146706
914.075	0.0147250
914.153	0.0147415
914.231	0.0147394
914.309	0.0146494
914.387	0.0145144
914.465	0.0146101
914.543	0.0145242
914.621	0.0145178
914.700	0.0145662
914.778	0.0145533
914.856	0.0145624
914.934	0.0145573
915.012	0.0145868
915.090	0.0146308
915.168	0.0145930
915.246	0.0144684
915.325	0.0145749
915.403	0.0145715
915.481	0.0144715
915.559	0.0144755
915.637	0.0146786
915.715	0.0148409
915.793	0.0145819
915.871	0.0145693
915.950	0.0146085
916.028	0.0145312
916.106	0.0145966
916.184	0.0147295
916.262	0.0146652
916.340	0.0144315
916.418	0.0147128
916.496	0.0147299
916.575	0.0146882
916.653	0.0146094
916.731	0.0145763
916.809	0.0145870
916.887	0.0147251
916.965	0.0146854
917.043	0.0146964
917.121	0.0145892
917.200	0.0144356
917.278	0.0145898
917.356	0.0145894
917.434	0.0146355
917.512	0.0145767
917.590	0.0145469
917.668	0.0145306
917.746	0.0144704
917.825	0.0144202
917.903	0.0144170
917.981	0.0146310
918.059	0.0144718
918.137	0.0144894
918.215	0.0144547
918.293	0.0144994
918.371	0.0145199
918.450	0.0146688
918.528	0.0145993
918.606	0.0145511
918.684	0.0145686
918.762	0.0145217
918.840	0.0146262
918.918	0.0146321
918.996	0.0146477
919.075	0.0146927
919.153	0.0146843
919.231	0.0147144
919.309	0.0147364
919.387	0.0145757
919.465	0.0146844
919.543	0.0146442
919.621	0.0148696
919.700	0.0146027
919.778	0.0146200
919.856	0.0146172
919.934	0.0145717
920.012	0.0146524
920.090	0.0147054
920.168	0.0146221
920.246	0.0145134
920.325	0.0146704
920.403	0.0146422
920.481	0.0145463
920.559	0.0146020
920.637	0.0146091
920.715	0.0146677
920.793	0.0147736
920.871	0.0147521
920.950	0.0145534
921.028	0.0148070
921.106	0.0146049
921.184	0.0146481
921.262	0.0146380
921.340	0.0145790
921.418	0.0144975
921.496	0.0146825
921.575	0.0146315
921.653	0.0145695
921.731	0.0145264
921.809	0.0146762
921.887	0.0147237
921.965	0.0147399
922.043	0.0147838
922.121	0.0146564
922.200	0.0146075
922.278	0.0146196
922.356	0.0146418
922.434	0.0145702
922.512	0.0146076
922.590	0.0148254
922.668	0.0145146
922.746	0.0146524
922.825	0.0146983
922.903	0.0146486
922.981	0.0147441
923.059	0.0145802
923.137	0.0145972
923.215	0.0146213
923.293	0.0147749
923.371	0.0147024
923.450	0.0147709
923.528	0.0146448
923.606	0.0146493
923.684	0.0148330
923.762	0.0147436
923.840	0.0147189
923.918	0.0147684
923.996	0.0148162
924.075	0.0147678
924.153	0.0148112
924.231	0.0148254
924.309	0.0148512
924.387	0.0148071
924.465	0.0147137
924.543	0.0147337
924.621	0.0147936
924.700	0.0147357
924.778	0.0146705
924.856	0.0145809
924.934	0.0146596
925.012	0.0148522
925.090	0.0146245
925.168	0.0145857
925.246	0.0147202
925.325	0.0146792
925.403	0.0145903
925.481	0.0146432
925.559	0.0147862
925.637	0.0146975
925.715	0.0146477
925.793	0.0147938
925.871	0.0146405
925.950	0.0147566
926.028	0.0147668
926.106	0.0146383
926.184	0.0146721
926.262	0.0146938
926.340	0.0147452
926.418	0.0148018
926.496	0.0146646
926.575	0.0146463
926.653	0.0146163
926.731	0.0146280
926.809	0.0145287
926.887	0.0147286
926.965	0.0146866
927.043	0.0146122
927.121	0.0146906
927.200	0.0147572
927.278	0.0146960
927.356	0.0146478
927.434	0.0147462
927.512	0.0147052
927.590	0.0147808
927.668	0.0147214
927.746	0.0147073
927.825	0.0149000
927.903	0.0147677
927.981	0.0147487
928.059	0.0147473
928.137	0.0148393
928.215	0.0147034
928.293	0.0147463
928.371	0.0148131
928.450	0.0147658
928.528	0.0147761
928.606	0.0147670
928.684	0.0146399
928.762	0.0146545
928.840	0.0147260
928.918	0.0148513
928.996	0.0148460
929.075	0.0145998
929.153	0.0146657
929.231	0.0147281
929.309	0.0147900
929.387	0.0146107
929.465	0.0146524
929.543	0.0147725
929.621	0.0147186
929.700	0.0147655
929.778	0.0146338
929.856	0.0147151
929.934	0.0147119
930.012	0.0148036
930.090	0.0146915
930.168	0.0145899
930.246	0.0147783
930.325	0.0146456
930.403	0.0145913
930.481	0.0147160
930.559	0.0146055
930.637	0.0145966
930.715	0.0147061
930.793	0.0147897
930.871	0.0147570
930.950	0.0147530
931.028	0.0147324
931.106	0.0146151
931.184	0.0147065
931.262	0.0147528
931.340	0.0146932
931.418	0.0147397
931.496	0.0147610
931.575	0.0146839
931.653	0.0146544
931.731	0.0147283
931.809	0.0147133
931.887	0.0146096
931.965	0.0147881
932.043	0.0148000
932.121	0.0146918
932.200	0.0147427
932.278	0.0146898
932.356	0.0147466
932.434	0.0146941
932.512	0.0147025
932.590	0.0146279
932.668	0.0146149
932.746	0.0146830
932.825	0.0148089
932.903	0.0146413
932.981	0.0146981
933.059	0.0148730
933.137	0.0147314
933.215	0.0146444
933.293	0.0146887
933.371	0.0147646
933.450	0.0148139
933.528	0.0147350
933.606	0.0147575
933.684	0.0147275
933.762	0.0146574
933.840	0.0146313
933.918	0.0148395
933.996	0.0147926
934.075	0.0147316
934.153	0.0147442
934.231	0.0147523
934.309	0.0147532
934.387	0.0147399
934.465	0.0146896
934.543	0.0146946
934.621	0.0146762
934.700	0.0147073
934.778	0.0146230
934.856	0.0146535
934.934	0.0147484
935.012	0.0147838
935.090	0.0145940
935.168	0.0147275
935.246	0.0146806
935.325	0.0146578
935.403	0.0147046
935.481	0.0146450
935.559	0.0145386
935.637	0.0145839
935.715	0.0146364
935.793	0.0147520
935.871	0.0147615
935.950	0.0146701
936.028	0.0146889
936.106	0.0147115
936.184	0.0146222
936.262	0.0146719
936.340	0.0146649
936.418	0.0147350
936.496	0.0146510
936.575	0.0146149
936.653	0.0146501
936.731	0.0147507
936.809	0.0147433
936.887	0.0146581
936.965	0.0145854
937.043	0.0147430
937.121	0.0148559
937.200	0.0147343
937.278	0.0147164
937.356	0.0147724
937.434	0.0148092
937.512	0.0146310
937.590	0.0145903
937.668	0.0146406
937.746	0.0148152
937.825	0.0147448
937.903	0.0147183
937.981	0.0146983
938.059	0.0146075
938.137	0.0147791
938.215	0.0147202
938.293	0.0146886
938.371	0.0147009
938.450	0.0147709
938.528	0.0147514
938.606	0.0146349
938.684	0.0145969
938.762	0.0146264
938.840	0.0147196
938.918	0.0145522
938.996	0.0146134
939.075	0.0146017
939.153	0.0146019
939.231	0.0147451
939.309	0.0145186
939.387	0.0145184
939.465	0.0145071
939.543	0.0145747
939.621	0.0145656
939.700	0.0146880
939.778	0.0145470
939.856	0.0145448
939.934	0.0146808
940.012	0.0146302
940.090	0.0146209
940.168	0.0145081
940.246	0.0146501
940.325	0.0146066
940.403	0.0145942
940.481	0.0145854
940.559	0.0145637
940.637	0.0146738
940.715	0.0146244
940.793	0.0146770
940.871	0.0146490
940.950	0.0145815
941.028	0.0147521
941.106	0.0146725
941.184	0.0146022
941.262	0.0147422
941.340	0.0147733
941.418	0.0147358
941.496	0.0146542
941.575	0.0146242
941.653	0.0146796
941.731	0.0148314
941.809	0.0146812
941.887	0.0146584
941.965	0.0147124
942.043	0.0147332
942.121	0.0146825
942.200	0.0146635
942.278	0.0147486
942.356	0.0147812
942.434	0.0145802
942.512	0.0146264
942.590	0.0147624
942.668	0.0146931
942.746	0.0147200
942.825	0.0146437
942.903	0.0145399
942.981	0.0146223
943.059	0.0147031
943.137	0.0146809
943.215	0.0147757
943.293	0.0147372
943.371	0.0146982
943.450	0.0147334
943.528	0.0146830
943.606	0.0145940
943.684	0.0146748
943.762	0.0147425
943.840	0.0147570
943.918	0.0146505
943.996	0.0147511
944.075	0.0147153
944.153	0.0147636
944.231	0.0148327
944.309	0.0148425
944.387	0.0147790
944.465	0.0147103
944.543	0.0147531
944.621	0.0144231
944.700	0.0146480
944.778	0.0146942
944.856	0.0146003
944.934	0.0147153
945.012	0.0146162
945.090	0.0145802
945.168	0.0145187
945.246	0.0146471
945.325	0.0147572
945.403	0.0146954
945.481	0.0147413
945.559	0.0146055
945.637	0.0146929
945.715	0.0146452
945.793	0.0147250
945.871	0.0146035
945.950	0.0147002
946.028	0.0146592
946.106	0.0146507
946.184	0.0146210
946.262	0.0146584
946.340	0.0146465
946.418	0.0146965
946.496	0.0146980
946.575	0.0147218
946.653	0.0147245
946.731	0.0146726
946.809	0.0146287
946.887	0.0146786
946.965	0.0147118
947.043	0.0147247
947.121	0.0147173
947.200	0.0147115
947.278	0.0147386
947.356	0.0147146
947.434	0.0147272
947.512	0.0146981
947.590	0.0146174
947.668	0.0145752
947.746	0.0146129
947.825	0.0146287
947.903	0.0146122
947.981	0.0146214
948.059	0.0146036
948.137	0.0147400
948.215	0.0147532
948.293	0.0146416
948.371	0.0144156
948.450	0.0145897
948.528	0.0145367
948.606	0.0145322
948.684	0.0145775
948.762	0.0146584
948.840	0.0145753
948.918	0.0146672
948.996	0.0146983
949.075	0.0145745
949.153	0.0147291
949.231	0.0146647
949.309	0.0146560
949.387	0.0146516
949.465	0.0146629
949.543	0.0147601
949.621	0.0146061
949.700	0.0146375
949.778	0.0146718
949.856	0.0148031
949.934	0.0147411
950.012	0.0146646
950.090	0.0146136
950.168	0.0147073
950.246	0.0147813
950.325	0.0145937
950.403	0.0145525
950.481	0.0147019
950.559	0.0145473
950.637	0.0145786
950.715	0.0145655
950.793	0.0145617
950.871	0.0146983
950.950	0.0144979
951.028	0.0146572
951.106	0.0146178
951.184	0.0147120
951.262	0.0147088
951.340	0.0147027
951.418	0.0145991
951.496	0.0146590
951.575	0.0147295
951.653	0.0148212
951.731	0.0148134
951.809	0.0147558
951.887	0.0147955
951.965	0.0146954
952.043	0.0148147
952.121	0.0148981
952.200	0.0148026
952.278	0.0147375
952.356	0.0147765
952.434	0.0147843
952.512	0.0147027
952.590	0.0148392
952.668	0.0146033
952.746	0.0147598
952.825	0.0148891
952.903	0.0146204
952.981	0.0146344
953.059	0.0147224
953.137	0.0146658
953.215	0.0145889
953.293	0.0147868
953.371	0.0147617
953.450	0.0146629
953.528	0.0146431
953.606	0.0145483
953.684	0.0146737
953.762	0.0147559
953.840	0.0148038
953.918	0.0147238
953.996	0.0145725
954.075	0.0146445
954.153	0.0146050
954.231	0.0146682
954.309	0.0147113
954.387	0.0145100
954.465	0.0147250
954.543	0.0146887
954.621	0.0147031
954.700	0.0146808
954.778	0.0146607
954.856	0.0146766
954.934	0.0147803
955.012	0.0147238
955.090	0.0146663
955.168	0.0146772
955.246	0.0147470
955.325	0.0146329
955.403	0.0146095
955.481	0.0146516
955.559	0.0145581
955.637	0.0146162
955.715	0.0146500
955.793	0.0146098
955.871	0.0145247
955.950	0.0146446
956.028	0.0144875
956.106	0.0146702
956.184	0.0145039
956.262	0.0144897
956.340	0.0146543
956.418	0.0145405
956.496	0.0146797
956.575	0.0146113
956.653	0.0146062
956.731	0.0146372
956.809	0.0147284
956.887	0.0146994
956.965	0.0146730
957.043	0.0145579
957.121	0.0146444
957.200	0.0147950
957.278	0.0147884
957.356	0.0147453
957.434	0.0147446
957.512	0.0146078
957.590	0.0147590
957.668	0.0147000
957.746	0.0145901
957.825	0.0146418
957.903	0.0146333
957.981	0.0147231
958.059	0.0146086
958.137	0.0146587
958.215	0.0146461
958.293	0.0146274
958.371	0.0147402
958.450	0.0146797
958.528	0.0146693
958.606	0.0146303
958.684	0.0146599
958.762	0.0147349
958.840	0.0147253
958.918	0.0145216
958.996	0.0145880
959.075	0.0146506
959.153	0.0145235
959.231	0.0145081
959.309	0.0146297
959.387	0.0146576
959.465	0.0148190
959.543	0.0146556
959.621	0.0148399
959.700	0.0147310
959.778	0.0147859
959.856	0.0147226
959.934	0.0147977
960.012	0.0148030
960.090	0.0148103
960.168	0.0148235
960.246	0.0148837
960.325	0.0148164
960.403	0.0147350
960.481	0.0146946
960.559	0.0147523
960.637	0.0148436
960.715	0.0147459
960.793	0.0147887
960.871	0.0147127
960.950	0.0146931
961.028	0.0147698
961.106	0.0147865
961.184	0.0147990
961.262	0.0146637
961.340	0.0147189
961.418	0.0146922
961.496	0.0147596
961.575	0.0147672
961.653	0.0146203
961.731	0.0146337
961.809	0.0147449
961.887	0.0148119
961.965	0.0148695
962.043	0.0149205
962.121	0.0147691
962.200	0.0147462
962.278	0.0147421
962.356	0.0148724
962.434	0.0149315
962.512	0.0148000
962.590	0.0146803
962.668	0.0146288
962.746	0.0149291
962.825	0.0147513
962.903	0.0147540
962.981	0.0148282
963.059	0.0146494
963.137	0.0147086
963.215	0.0147298
963.293	0.0147285
963.371	0.0146753
963.450	0.0147285
963.528	0.0146626
963.606	0.0145811
963.684	0.0146790
963.762	0.0146657
963.840	0.0145599
963.918	0.0145409
963.996	0.0145434
964.075	0.0146164
964.153	0.0147031
964.231	0.0147157
964.309	0.0146687
964.387	0.0146415
964.465	0.0147189
964.543	0.0146572
964.621	0.0146175
964.700	0.0146735
964.778	0.0146767
964.856	0.0146230
964.934	0.0147308
965.012	0.0146114
965.090	0.0145746
965.168	0.0146500
965.246	0.0144904
965.325	0.0145674
965.403	0.0148109
965.481	0.0146101
965.559	0.0146073
965.637	0.0148280
965.715	0.0146308
965.793	0.0145472
965.871	0.0145047
965.950	0.0145421
966.028	0.0146423
966.106	0.0146638
966.184	0.0146589
966.262	0.0145946
966.340	0.0145851
966.418	0.0145516
966.496	0.0145069
966.575	0.0146385
966.653	0.0146901
966.731	0.0147138
966.809	0.0147148
966.887	0.0147597
966.965	0.0147421
967.043	0.0147022
967.121	0.0146597
967.200	0.0146902
967.278	0.0147195
967.356	0.0147094
967.434	0.0148174
967.512	0.0147362
967.590	0.0147492
967.668	0.0148621
967.746	0.0148219
967.825	0.0146663
967.903	0.0146864
967.981	0.0147617
968.059	0.0147585
968.137	0.0147337
968.215	0.0145872
968.293	0.0145606
968.371	0.0146003
968.450	0.0146499
968.528	0.0146693
968.606	0.0146989
968.684	0.0147466
968.762	0.0146570
968.840	0.0145120
968.918	0.0146922
968.996	0.0147126
969.075	0.0146544
969.153	0.0147072
969.231	0.0146492
969.309	0.0147902
969.387	0.0147410
969.465	0.0146687
969.543	0.0147031
969.621	0.0146867
969.700	0.0146377
969.778	0.0147811
969.856	0.0146393
969.934	0.0146370
970.012	0.0147000
970.090	0.0145216
970.168	0.0147234
970.246	0.0148283
970.325	0.0147611
970.403	0.0145247
970.481	0.0146754
970.559	0.0147101
970.637	0.0146452
970.715	0.0147335
970.793	0.0145309
970.871	0.0147464
970.950	0.0149059
971.028	0.0147373
971.106	0.0145878
971.184	0.0146924
971.262	0.0147110
971.340	0.0148306
971.418	0.0147862
971.496	0.0146497
971.575	0.0147265
971.653	0.0145963
971.731	0.0147392
971.809	0.0146986
971.887	0.0145692
971.965	0.0146486
972.043	0.0145786
972.121	0.0145351
972.200	0.0145030
972.278	0.0145026
972.356	0.0145573
972.434	0.0145643
972.512	0.0145355
972.590	0.0146827
972.668	0.0145740
972.746	0.0146297
972.825	0.0147428
972.903	0.0146169
972.981	0.0147455
973.059	0.0147678
973.137	0.0146881
973.215	0.0146831
973.293	0.0146250
973.371	0.0146109
973.450	0.0147359
973.528	0.0145557
973.606	0.0144939
973.684	0.0146934
973.762	0.0146194
973.840	0.0144793
973.918	0.0146504
973.996	0.0145734
974.075	0.0147144
974.153	0.0145842
974.231	0.0145077
974.309	0.0146751
974.387	0.0146035
974.465	0.0147456
974.543	0.0146046
974.621	0.0147948
974.700	0.0146982
974.778	0.0144450
974.856	0.0147610
974.934	0.0146769
975.012	0.0146760
975.090	0.0145713
975.168	0.0146936
975.246	0.0147875
975.325	0.0146941
975.403	0.0146545
975.481	0.0147070
975.559	0.0147449
975.637	0.0148545
975.715	0.0146642
975.793	0.0146196
975.871	0.0147637
975.950	0.0147590
976.028	0.0147802
976.106	0.0148124
976.184	0.0148597
976.262	0.0147916
976.340	0.0147165
976.418	0.0147655
976.496	0.0147391
976.575	0.0147315
976.653	0.0147620
976.731	0.0147694
976.809	0.0146870
976.887	0.0147321
976.965	0.0147322
977.043	0.0146867
977.121	0.0147884
977.200	0.0148270
977.278	0.0147639
977.356	0.0147982
977.434	0.0147495
977.512	0.0147712
977.590	0.0147281
977.668	0.0146867
977.746	0.0148646
977.825	0.0148537
977.903	0.0148356
977.981	0.0148169
978.059	0.0147394
978.137	0.0148858
978.215	0.0147946
978.293	0.0145640
978.371	0.0146497
978.450	0.0147972
978.528	0.0148381
978.606	0.0145747
978.684	0.0147459
978.762	0.0148652
978.840	0.0147739
978.918	0.0147327
978.996	0.0149275
979.075	0.0149665
979.153	0.0148434
979.231	0.0148862
979.309	0.0146494
979.387	0.0146661
979.465	0.0147854
979.543	0.0147523
979.621	0.0147948
979.700	0.0147640
979.778	0.0148434
979.856	0.0146597
979.934	0.0146156
980.012	0.0148349
980.090	0.0147714
980.168	0.0147241
980.246	0.0144299
980.325	0.0143829
980.403	0.0146628
980.481	0.0145850
980.559	0.0145607
980.637	0.0145653
980.715	0.0146053
980.793	0.0145267
980.871	0.0145480
980.950	0.0145155
981.028	0.0146769
981.106	0.0145078
981.184	0.0146461
981.262	0.0146119
981.340	0.0146214
981.418	0.0147538
981.496	0.0147295
981.575	0.0145923
981.653	0.0145863
981.731	0.0147557
981.809	0.0144434
981.887	0.0145455
981.965	0.0146951
982.043	0.0145670
982.121	0.0145738
982.200	0.0145900
982.278	0.0145560
982.356	0.0146530
982.434	0.0146075
982.512	0.0146798
982.590	0.0145164
982.668	0.0145831
982.746	0.0145506
982.825	0.0145455
982.903	0.0145556
982.981	0.0146785
983.059	0.0146155
983.137	0.0145821
983.215	0.0147265
983.293	0.0146472
983.371	0.0146461
983.450	0.0146083
983.528	0.0146995
983.606	0.0146949
983.684	0.0146876
983.762	0.0147276
983.840	0.0147732
983.918	0.0148594
983.996	0.0145768
984.075	0.0147224
984.153	0.0146415
984.231	0.0148775
984.309	0.0147978
984.387	0.0145699
984.465	0.0146410
984.543	0.0148046
984.621	0.0146889
984.700	0.0147147
984.778	0.0147289
984.856	0.0145479
984.934	0.0146169
985.012	0.0146835
985.090	0.0145835
985.168	0.0147572
985.246	0.0146629
985.325	0.0145728
985.403	0.0146849
985.481	0.0147306
985.559	0.0148055
985.637	0.0146845
985.715	0.0146155
985.793	0.0145676
985.871	0.0148041
985.950	0.0147372
986.028	0.0148424
986.106	0.0148602
986.184	0.0148537
986.262	0.0148071
986.340	0.0148212
986.418	0.0148456
986.496	0.0148598
986.575	0.0147197
986.653	0.0147330
986.731	0.0148324
986.809	0.0148031
986.887	0.0147734
986.965	0.0147662
987.043	0.0147025
987.121	0.0147779
987.200	0.0147295
987.278	0.0146947
987.356	0.0146816
987.434	0.0147510
987.512	0.0147981
987.590	0.0146851
987.668	0.0147076
987.746	0.0146288
987.825	0.0148262
987.903	0.0147650
987.981	0.0146854
988.059	0.0147237
988.137	0.0148990
988.215	0.0147569
988.293	0.0147220
988.371	0.0147857
988.450	0.0148281
988.528	0.0146576
988.606	0.0148565
988.684	0.0147203
988.762	0.0147086
988.840	0.0146941
988.918	0.0147176
988.996	0.0147229
989.075	0.0147268
989.153	0.0145887
989.231	0.0146232
989.309	0.0146461
989.387	0.0147117
989.465	0.0146854
989.543	0.0146072
989.621	0.0146997
989.700	0.0148022
989.778	0.0148336
989.856	0.0146603
989.934	0.0146071
990.012	0.0145755
990.090	0.0146386
990.168	0.0148530
990.246	0.0146008
990.325	0.0146773
990.403	0.0147799
990.481	0.0145766
990.559	0.0146014
990.637	0.0147632
990.715	0.0145642
990.793	0.0146233
990.871	0.0146939
990.950	0.0146554
991.028	0.0145186
991.106	0.0145454
991.184	0.0145513
991.262	0.0145243
991.340	0.0146177
991.418	0.0147929
991.496	0.0145448
991.575	0.0146046
991.653	0.0146474
991.731	0.0147088
991.809	0.0147071
991.887	0.0146109
991.965	0.0147133
992.043	0.0146287
992.121	0.0145569
992.200	0.0147305
992.278	0.0146055
992.356	0.0145345
992.434	0.0146252
992.512	0.0146677
992.590	0.0143805
992.668	0.0145131
992.746	0.0145754
992.825	0.0145600
992.903	0.0145531
992.981	0.0144842
993.059	0.0146794
993.137	0.0146233
993.215	0.0145896
993.293	0.0146453
993.371	0.0144975
993.450	0.0146103
993.528	0.0145368
993.606	0.0146387
993.684	0.0145755
993.762	0.0146220
993.840	0.0146709
993.918	0.0148442
993.996	0.0146054
994.075	0.0147096
994.153	0.0146779
994.231	0.0145718
994.309	0.0146806
994.387	0.0146986
994.465	0.0147019
994.543	0.0148138
994.621	0.0145244
994.700	0.0146730
994.778	0.0145573
994.856	0.0145435
994.934	0.0145117
995.012	0.0146667
995.090	0.0146883
995.168	0.0145007
995.246	0.0146290
995.325	0.0146284
995.403	0.0146095
995.481	0.0146976
995.559	0.0147285
995.637	0.0147012
995.715	0.0146474
995.793	0.0147086
995.871	0.0146210
995.950	0.0147617
996.028	0.0146319
996.106	0.0147585
996.184	0.0148269
996.262	0.0145930
996.340	0.0146596
996.418	0.0148170
996.496	0.0147395
996.575	0.0145804
996.653	0.0146453
996.731	0.0145941
996.809	0.0147318
996.887	0.0145773
996.965	0.0145684
997.043	0.0147359
997.121	0.0146441
997.200	0.0145759
997.278	0.0146053
997.356	0.0146320
997.434	0.0145218
997.512	0.0145267
997.590	0.0147536
997.668	0.0146164
997.746	0.0146851
997.825	0.0147489
997.903	0.0145402
997.981	0.0147023
998.059	0.0146606
998.137	0.0146253
998.215	0.0146065
998.293	0.0148087
998.371	0.0146118
998.450	0.0146776
998.528	0.0147525
998.606	0.0147357
998.684	0.0147628
998.762	0.0148331
998.840	0.0148555
998.918	0.0148428
