05/04/2022	21:22:38	Ver.	4.1	UNKNOWN
Optical Delay	678.996401	Delta X		0.078125	Sweeps	1	Scan Rate	0/0
Coordinates	Axis 1	NaN	Axis 2	NaN	Axis 3	NaN	Axis 4	NaN	Axis 5	NaN	Axis 6	0.000000
TX Power	0.000000	RX Power	0.000000

678.996	0.0148528
679.075	0.0149169
679.153	0.0147489
679.231	0.0147652
679.309	0.0147874
679.387	0.0148348
679.465	0.0146964
679.543	0.0146684
679.621	0.0146542
679.700	0.0147618
679.778	0.0146490
679.856	0.0144468
679.934	0.0144877
680.012	0.0144798
680.090	0.0146862
680.168	0.0145561
680.246	0.0145475
680.325	0.0146591
680.403	0.0146689
680.481	0.0147226
680.559	0.0148106
680.637	0.0148479
680.715	0.0147928
680.793	0.0147322
680.871	0.0148857
680.950	0.0148709
681.028	0.0150150
681.106	0.0148297
681.184	0.0148610
681.262	0.0148904
681.340	0.0147361
681.418	0.0147551
681.496	0.0147243
681.575	0.0147199
681.653	0.0147659
681.731	0.0146929
681.809	0.0145493
681.887	0.0146346
681.965	0.0147303
682.043	0.0146329
682.121	0.0145788
682.200	0.0146782
682.278	0.0146417
682.356	0.0146307
682.434	0.0146434
682.512	0.0147711
682.590	0.0148092
682.668	0.0146593
682.746	0.0147512
682.825	0.0149161
682.903	0.0148910
682.981	0.0146750
683.059	0.0148623
683.137	0.0149250
683.215	0.0147981
683.293	0.0148988
683.371	0.0148434
683.450	0.0148617
683.528	0.0149500
683.606	0.0150336
683.684	0.0149796
683.762	0.0148088
683.840	0.0149251
683.918	0.0147100
683.996	0.0147092
684.075	0.0147082
684.153	0.0146172
684.231	0.0146151
684.309	0.0147655
684.387	0.0146978
684.465	0.0145608
684.543	0.0145489
684.621	0.0146616
684.700	0.0146324
684.778	0.0146465
684.856	0.0145087
684.934	0.0147339
685.012	0.0146718
685.090	0.0147235
685.168	0.0147775
685.246	0.0147535
685.325	0.0146623
685.403	0.0146620
685.481	0.0146286
685.559	0.0146079
685.637	0.0148083
685.715	0.0147272
685.793	0.0146855
685.871	0.0146632
685.950	0.0146233
686.028	0.0146864
686.106	0.0146278
686.184	0.0148524
686.262	0.0146456
686.340	0.0147018
686.418	0.0146561
686.496	0.0145482
686.575	0.0145126
686.653	0.0146291
686.731	0.0145432
686.809	0.0146156
686.887	0.0146909
686.965	0.0145433
687.043	0.0146310
687.121	0.0146163
687.200	0.0147012
687.278	0.0145665
687.356	0.0146907
687.434	0.0146519
687.512	0.0147200
687.590	0.0146762
687.668	0.0147614
687.746	0.0147582
687.825	0.0147287
687.903	0.0147522
687.981	0.0147725
688.059	0.0148541
688.137	0.0147852
688.215	0.0148228
688.293	0.0150822
688.371	0.0148717
688.450	0.0147371
688.528	0.0147827
688.606	0.0149171
688.684	0.0146564
688.762	0.0148567
688.840	0.0146828
688.918	0.0146815
688.996	0.0146512
689.075	0.0146880
689.153	0.0146425
689.231	0.0147359
689.309	0.0147204
689.387	0.0145818
689.465	0.0146553
689.543	0.0146354
689.621	0.0147698
689.700	0.0146718
689.778	0.0146638
689.856	0.0147074
689.934	0.0147993
690.012	0.0147815
690.090	0.0147565
690.168	0.0147653
690.246	0.0148111
690.325	0.0147757
690.403	0.0149057
690.481	0.0150159
690.559	0.0148129
690.637	0.0150169
690.715	0.0147871
690.793	0.0148014
690.871	0.0148793
690.950	0.0148966
691.028	0.0147527
691.106	0.0147433
691.184	0.0147875
691.262	0.0148588
691.340	0.0145895
691.418	0.0147205
691.496	0.0145733
691.575	0.0146710
691.653	0.0145577
691.731	0.0148091
691.809	0.0148058
691.887	0.0147172
691.965	0.0147643
692.043	0.0148286
692.121	0.0147973
692.200	0.0147307
692.278	0.0148754
692.356	0.0149777
692.434	0.0150430
692.512	0.0150091
692.590	0.0148729
692.668	0.0148614
692.746	0.0147735
692.825	0.0146271
692.903	0.0146647
692.981	0.0146569
693.059	0.0145132
693.137	0.0145202
693.215	0.0145809
693.293	0.0144707
693.371	0.0146870
693.450	0.0148051
693.528	0.0147572
693.606	0.0150555
693.684	0.0151824
693.762	0.0151198
693.840	0.0153838
693.918	0.0155470
693.996	0.0154868
694.075	0.0152625
694.153	0.0151505
694.231	0.0152994
694.309	0.0153161
694.387	0.0152488
694.465	0.0148734
694.543	0.0149062
694.621	0.0146874
694.700	0.0144857
694.778	0.0141702
694.856	0.0141418
694.934	0.0142453
695.012	0.0140968
695.090	0.0141104
695.168	0.0143077
695.246	0.0147437
695.325	0.0147646
695.403	0.0148975
695.481	0.0150437
695.559	0.0150684
695.637	0.0152813
695.715	0.0153033
695.793	0.0153152
695.871	0.0154479
695.950	0.0154496
696.028	0.0154067
696.106	0.0153660
696.184	0.0149704
696.262	0.0149636
696.340	0.0149333
696.418	0.0147131
696.496	0.0147226
696.575	0.0144673
696.653	0.0142909
696.731	0.0144101
696.809	0.0141914
696.887	0.0142449
696.965	0.0144759
697.043	0.0145008
697.121	0.0147301
697.200	0.0148340
697.278	0.0149494
697.356	0.0150703
697.434	0.0152800
697.512	0.0152383
697.590	0.0151588
697.668	0.0151069
697.746	0.0150560
697.825	0.0148540
697.903	0.0147027
697.981	0.0145347
698.059	0.0146222
698.137	0.0144432
698.215	0.0142830
698.293	0.0142822
698.371	0.0143517
698.450	0.0145801
698.528	0.0147584
698.606	0.0147998
698.684	0.0149623
698.762	0.0150323
698.840	0.0151647
698.918	0.0153309
698.996	0.0154612
699.075	0.0154636
699.153	0.0153478
699.231	0.0151035
699.309	0.0148425
699.387	0.0148161
699.465	0.0146735
699.543	0.0145741
699.621	0.0142649
699.700	0.0141994
699.778	0.0141519
699.856	0.0142307
699.934	0.0142737
700.012	0.0143370
700.090	0.0146391
700.168	0.0149046
700.246	0.0150538
700.325	0.0151847
700.403	0.0154683
700.481	0.0155842
700.559	0.0155204
700.637	0.0153117
700.715	0.0152056
700.793	0.0149705
700.871	0.0147116
700.950	0.0143800
701.028	0.0142797
701.106	0.0141072
701.184	0.0137836
701.262	0.0138860
701.340	0.0139891
701.418	0.0140995
701.496	0.0143291
701.575	0.0146537
701.653	0.0149981
701.731	0.0151885
701.809	0.0154353
701.887	0.0155470
701.965	0.0157043
702.043	0.0156152
702.121	0.0155086
702.200	0.0154495
702.278	0.0151832
702.356	0.0149079
702.434	0.0147621
702.512	0.0145345
702.590	0.0144894
702.668	0.0142648
702.746	0.0141396
702.825	0.0139271
702.903	0.0140603
702.981	0.0141406
703.059	0.0140903
703.137	0.0141794
703.215	0.0142839
703.293	0.0143506
703.371	0.0145232
703.450	0.0147221
703.528	0.0149635
703.606	0.0150682
703.684	0.0152979
703.762	0.0155463
703.840	0.0154336
703.918	0.0155942
703.996	0.0156009
704.075	0.0155511
704.153	0.0156490
704.231	0.0154846
704.309	0.0153698
704.387	0.0152303
704.465	0.0150488
704.543	0.0149376
704.621	0.0146474
704.700	0.0144069
704.778	0.0141766
704.856	0.0138335
704.934	0.0136131
705.012	0.0134026
705.090	0.0133085
705.168	0.0133348
705.246	0.0133947
705.325	0.0135396
705.403	0.0139398
705.481	0.0143516
705.559	0.0148103
705.637	0.0152162
705.715	0.0157171
705.793	0.0161858
705.871	0.0163759
705.950	0.0164382
706.028	0.0162908
706.106	0.0163580
706.184	0.0160906
706.262	0.0155687
706.340	0.0152412
706.418	0.0149259
706.496	0.0146626
706.575	0.0143310
706.653	0.0140132
706.731	0.0138205
706.809	0.0136362
706.887	0.0135867
706.965	0.0134992
707.043	0.0134441
707.121	0.0135397
707.200	0.0136750
707.278	0.0138902
707.356	0.0140095
707.434	0.0143357
707.512	0.0146298
707.590	0.0148658
707.668	0.0150317
707.746	0.0152081
707.825	0.0153573
707.903	0.0155797
707.981	0.0154553
708.059	0.0153917
708.137	0.0153989
708.215	0.0153827
708.293	0.0152998
708.371	0.0150317
708.450	0.0149444
708.528	0.0148796
708.606	0.0147902
708.684	0.0146201
708.762	0.0143983
708.840	0.0143760
708.918	0.0142480
708.996	0.0141043
709.075	0.0141395
709.153	0.0142853
709.231	0.0141707
709.309	0.0140981
709.387	0.0143021
709.465	0.0142600
709.543	0.0144999
709.621	0.0146412
709.700	0.0148276
709.778	0.0149124
709.856	0.0149153
709.934	0.0150123
710.012	0.0150937
710.090	0.0150659
710.168	0.0150970
710.246	0.0150307
710.325	0.0150132
710.403	0.0150132
710.481	0.0149332
710.559	0.0148695
710.637	0.0148712
710.715	0.0148526
710.793	0.0149375
710.871	0.0148077
710.950	0.0147580
711.028	0.0147488
711.106	0.0146397
711.184	0.0147495
711.262	0.0147170
711.340	0.0146553
711.418	0.0146856
711.496	0.0146199
711.575	0.0146516
711.653	0.0146474
711.731	0.0145094
711.809	0.0145146
711.887	0.0146087
711.965	0.0147174
712.043	0.0146842
712.121	0.0147527
712.200	0.0147098
712.278	0.0148776
712.356	0.0147724
712.434	0.0148587
712.512	0.0148798
712.590	0.0148340
712.668	0.0148602
712.746	0.0148798
712.825	0.0148844
712.903	0.0149509
712.981	0.0151098
713.059	0.0149036
713.137	0.0148546
713.215	0.0149400
713.293	0.0149419
713.371	0.0149200
713.450	0.0148441
713.528	0.0148064
713.606	0.0148902
713.684	0.0150414
713.762	0.0150773
713.840	0.0151150
713.918	0.0150887
713.996	0.0152459
714.075	0.0151531
714.153	0.0151164
714.231	0.0150388
714.309	0.0151679
714.387	0.0149075
714.465	0.0147107
714.543	0.0144878
714.621	0.0143858
714.700	0.0142507
714.778	0.0142582
714.856	0.0140328
714.934	0.0141241
715.012	0.0137412
715.090	0.0140192
715.168	0.0141785
715.246	0.0143600
715.325	0.0144832
715.403	0.0146609
715.481	0.0148724
715.559	0.0150643
715.637	0.0151704
715.715	0.0152454
715.793	0.0154346
715.871	0.0155209
715.950	0.0155292
716.028	0.0155254
716.106	0.0154244
716.184	0.0153133
716.262	0.0153536
716.340	0.0151075
716.418	0.0150854
716.496	0.0149657
716.575	0.0148378
716.653	0.0148235
716.731	0.0146822
716.809	0.0146484
716.887	0.0146339
716.965	0.0145206
717.043	0.0144803
717.121	0.0143172
717.200	0.0142307
717.278	0.0140848
717.356	0.0142571
717.434	0.0143962
717.512	0.0142312
717.590	0.0143324
717.668	0.0143587
717.746	0.0144335
717.825	0.0146473
717.903	0.0148357
717.981	0.0150710
718.059	0.0153886
718.137	0.0153162
718.215	0.0153841
718.293	0.0156013
718.371	0.0157096
718.450	0.0155020
718.528	0.0155872
718.606	0.0154491
718.684	0.0152884
718.762	0.0150533
718.840	0.0148717
718.918	0.0145554
718.996	0.0144464
719.075	0.0144216
719.153	0.0142947
719.231	0.0141062
719.309	0.0142652
719.387	0.0141734
719.465	0.0142859
719.543	0.0143297
719.621	0.0144965
719.700	0.0146198
719.778	0.0146221
719.856	0.0147084
719.934	0.0150191
720.012	0.0149728
720.090	0.0150658
720.168	0.0150827
720.246	0.0150529
720.325	0.0151652
720.403	0.0151849
720.481	0.0150857
720.559	0.0151155
720.637	0.0151968
720.715	0.0149700
720.793	0.0149345
720.871	0.0148979
720.950	0.0150711
721.028	0.0149399
721.106	0.0148896
721.184	0.0146883
721.262	0.0146262
721.340	0.0145174
721.418	0.0143516
721.496	0.0144645
721.575	0.0141354
721.653	0.0141528
721.731	0.0140102
721.809	0.0140378
721.887	0.0140755
721.965	0.0140991
722.043	0.0140539
722.121	0.0142277
722.200	0.0144905
722.278	0.0145861
722.356	0.0149365
722.434	0.0149088
722.512	0.0152349
722.590	0.0153187
722.668	0.0155386
722.746	0.0155543
722.825	0.0155032
722.903	0.0156566
722.981	0.0155592
723.059	0.0153897
723.137	0.0152617
723.215	0.0150986
723.293	0.0151414
723.371	0.0147100
723.450	0.0147180
723.528	0.0144796
723.606	0.0142374
723.684	0.0141448
723.762	0.0143224
723.840	0.0140882
723.918	0.0139524
723.996	0.0141901
724.075	0.0141406
724.153	0.0144006
724.231	0.0143981
724.309	0.0145258
724.387	0.0148237
724.465	0.0149316
724.543	0.0149818
724.621	0.0151131
724.700	0.0152271
724.778	0.0153619
724.856	0.0154295
724.934	0.0155412
725.012	0.0156234
725.090	0.0155425
725.168	0.0153807
725.246	0.0153692
725.325	0.0150761
725.403	0.0149379
725.481	0.0148967
725.559	0.0149410
725.637	0.0145826
725.715	0.0144439
725.793	0.0144274
725.871	0.0144791
725.950	0.0144258
726.028	0.0143748
726.106	0.0143930
726.184	0.0143436
726.262	0.0145641
726.340	0.0145787
726.418	0.0148022
726.496	0.0149075
726.575	0.0149257
726.653	0.0150494
726.731	0.0150127
726.809	0.0150729
726.887	0.0151554
726.965	0.0152438
727.043	0.0152503
727.121	0.0151832
727.200	0.0149400
727.278	0.0148771
727.356	0.0148425
727.434	0.0147675
727.512	0.0148838
727.590	0.0147958
727.668	0.0146626
727.746	0.0146762
727.825	0.0146311
727.903	0.0146502
727.981	0.0145368
728.059	0.0146079
728.137	0.0145724
728.215	0.0144796
728.293	0.0144262
728.371	0.0143839
728.450	0.0144034
728.528	0.0145112
728.606	0.0144406
728.684	0.0144244
728.762	0.0145249
728.840	0.0145536
728.918	0.0146774
728.996	0.0144282
729.075	0.0145731
729.153	0.0147564
729.231	0.0147233
729.309	0.0145426
729.387	0.0148521
729.465	0.0146590
729.543	0.0147177
729.621	0.0148974
729.700	0.0148484
729.778	0.0149161
729.856	0.0150052
729.934	0.0150201
730.012	0.0149827
730.090	0.0149928
730.168	0.0150974
730.246	0.0150517
730.325	0.0149706
730.403	0.0150616
730.481	0.0149829
730.559	0.0149332
730.637	0.0149640
730.715	0.0148262
730.793	0.0147306
730.871	0.0145540
730.950	0.0144920
731.028	0.0145753
731.106	0.0144048
731.184	0.0143593
731.262	0.0143412
731.340	0.0144361
731.418	0.0144489
731.496	0.0145178
731.575	0.0147018
731.653	0.0145123
731.731	0.0149046
731.809	0.0147548
731.887	0.0148016
731.965	0.0149673
732.043	0.0149039
732.121	0.0149828
732.200	0.0150378
732.278	0.0151240
732.356	0.0151807
732.434	0.0152434
732.512	0.0152177
732.590	0.0150756
732.668	0.0150574
732.746	0.0149800
732.825	0.0151315
732.903	0.0149158
732.981	0.0148943
733.059	0.0148241
733.137	0.0147209
733.215	0.0147688
733.293	0.0147623
733.371	0.0145535
733.450	0.0145888
733.528	0.0145110
733.606	0.0144176
733.684	0.0146124
733.762	0.0145846
733.840	0.0145235
733.918	0.0146424
733.996	0.0148225
734.075	0.0148016
734.153	0.0149094
734.231	0.0150643
734.309	0.0152205
734.387	0.0151591
734.465	0.0152564
734.543	0.0150573
734.621	0.0151612
734.700	0.0152732
734.778	0.0152137
734.856	0.0150970
734.934	0.0150954
735.012	0.0148383
735.090	0.0147623
735.168	0.0148605
735.246	0.0148360
735.325	0.0145493
735.403	0.0144625
735.481	0.0146066
735.559	0.0145293
735.637	0.0144545
735.715	0.0145271
735.793	0.0144512
735.871	0.0143778
735.950	0.0144292
736.028	0.0145003
736.106	0.0144983
736.184	0.0145231
736.262	0.0145533
736.340	0.0147009
736.418	0.0146050
736.496	0.0147555
736.575	0.0147465
736.653	0.0149564
736.731	0.0149297
736.809	0.0149043
736.887	0.0149786
736.965	0.0150820
737.043	0.0151655
737.121	0.0150356
737.200	0.0149908
737.278	0.0149667
737.356	0.0150455
737.434	0.0149038
737.512	0.0149128
737.590	0.0148592
737.668	0.0146980
737.746	0.0147588
737.825	0.0146107
737.903	0.0145074
737.981	0.0144222
738.059	0.0143963
738.137	0.0143273
738.215	0.0143701
738.293	0.0142592
738.371	0.0144381
738.450	0.0144695
738.528	0.0143225
738.606	0.0144147
738.684	0.0145374
738.762	0.0145906
738.840	0.0145702
738.918	0.0146696
738.996	0.0147491
739.075	0.0147147
739.153	0.0149160
739.231	0.0148893
739.309	0.0148569
739.387	0.0149192
739.465	0.0150558
739.543	0.0151231
739.621	0.0151418
739.700	0.0150729
739.778	0.0150520
739.856	0.0150467
739.934	0.0152115
740.012	0.0150530
740.090	0.0149774
740.168	0.0150020
740.246	0.0148602
740.325	0.0148093
740.403	0.0147535
740.481	0.0146627
740.559	0.0147580
740.637	0.0147753
740.715	0.0147042
740.793	0.0146498
740.871	0.0145924
740.950	0.0143879
741.028	0.0146179
741.106	0.0144978
741.184	0.0145082
741.262	0.0144907
741.340	0.0148212
741.418	0.0148205
741.496	0.0146149
741.575	0.0147768
741.653	0.0148398
741.731	0.0147761
741.809	0.0147773
741.887	0.0148888
741.965	0.0149092
742.043	0.0149072
742.121	0.0150342
742.200	0.0149577
742.278	0.0149062
742.356	0.0150404
742.434	0.0150336
742.512	0.0148843
742.590	0.0148322
742.668	0.0147551
742.746	0.0147297
742.825	0.0146486
742.903	0.0147534
742.981	0.0147095
743.059	0.0146365
743.137	0.0144418
743.215	0.0144490
743.293	0.0144011
743.371	0.0145570
743.450	0.0146169
743.528	0.0145405
743.606	0.0144942
743.684	0.0146329
743.762	0.0146774
743.840	0.0148949
743.918	0.0149754
743.996	0.0149706
744.075	0.0149609
744.153	0.0151104
744.231	0.0152598
744.309	0.0150753
744.387	0.0152095
744.465	0.0150892
744.543	0.0150171
744.621	0.0151078
744.700	0.0151311
744.778	0.0150612
744.856	0.0148413
744.934	0.0147717
745.012	0.0147739
745.090	0.0145404
745.168	0.0145080
745.246	0.0145994
745.325	0.0144289
745.403	0.0144449
745.481	0.0144265
745.559	0.0144274
745.637	0.0142750
745.715	0.0143789
745.793	0.0143671
745.871	0.0144019
745.950	0.0145784
746.028	0.0145739
746.106	0.0145417
746.184	0.0146553
746.262	0.0145961
746.340	0.0148056
746.418	0.0149539
746.496	0.0148684
746.575	0.0149580
746.653	0.0150241
746.731	0.0150446
746.809	0.0148914
746.887	0.0148799
746.965	0.0149409
747.043	0.0149573
747.121	0.0148471
747.200	0.0147949
747.278	0.0149145
747.356	0.0146394
747.434	0.0146654
747.512	0.0147045
747.590	0.0146774
747.668	0.0147195
747.746	0.0148071
747.825	0.0146381
747.903	0.0148206
747.981	0.0148679
748.059	0.0146285
748.137	0.0147153
748.215	0.0146803
748.293	0.0148901
748.371	0.0149519
748.450	0.0148521
748.528	0.0148519
748.606	0.0148189
748.684	0.0149670
748.762	0.0147488
748.840	0.0148519
748.918	0.0147941
748.996	0.0146040
749.075	0.0148925
749.153	0.0147565
749.231	0.0147126
749.309	0.0146900
749.387	0.0147860
749.465	0.0147411
749.543	0.0146843
749.621	0.0146947
749.700	0.0146301
749.778	0.0147207
749.856	0.0146661
749.934	0.0147694
750.012	0.0146912
750.090	0.0145778
750.168	0.0145136
750.246	0.0146243
750.325	0.0145350
750.403	0.0145832
750.481	0.0146510
750.559	0.0146226
750.637	0.0146572
750.715	0.0145119
750.793	0.0146703
750.871	0.0147123
750.950	0.0147379
751.028	0.0147940
751.106	0.0146921
751.184	0.0148124
751.262	0.0148436
751.340	0.0147544
751.418	0.0149034
751.496	0.0148248
751.575	0.0149151
751.653	0.0148450
751.731	0.0147672
751.809	0.0148546
751.887	0.0148675
751.965	0.0149072
752.043	0.0148564
752.121	0.0149081
752.200	0.0148410
752.278	0.0148108
752.356	0.0147319
752.434	0.0147976
752.512	0.0148112
752.590	0.0147936
752.668	0.0147852
752.746	0.0147327
752.825	0.0148155
752.903	0.0147934
752.981	0.0147559
753.059	0.0148645
753.137	0.0147332
753.215	0.0147582
753.293	0.0147323
753.371	0.0147608
753.450	0.0148029
753.528	0.0147447
753.606	0.0148144
753.684	0.0148275
753.762	0.0146362
753.840	0.0147973
753.918	0.0147447
753.996	0.0148354
754.075	0.0148277
754.153	0.0148120
754.231	0.0149190
754.309	0.0148031
754.387	0.0149119
754.465	0.0147693
754.543	0.0148174
754.621	0.0148163
754.700	0.0148734
754.778	0.0148454
754.856	0.0149066
754.934	0.0148551
755.012	0.0147960
755.090	0.0149571
755.168	0.0148446
755.246	0.0148621
755.325	0.0148650
755.403	0.0149203
755.481	0.0148425
755.559	0.0148882
755.637	0.0148184
755.715	0.0148484
755.793	0.0147562
755.871	0.0148266
755.950	0.0147567
756.028	0.0148306
756.106	0.0149078
756.184	0.0148094
756.262	0.0145875
756.340	0.0147933
756.418	0.0146825
756.496	0.0147834
756.575	0.0146288
756.653	0.0147012
756.731	0.0148650
756.809	0.0150446
756.887	0.0150005
756.965	0.0150050
757.043	0.0149541
757.121	0.0148573
757.200	0.0148910
757.278	0.0148682
757.356	0.0148349
757.434	0.0148003
757.512	0.0147983
757.590	0.0147232
757.668	0.0146980
757.746	0.0146664
757.825	0.0148054
757.903	0.0146105
757.981	0.0146397
758.059	0.0145316
758.137	0.0146307
758.215	0.0146264
758.293	0.0146881
758.371	0.0148155
758.450	0.0145164
758.528	0.0147191
758.606	0.0148132
758.684	0.0146294
758.762	0.0146649
758.840	0.0148093
758.918	0.0147624
758.996	0.0147697
759.075	0.0148232
759.153	0.0148183
759.231	0.0147193
759.309	0.0147285
759.387	0.0148727
759.465	0.0149038
759.543	0.0147668
759.621	0.0148247
759.700	0.0148041
759.778	0.0148560
759.856	0.0147626
759.934	0.0147585
760.012	0.0145873
760.090	0.0146819
760.168	0.0147549
760.246	0.0147258
760.325	0.0147589
760.403	0.0146545
760.481	0.0147535
760.559	0.0149197
760.637	0.0147202
760.715	0.0147411
760.793	0.0147718
760.871	0.0147344
760.950	0.0147645
761.028	0.0147836
761.106	0.0147392
761.184	0.0149107
761.262	0.0148058
761.340	0.0147073
761.418	0.0145457
761.496	0.0146548
761.575	0.0148050
761.653	0.0147655
761.731	0.0148425
761.809	0.0147501
761.887	0.0148152
761.965	0.0147749
762.043	0.0145998
762.121	0.0147784
762.200	0.0148533
762.278	0.0147594
762.356	0.0148669
762.434	0.0147404
762.512	0.0146619
762.590	0.0146337
762.668	0.0145718
762.746	0.0147629
762.825	0.0147794
762.903	0.0146228
762.981	0.0146563
763.059	0.0145914
763.137	0.0145336
763.215	0.0145710
763.293	0.0144675
763.371	0.0146217
763.450	0.0145255
763.528	0.0144208
763.606	0.0145453
763.684	0.0145300
763.762	0.0145876
763.840	0.0146081
763.918	0.0146922
763.996	0.0147039
764.075	0.0145231
764.153	0.0146815
764.231	0.0146582
764.309	0.0146219
764.387	0.0146464
764.465	0.0148611
764.543	0.0148606
764.621	0.0146832
764.700	0.0148300
764.778	0.0149270
764.856	0.0147861
764.934	0.0147759
765.012	0.0148268
765.090	0.0147058
765.168	0.0148251
765.246	0.0150035
765.325	0.0148051
765.403	0.0147495
765.481	0.0146210
765.559	0.0146513
765.637	0.0147173
765.715	0.0147083
765.793	0.0148529
765.871	0.0147575
765.950	0.0147470
766.028	0.0146510
766.106	0.0147813
766.184	0.0146635
766.262	0.0147424
766.340	0.0146709
766.418	0.0148032
766.496	0.0148419
766.575	0.0147313
766.653	0.0145833
766.731	0.0148268
766.809	0.0146133
766.887	0.0147444
766.965	0.0147324
767.043	0.0146052
767.121	0.0148249
767.200	0.0147639
767.278	0.0147191
767.356	0.0148018
767.434	0.0148999
767.512	0.0148630
767.590	0.0148395
767.668	0.0148125
767.746	0.0148191
767.825	0.0147475
767.903	0.0148347
767.981	0.0148364
768.059	0.0147053
768.137	0.0146709
768.215	0.0149820
768.293	0.0146445
768.371	0.0146767
768.450	0.0146931
768.528	0.0148248
768.606	0.0147403
768.684	0.0146860
768.762	0.0147943
768.840	0.0147017
768.918	0.0148527
768.996	0.0148068
769.075	0.0147028
769.153	0.0147760
769.231	0.0150040
769.309	0.0148931
769.387	0.0148396
769.465	0.0149483
769.543	0.0149088
769.621	0.0150919
769.700	0.0148827
769.778	0.0150714
769.856	0.0149351
769.934	0.0148569
770.012	0.0147533
770.090	0.0148315
770.168	0.0147604
770.246	0.0146249
770.325	0.0145361
770.403	0.0145184
770.481	0.0145189
770.559	0.0145544
770.637	0.0146360
770.715	0.0146142
770.793	0.0145709
770.871	0.0146431
770.950	0.0145332
771.028	0.0143572
771.106	0.0145667
771.184	0.0146194
771.262	0.0145287
771.340	0.0144051
771.418	0.0146916
771.496	0.0145973
771.575	0.0145765
771.653	0.0147123
771.731	0.0147900
771.809	0.0148156
771.887	0.0147781
771.965	0.0147849
772.043	0.0147632
772.121	0.0147899
772.200	0.0148618
772.278	0.0146919
772.356	0.0148183
772.434	0.0149324
772.512	0.0148594
772.590	0.0147550
772.668	0.0147767
772.746	0.0147395
772.825	0.0145262
772.903	0.0147972
772.981	0.0148304
773.059	0.0147623
773.137	0.0146503
773.215	0.0148106
773.293	0.0148418
773.371	0.0147415
773.450	0.0148538
773.528	0.0148157
773.606	0.0149239
773.684	0.0150216
773.762	0.0149066
773.840	0.0148169
773.918	0.0150344
773.996	0.0149738
774.075	0.0148965
774.153	0.0149513
774.231	0.0150410
774.309	0.0148854
774.387	0.0150430
774.465	0.0149525
774.543	0.0147929
774.621	0.0148602
774.700	0.0148888
774.778	0.0149145
774.856	0.0148683
774.934	0.0148028
775.012	0.0148197
775.090	0.0147691
775.168	0.0146976
775.246	0.0148777
775.325	0.0146323
775.403	0.0148524
775.481	0.0147578
775.559	0.0147123
775.637	0.0147427
775.715	0.0147972
775.793	0.0147223
775.871	0.0147614
775.950	0.0147520
776.028	0.0147353
776.106	0.0146712
776.184	0.0148116
776.262	0.0149017
776.340	0.0149171
776.418	0.0148027
776.496	0.0149364
776.575	0.0148539
776.653	0.0148936
776.731	0.0149022
776.809	0.0149670
776.887	0.0148280
776.965	0.0148767
777.043	0.0149448
777.121	0.0149557
777.200	0.0149022
777.278	0.0148596
777.356	0.0148669
777.434	0.0148523
777.512	0.0147312
777.590	0.0148396
777.668	0.0147414
777.746	0.0147765
777.825	0.0147912
777.903	0.0146518
777.981	0.0146896
778.059	0.0148663
778.137	0.0147525
778.215	0.0148014
778.293	0.0147256
778.371	0.0148138
778.450	0.0146753
778.528	0.0146156
778.606	0.0146957
778.684	0.0148279
778.762	0.0147849
778.840	0.0146083
778.918	0.0146469
778.996	0.0148506
779.075	0.0147807
779.153	0.0147533
779.231	0.0147280
779.309	0.0147894
779.387	0.0148035
779.465	0.0147051
779.543	0.0147824
779.621	0.0148600
779.700	0.0147552
779.778	0.0145601
779.856	0.0146053
779.934	0.0146829
780.012	0.0147345
780.090	0.0147467
780.168	0.0146590
780.246	0.0148144
780.325	0.0146090
780.403	0.0146457
780.481	0.0147550
780.559	0.0146453
780.637	0.0147072
780.715	0.0146935
780.793	0.0147019
780.871	0.0147315
780.950	0.0146880
781.028	0.0147485
781.106	0.0147952
781.184	0.0147153
781.262	0.0147395
781.340	0.0147734
781.418	0.0147914
781.496	0.0147599
781.575	0.0147221
781.653	0.0148359
781.731	0.0148559
781.809	0.0148190
781.887	0.0147416
781.965	0.0147012
782.043	0.0146130
782.121	0.0146828
782.200	0.0147520
782.278	0.0146364
782.356	0.0147485
782.434	0.0146901
782.512	0.0145081
782.590	0.0146989
782.668	0.0145779
782.746	0.0145805
782.825	0.0146288
782.903	0.0146908
782.981	0.0146225
783.059	0.0147800
783.137	0.0146700
783.215	0.0146984
783.293	0.0145995
783.371	0.0146500
783.450	0.0147108
783.528	0.0145276
783.606	0.0146808
783.684	0.0145944
783.762	0.0147385
783.840	0.0147648
783.918	0.0146460
783.996	0.0145850
784.075	0.0145869
784.153	0.0148800
784.231	0.0148273
784.309	0.0147089
784.387	0.0147622
784.465	0.0147251
784.543	0.0147465
784.621	0.0148369
784.700	0.0147404
784.778	0.0145743
784.856	0.0148333
784.934	0.0148086
785.012	0.0146910
785.090	0.0147991
785.168	0.0146162
785.246	0.0147504
785.325	0.0148097
785.403	0.0147270
785.481	0.0146763
785.559	0.0145815
785.637	0.0146837
785.715	0.0146819
785.793	0.0146777
785.871	0.0147074
785.950	0.0146186
786.028	0.0145660
786.106	0.0145960
786.184	0.0147050
786.262	0.0146354
786.340	0.0147683
786.418	0.0147881
786.496	0.0147753
786.575	0.0147478
786.653	0.0146677
786.731	0.0146700
786.809	0.0147737
786.887	0.0147298
786.965	0.0147715
787.043	0.0148076
787.121	0.0146549
787.200	0.0146989
787.278	0.0147997
787.356	0.0146378
787.434	0.0146526
787.512	0.0146203
787.590	0.0147254
787.668	0.0147527
787.746	0.0146632
787.825	0.0146934
787.903	0.0146495
787.981	0.0145615
788.059	0.0147780
788.137	0.0147479
788.215	0.0146237
788.293	0.0146966
788.371	0.0148496
788.450	0.0147765
788.528	0.0146805
788.606	0.0148653
788.684	0.0148137
788.762	0.0148241
788.840	0.0148553
788.918	0.0147697
788.996	0.0148273
789.075	0.0147939
789.153	0.0148866
789.231	0.0147162
789.309	0.0147355
789.387	0.0148762
789.465	0.0147861
789.543	0.0147271
789.621	0.0146591
789.700	0.0146500
789.778	0.0146004
789.856	0.0147250
789.934	0.0146637
790.012	0.0146994
790.090	0.0146906
790.168	0.0146436
790.246	0.0148037
790.325	0.0148645
790.403	0.0148596
790.481	0.0147321
790.559	0.0147957
790.637	0.0148123
790.715	0.0147984
790.793	0.0146556
790.871	0.0147701
790.950	0.0148090
791.028	0.0147578
791.106	0.0148266
791.184	0.0146887
791.262	0.0145692
791.340	0.0147036
791.418	0.0147781
791.496	0.0147173
791.575	0.0147598
791.653	0.0145966
791.731	0.0147643
791.809	0.0146771
791.887	0.0146751
791.965	0.0147829
792.043	0.0147873
792.121	0.0147211
792.200	0.0146700
792.278	0.0147064
792.356	0.0148046
792.434	0.0147913
792.512	0.0147401
792.590	0.0147633
792.668	0.0147813
792.746	0.0146848
792.825	0.0148365
792.903	0.0148650
792.981	0.0147060
793.059	0.0146838
793.137	0.0148539
793.215	0.0148289
793.293	0.0148379
793.371	0.0146888
793.450	0.0148319
793.528	0.0149207
793.606	0.0148544
793.684	0.0147907
793.762	0.0147704
793.840	0.0148122
793.918	0.0148147
793.996	0.0145943
794.075	0.0147465
794.153	0.0148660
794.231	0.0150050
794.309	0.0147746
794.387	0.0147782
794.465	0.0148705
794.543	0.0148093
794.621	0.0148415
794.700	0.0147741
794.778	0.0147603
794.856	0.0148525
794.934	0.0148682
795.012	0.0148418
795.090	0.0148496
795.168	0.0149081
795.246	0.0150217
795.325	0.0147547
795.403	0.0147983
795.481	0.0149316
795.559	0.0147073
795.637	0.0147808
795.715	0.0147044
795.793	0.0148682
795.871	0.0148771
795.950	0.0147288
796.028	0.0150025
796.106	0.0148157
796.184	0.0146759
796.262	0.0147876
796.340	0.0147798
796.418	0.0149388
796.496	0.0147567
796.575	0.0147639
796.653	0.0146735
796.731	0.0148898
796.809	0.0148547
796.887	0.0146964
796.965	0.0147321
797.043	0.0147650
797.121	0.0147986
797.200	0.0147151
797.278	0.0147932
797.356	0.0147506
797.434	0.0146775
797.512	0.0147042
797.590	0.0147401
797.668	0.0147714
797.746	0.0146128
797.825	0.0147811
797.903	0.0147195
797.981	0.0147871
798.059	0.0148018
798.137	0.0147290
798.215	0.0147718
798.293	0.0147924
798.371	0.0147485
798.450	0.0148568
798.528	0.0147916
798.606	0.0147319
798.684	0.0149060
798.762	0.0147535
798.840	0.0148071
798.918	0.0147572
798.996	0.0147775
799.075	0.0147118
799.153	0.0146636
799.231	0.0147669
799.309	0.0147238
799.387	0.0149073
799.465	0.0147729
799.543	0.0146095
799.621	0.0146850
799.700	0.0148730
799.778	0.0148454
799.856	0.0148580
799.934	0.0149159
800.012	0.0148235
800.090	0.0147852
800.168	0.0148372
800.246	0.0148216
800.325	0.0147976
800.403	0.0146416
800.481	0.0147404
800.559	0.0147712
800.637	0.0147675
800.715	0.0147198
800.793	0.0147462
800.871	0.0148870
800.950	0.0148238
801.028	0.0148717
801.106	0.0148186
801.184	0.0148102
801.262	0.0148051
801.340	0.0148824
801.418	0.0149716
801.496	0.0147309
801.575	0.0147970
801.653	0.0148413
801.731	0.0145685
801.809	0.0146198
801.887	0.0148422
801.965	0.0147290
802.043	0.0148468
802.121	0.0146922
802.200	0.0146603
802.278	0.0147277
802.356	0.0146576
802.434	0.0148266
802.512	0.0147634
802.590	0.0146625
802.668	0.0147242
802.746	0.0147137
802.825	0.0146423
802.903	0.0147272
802.981	0.0147481
803.059	0.0147549
803.137	0.0147172
803.215	0.0146698
803.293	0.0146617
803.371	0.0148151
803.450	0.0148315
803.528	0.0147102
803.606	0.0147716
803.684	0.0148730
803.762	0.0147868
803.840	0.0147522
803.918	0.0146873
803.996	0.0146520
804.075	0.0147086
804.153	0.0148284
804.231	0.0145522
804.309	0.0145551
804.387	0.0147607
804.465	0.0146547
804.543	0.0146407
804.621	0.0145893
804.700	0.0147746
804.778	0.0146616
804.856	0.0147179
804.934	0.0147855
805.012	0.0145658
805.090	0.0146752
805.168	0.0147980
805.246	0.0147231
805.325	0.0148728
805.403	0.0147192
805.481	0.0148735
805.559	0.0147960
805.637	0.0148270
805.715	0.0147240
805.793	0.0147351
805.871	0.0148247
805.950	0.0148252
806.028	0.0148512
806.106	0.0147137
806.184	0.0146075
806.262	0.0146511
806.340	0.0146489
806.418	0.0147621
806.496	0.0147532
806.575	0.0146689
806.653	0.0147559
806.731	0.0146971
806.809	0.0148181
806.887	0.0147723
806.965	0.0147578
807.043	0.0148573
807.121	0.0146732
807.200	0.0147615
807.278	0.0147361
807.356	0.0147530
807.434	0.0147302
807.512	0.0149098
807.590	0.0148170
807.668	0.0148964
807.746	0.0148141
807.825	0.0147293
807.903	0.0148368
807.981	0.0147542
808.059	0.0147575
808.137	0.0147598
808.215	0.0148528
808.293	0.0148828
808.371	0.0146998
808.450	0.0146835
808.528	0.0149107
808.606	0.0147628
808.684	0.0147521
808.762	0.0147433
808.840	0.0146893
808.918	0.0148578
808.996	0.0149186
809.075	0.0146505
809.153	0.0147532
809.231	0.0148331
809.309	0.0147202
809.387	0.0146838
809.465	0.0148591
809.543	0.0148245
809.621	0.0146790
809.700	0.0147877
809.778	0.0148839
809.856	0.0148237
809.934	0.0148672
810.012	0.0146919
810.090	0.0148896
810.168	0.0147668
810.246	0.0148109
810.325	0.0148524
810.403	0.0147480
810.481	0.0147645
810.559	0.0148195
810.637	0.0149363
810.715	0.0148183
810.793	0.0147711
810.871	0.0147626
810.950	0.0149206
811.028	0.0148992
811.106	0.0147626
811.184	0.0147250
811.262	0.0147292
811.340	0.0147116
811.418	0.0146759
811.496	0.0147211
811.575	0.0147830
811.653	0.0147719
811.731	0.0146951
811.809	0.0147066
811.887	0.0146239
811.965	0.0144521
812.043	0.0147608
812.121	0.0146037
812.200	0.0145618
812.278	0.0145808
812.356	0.0145749
812.434	0.0146914
812.512	0.0147095
812.590	0.0146450
812.668	0.0147123
812.746	0.0146847
812.825	0.0147520
812.903	0.0146449
812.981	0.0147154
813.059	0.0145944
813.137	0.0147340
813.215	0.0148778
813.293	0.0147343
813.371	0.0146525
813.450	0.0147054
813.528	0.0146267
813.606	0.0147856
813.684	0.0147336
813.762	0.0146754
813.840	0.0147652
813.918	0.0148363
813.996	0.0146971
814.075	0.0146517
814.153	0.0148768
814.231	0.0149148
814.309	0.0147540
814.387	0.0148952
814.465	0.0149606
814.543	0.0148429
814.621	0.0148698
814.700	0.0149276
814.778	0.0150230
814.856	0.0147456
814.934	0.0148650
815.012	0.0149577
815.090	0.0149430
815.168	0.0149149
815.246	0.0148261
815.325	0.0148467
815.403	0.0147912
815.481	0.0148035
815.559	0.0149825
815.637	0.0148356
815.715	0.0148369
815.793	0.0148166
815.871	0.0148006
815.950	0.0148119
816.028	0.0149016
816.106	0.0146670
816.184	0.0148004
816.262	0.0147628
816.340	0.0149801
816.418	0.0149025
816.496	0.0148374
816.575	0.0148605
816.653	0.0148335
816.731	0.0147852
816.809	0.0149624
816.887	0.0148235
816.965	0.0147823
817.043	0.0148779
817.121	0.0147166
817.200	0.0147647
817.278	0.0147462
817.356	0.0147159
817.434	0.0146286
817.512	0.0146476
817.590	0.0147237
817.668	0.0146974
817.746	0.0148892
817.825	0.0149104
817.903	0.0146094
817.981	0.0147466
818.059	0.0146052
818.137	0.0147124
818.215	0.0147362
818.293	0.0147670
818.371	0.0148071
818.450	0.0147388
818.528	0.0147395
818.606	0.0147211
818.684	0.0147717
818.762	0.0147926
818.840	0.0149660
818.918	0.0148893
818.996	0.0147810
819.075	0.0150695
819.153	0.0147893
819.231	0.0148445
819.309	0.0147429
819.387	0.0148043
819.465	0.0147157
819.543	0.0148486
819.621	0.0148553
819.700	0.0146960
819.778	0.0147170
819.856	0.0148132
819.934	0.0148335
820.012	0.0148106
820.090	0.0146404
820.168	0.0146630
820.246	0.0146379
820.325	0.0147299
820.403	0.0146191
820.481	0.0146597
820.559	0.0147040
820.637	0.0147126
820.715	0.0147376
820.793	0.0146495
820.871	0.0146724
820.950	0.0147586
821.028	0.0146629
821.106	0.0147221
821.184	0.0147585
821.262	0.0147225
821.340	0.0146570
821.418	0.0148705
821.496	0.0150183
821.575	0.0151430
821.653	0.0148449
821.731	0.0148175
821.809	0.0148446
821.887	0.0149012
821.965	0.0149009
822.043	0.0149184
822.121	0.0148122
822.200	0.0148486
822.278	0.0148148
822.356	0.0148817
822.434	0.0149329
822.512	0.0147784
822.590	0.0147108
822.668	0.0148312
822.746	0.0147857
822.825	0.0147736
822.903	0.0148302
822.981	0.0149225
823.059	0.0149109
823.137	0.0148778
823.215	0.0148212
823.293	0.0148978
823.371	0.0148792
823.450	0.0149823
823.528	0.0148962
823.606	0.0148064
823.684	0.0148858
823.762	0.0148556
823.840	0.0147813
823.918	0.0148066
823.996	0.0147164
824.075	0.0147960
824.153	0.0148225
824.231	0.0147778
824.309	0.0146873
824.387	0.0148157
824.465	0.0146157
824.543	0.0146391
824.621	0.0148136
824.700	0.0146919
824.778	0.0145700
824.856	0.0148266
824.934	0.0148582
825.012	0.0148183
825.090	0.0148133
825.168	0.0148700
825.246	0.0147821
825.325	0.0148573
825.403	0.0148430
825.481	0.0148231
825.559	0.0147116
825.637	0.0148090
825.715	0.0146818
825.793	0.0148108
825.871	0.0148740
825.950	0.0146218
826.028	0.0147444
826.106	0.0147586
826.184	0.0146084
826.262	0.0146702
826.340	0.0148638
826.418	0.0146949
826.496	0.0146650
826.575	0.0144824
826.653	0.0147665
826.731	0.0147009
826.809	0.0146611
826.887	0.0146004
826.965	0.0148497
827.043	0.0146445
827.121	0.0146592
827.200	0.0148272
827.278	0.0147084
827.356	0.0147031
827.434	0.0146005
827.512	0.0146635
827.590	0.0145695
827.668	0.0146795
827.746	0.0146903
827.825	0.0146204
827.903	0.0146503
827.981	0.0146896
828.059	0.0147955
828.137	0.0147288
828.215	0.0147237
828.293	0.0146313
828.371	0.0146550
828.450	0.0147332
828.528	0.0147091
828.606	0.0147111
828.684	0.0147118
828.762	0.0146915
828.840	0.0147564
828.918	0.0146842
828.996	0.0145339
829.075	0.0145581
829.153	0.0147679
829.231	0.0146460
829.309	0.0147605
829.387	0.0147567
829.465	0.0146243
829.543	0.0146613
829.621	0.0147723
829.700	0.0148202
829.778	0.0148192
829.856	0.0148812
829.934	0.0147820
830.012	0.0148509
830.090	0.0146996
830.168	0.0148223
830.246	0.0148801
830.325	0.0148379
830.403	0.0148667
830.481	0.0148786
830.559	0.0148857
830.637	0.0148077
830.715	0.0148918
830.793	0.0149302
830.871	0.0147158
830.950	0.0148170
831.028	0.0148952
831.106	0.0147484
831.184	0.0148575
831.262	0.0147831
831.340	0.0148628
831.418	0.0148274
831.496	0.0149644
831.575	0.0148791
831.653	0.0148853
831.731	0.0148432
831.809	0.0148869
831.887	0.0148808
831.965	0.0148917
832.043	0.0149156
832.121	0.0149036
832.200	0.0147549
832.278	0.0149567
832.356	0.0148985
832.434	0.0147571
832.512	0.0147853
832.590	0.0147626
832.668	0.0148503
832.746	0.0148889
832.825	0.0148952
832.903	0.0147246
832.981	0.0147594
833.059	0.0147906
833.137	0.0147918
833.215	0.0149329
833.293	0.0148515
833.371	0.0147932
833.450	0.0148329
833.528	0.0149438
833.606	0.0148121
833.684	0.0148695
833.762	0.0148032
833.840	0.0147704
833.918	0.0147000
833.996	0.0148252
834.075	0.0148025
834.153	0.0146854
834.231	0.0147516
834.309	0.0146151
834.387	0.0146811
834.465	0.0146527
834.543	0.0146072
834.621	0.0145259
834.700	0.0146780
834.778	0.0147227
834.856	0.0148212
834.934	0.0149350
835.012	0.0147208
835.090	0.0148055
835.168	0.0149267
835.246	0.0147813
835.325	0.0147118
835.403	0.0148590
835.481	0.0148067
835.559	0.0147511
835.637	0.0147936
835.715	0.0148603
835.793	0.0148178
835.871	0.0148402
835.950	0.0148472
836.028	0.0147662
836.106	0.0149339
836.184	0.0148980
836.262	0.0147502
836.340	0.0149171
836.418	0.0148399
836.496	0.0148301
836.575	0.0149059
836.653	0.0147433
836.731	0.0148004
836.809	0.0148547
836.887	0.0148854
836.965	0.0147852
837.043	0.0147083
837.121	0.0147778
837.200	0.0146987
837.278	0.0147878
837.356	0.0147890
837.434	0.0147449
837.512	0.0147552
837.590	0.0146543
837.668	0.0147908
837.746	0.0146935
837.825	0.0148267
837.903	0.0148692
837.981	0.0147575
838.059	0.0148607
838.137	0.0148170
838.215	0.0147324
838.293	0.0147361
838.371	0.0148125
838.450	0.0147874
838.528	0.0147694
838.606	0.0146530
838.684	0.0147519
838.762	0.0147491
838.840	0.0147870
838.918	0.0147691
838.996	0.0148246
839.075	0.0147984
839.153	0.0146826
839.231	0.0146788
839.309	0.0147813
839.387	0.0146772
839.465	0.0147252
839.543	0.0147587
839.621	0.0148109
839.700	0.0148741
839.778	0.0147431
839.856	0.0148267
839.934	0.0148302
840.012	0.0148396
840.090	0.0147136
840.168	0.0148600
840.246	0.0147330
840.325	0.0148623
840.403	0.0149191
840.481	0.0147244
840.559	0.0147980
840.637	0.0148214
840.715	0.0147923
840.793	0.0147941
840.871	0.0147079
840.950	0.0146656
841.028	0.0148788
841.106	0.0147341
841.184	0.0147441
841.262	0.0147050
841.340	0.0147423
841.418	0.0147694
841.496	0.0147048
841.575	0.0148043
841.653	0.0147934
841.731	0.0148395
841.809	0.0147049
841.887	0.0147153
841.965	0.0146501
842.043	0.0147677
842.121	0.0146732
842.200	0.0146991
842.278	0.0146539
842.356	0.0146058
842.434	0.0147041
842.512	0.0146847
842.590	0.0147458
842.668	0.0146705
842.746	0.0147604
842.825	0.0146867
842.903	0.0147116
842.981	0.0148074
843.059	0.0147360
843.137	0.0147453
843.215	0.0148469
843.293	0.0148111
843.371	0.0147197
843.450	0.0146982
843.528	0.0148337
843.606	0.0148053
843.684	0.0147107
843.762	0.0149316
843.840	0.0149139
843.918	0.0147919
843.996	0.0148110
844.075	0.0148775
844.153	0.0146606
844.231	0.0148602
844.309	0.0148442
844.387	0.0148801
844.465	0.0149435
844.543	0.0148295
844.621	0.0148651
844.700	0.0147585
844.778	0.0147962
844.856	0.0148628
844.934	0.0148781
845.012	0.0149124
845.090	0.0149373
845.168	0.0147959
845.246	0.0148335
845.325	0.0148596
845.403	0.0147593
845.481	0.0147847
845.559	0.0148936
845.637	0.0147778
845.715	0.0147768
845.793	0.0148825
845.871	0.0147936
845.950	0.0146600
846.028	0.0146407
846.106	0.0147369
846.184	0.0148152
846.262	0.0149247
846.340	0.0146638
846.418	0.0146866
846.496	0.0147511
846.575	0.0147972
846.653	0.0147687
846.731	0.0147742
846.809	0.0146189
846.887	0.0148226
846.965	0.0147239
847.043	0.0147953
847.121	0.0148184
847.200	0.0148566
847.278	0.0148905
847.356	0.0146720
847.434	0.0147338
847.512	0.0147798
847.590	0.0147649
847.668	0.0148180
847.746	0.0148252
847.825	0.0147754
847.903	0.0147243
847.981	0.0148052
848.059	0.0147366
848.137	0.0146468
848.215	0.0147623
848.293	0.0148270
848.371	0.0148186
848.450	0.0148043
848.528	0.0147690
848.606	0.0147433
848.684	0.0148134
848.762	0.0148552
848.840	0.0148266
848.918	0.0147555
848.996	0.0148405
849.075	0.0147509
849.153	0.0148795
849.231	0.0147995
849.309	0.0146908
849.387	0.0149619
849.465	0.0148312
849.543	0.0147237
849.621	0.0146951
849.700	0.0146369
849.778	0.0147169
849.856	0.0148967
849.934	0.0148721
850.012	0.0147324
850.090	0.0147289
850.168	0.0148580
850.246	0.0148289
850.325	0.0146378
850.403	0.0147672
850.481	0.0146374
850.559	0.0147475
850.637	0.0147987
850.715	0.0147778
850.793	0.0147834
850.871	0.0147312
850.950	0.0148215
851.028	0.0149026
851.106	0.0148222
851.184	0.0149147
851.262	0.0148537
851.340	0.0148160
851.418	0.0148559
851.496	0.0148399
851.575	0.0147749
851.653	0.0148383
851.731	0.0147966
851.809	0.0147888
851.887	0.0146522
851.965	0.0147585
852.043	0.0147246
852.121	0.0148201
852.200	0.0148141
852.278	0.0145806
852.356	0.0147028
852.434	0.0148710
852.512	0.0147638
852.590	0.0147159
852.668	0.0148431
852.746	0.0146806
852.825	0.0147876
852.903	0.0147923
852.981	0.0149121
853.059	0.0148077
853.137	0.0147934
853.215	0.0147047
853.293	0.0147560
853.371	0.0148173
853.450	0.0149162
853.528	0.0147481
853.606	0.0146927
853.684	0.0148370
853.762	0.0146655
853.840	0.0147856
853.918	0.0148335
853.996	0.0148427
854.075	0.0148228
854.153	0.0148102
854.231	0.0147935
854.309	0.0148149
854.387	0.0147738
854.465	0.0148216
854.543	0.0147900
854.621	0.0148568
854.700	0.0147853
854.778	0.0148392
854.856	0.0148973
854.934	0.0148384
855.012	0.0148539
855.090	0.0149599
855.168	0.0147053
855.246	0.0148685
855.325	0.0149277
855.403	0.0149518
855.481	0.0148450
855.559	0.0146819
855.637	0.0147522
855.715	0.0148846
855.793	0.0147668
855.871	0.0148083
855.950	0.0149357
856.028	0.0148105
856.106	0.0149250
856.184	0.0148782
856.262	0.0148843
856.340	0.0147977
856.418	0.0148068
856.496	0.0146294
856.575	0.0146680
856.653	0.0148082
856.731	0.0148904
856.809	0.0147687
856.887	0.0148523
856.965	0.0147639
857.043	0.0148651
857.121	0.0146193
857.200	0.0147260
857.278	0.0148009
857.356	0.0148373
857.434	0.0148300
857.512	0.0147456
857.590	0.0147565
857.668	0.0149065
857.746	0.0148414
857.825	0.0147330
857.903	0.0148564
857.981	0.0148148
858.059	0.0147385
858.137	0.0148051
858.215	0.0146945
858.293	0.0145771
858.371	0.0147166
858.450	0.0147855
858.528	0.0144878
858.606	0.0145868
858.684	0.0144654
858.762	0.0145403
858.840	0.0147592
858.918	0.0146622
858.996	0.0146107
859.075	0.0146840
859.153	0.0146838
859.231	0.0148444
859.309	0.0146921
859.387	0.0147708
859.465	0.0147845
859.543	0.0147566
859.621	0.0147650
859.700	0.0148651
859.778	0.0146838
859.856	0.0147711
859.934	0.0147440
860.012	0.0146911
860.090	0.0148115
860.168	0.0148705
860.246	0.0147430
860.325	0.0146874
860.403	0.0148096
860.481	0.0147311
860.559	0.0147264
860.637	0.0148026
860.715	0.0148579
860.793	0.0149318
860.871	0.0147998
860.950	0.0147471
861.028	0.0147109
861.106	0.0147408
861.184	0.0147346
861.262	0.0148632
861.340	0.0148497
861.418	0.0149413
861.496	0.0148553
861.575	0.0148774
861.653	0.0148908
861.731	0.0149146
861.809	0.0147482
861.887	0.0147843
861.965	0.0147358
862.043	0.0147236
862.121	0.0146085
862.200	0.0145887
862.278	0.0146868
862.356	0.0147421
862.434	0.0147160
862.512	0.0145811
862.590	0.0146439
862.668	0.0147210
862.746	0.0145805
862.825	0.0145669
862.903	0.0146984
862.981	0.0147291
863.059	0.0148724
863.137	0.0148064
863.215	0.0147272
863.293	0.0147805
863.371	0.0147245
863.450	0.0147483
863.528	0.0147406
863.606	0.0146875
863.684	0.0146450
863.762	0.0147568
863.840	0.0148497
863.918	0.0146239
863.996	0.0146139
864.075	0.0145699
864.153	0.0147347
864.231	0.0146031
864.309	0.0145347
864.387	0.0145861
864.465	0.0146562
864.543	0.0145514
864.621	0.0146654
864.700	0.0145007
864.778	0.0144792
864.856	0.0146513
864.934	0.0145624
865.012	0.0145343
865.090	0.0147380
865.168	0.0146570
865.246	0.0146774
865.325	0.0145477
865.403	0.0146471
865.481	0.0146868
865.559	0.0146893
865.637	0.0146709
865.715	0.0146344
865.793	0.0145716
865.871	0.0148999
865.950	0.0147913
866.028	0.0147319
866.106	0.0146552
866.184	0.0148090
866.262	0.0146999
866.340	0.0147446
866.418	0.0145274
866.496	0.0147361
866.575	0.0147855
866.653	0.0148402
866.731	0.0146107
866.809	0.0147002
866.887	0.0147256
866.965	0.0147478
867.043	0.0146255
867.121	0.0147254
867.200	0.0148067
867.278	0.0146897
867.356	0.0148740
867.434	0.0148853
867.512	0.0147179
867.590	0.0146942
867.668	0.0147575
867.746	0.0146894
867.825	0.0147308
867.903	0.0147713
867.981	0.0149235
868.059	0.0148396
868.137	0.0147000
868.215	0.0147410
868.293	0.0146781
868.371	0.0147886
868.450	0.0148028
868.528	0.0149189
868.606	0.0146693
868.684	0.0147269
868.762	0.0149769
868.840	0.0147733
868.918	0.0147522
868.996	0.0147856
869.075	0.0150047
869.153	0.0148457
869.231	0.0146750
869.309	0.0147373
869.387	0.0147378
869.465	0.0148448
869.543	0.0148180
869.621	0.0148261
869.700	0.0147495
869.778	0.0147925
869.856	0.0148730
869.934	0.0147774
870.012	0.0147625
870.090	0.0148707
870.168	0.0148530
870.246	0.0145770
870.325	0.0147705
870.403	0.0147832
870.481	0.0148474
870.559	0.0147340
870.637	0.0148198
870.715	0.0148573
870.793	0.0147569
870.871	0.0147105
870.950	0.0148383
871.028	0.0148474
871.106	0.0148459
871.184	0.0148358
871.262	0.0147717
871.340	0.0147580
871.418	0.0148087
871.496	0.0148775
871.575	0.0147678
871.653	0.0148898
871.731	0.0148740
871.809	0.0149352
871.887	0.0149153
871.965	0.0149199
872.043	0.0149080
872.121	0.0148841
872.200	0.0148653
872.278	0.0149188
872.356	0.0148201
872.434	0.0149326
872.512	0.0148123
872.590	0.0147280
872.668	0.0147027
872.746	0.0148046
872.825	0.0149132
872.903	0.0148056
872.981	0.0147971
873.059	0.0148634
873.137	0.0147766
873.215	0.0148799
873.293	0.0148215
873.371	0.0148148
873.450	0.0149001
873.528	0.0148081
873.606	0.0147763
873.684	0.0147941
873.762	0.0148746
873.840	0.0148834
873.918	0.0148475
873.996	0.0149377
874.075	0.0147480
874.153	0.0148911
874.231	0.0148451
874.309	0.0146938
874.387	0.0149300
874.465	0.0146513
874.543	0.0146470
874.621	0.0147948
874.700	0.0148179
874.778	0.0147608
874.856	0.0147405
874.934	0.0147716
875.012	0.0146951
875.090	0.0147539
875.168	0.0148534
875.246	0.0148024
875.325	0.0148301
875.403	0.0145406
875.481	0.0148087
875.559	0.0147410
875.637	0.0148463
875.715	0.0148698
875.793	0.0146813
875.871	0.0146759
875.950	0.0147554
876.028	0.0147428
876.106	0.0147972
876.184	0.0147223
876.262	0.0146710
876.340	0.0146017
876.418	0.0147966
876.496	0.0148448
876.575	0.0149097
876.653	0.0147968
876.731	0.0147926
876.809	0.0148826
876.887	0.0147441
876.965	0.0146985
877.043	0.0148476
877.121	0.0147975
877.200	0.0148367
877.278	0.0149206
877.356	0.0145919
877.434	0.0147305
877.512	0.0149045
877.590	0.0148098
877.668	0.0148483
877.746	0.0147627
877.825	0.0148146
877.903	0.0147644
877.981	0.0148595
878.059	0.0148074
878.137	0.0147718
878.215	0.0147496
878.293	0.0147575
878.371	0.0147482
878.450	0.0146966
878.528	0.0147115
878.606	0.0146819
878.684	0.0147708
878.762	0.0148205
878.840	0.0146202
878.918	0.0148177
878.996	0.0147617
879.075	0.0147182
879.153	0.0147108
879.231	0.0147916
879.309	0.0147632
879.387	0.0147860
879.465	0.0148347
879.543	0.0147419
879.621	0.0147539
879.700	0.0146339
879.778	0.0148582
879.856	0.0147810
879.934	0.0147767
880.012	0.0147092
880.090	0.0147934
880.168	0.0146907
880.246	0.0147346
880.325	0.0147857
880.403	0.0146790
880.481	0.0147095
880.559	0.0147602
880.637	0.0148012
880.715	0.0146752
880.793	0.0147510
880.871	0.0148007
880.950	0.0147839
881.028	0.0147179
881.106	0.0148447
881.184	0.0148586
881.262	0.0147659
881.340	0.0148630
881.418	0.0148831
881.496	0.0148567
881.575	0.0147617
881.653	0.0148151
881.731	0.0146958
881.809	0.0146794
881.887	0.0147157
881.965	0.0148709
882.043	0.0147758
882.121	0.0147262
882.200	0.0147476
882.278	0.0146386
882.356	0.0146080
882.434	0.0145460
882.512	0.0147760
882.590	0.0147820
882.668	0.0145648
882.746	0.0147073
882.825	0.0147931
882.903	0.0147916
882.981	0.0147656
883.059	0.0147282
883.137	0.0147861
883.215	0.0146947
883.293	0.0147637
883.371	0.0148668
883.450	0.0147008
883.528	0.0147964
883.606	0.0149092
883.684	0.0148101
883.762	0.0148645
883.840	0.0150027
883.918	0.0148576
883.996	0.0147463
884.075	0.0148768
884.153	0.0148253
884.231	0.0147453
884.309	0.0149182
884.387	0.0148273
884.465	0.0148519
884.543	0.0146995
884.621	0.0146607
884.700	0.0146553
884.778	0.0146415
884.856	0.0147469
884.934	0.0146790
885.012	0.0147610
885.090	0.0147758
885.168	0.0147006
885.246	0.0147557
885.325	0.0148104
885.403	0.0149200
885.481	0.0149115
885.559	0.0148520
885.637	0.0148692
885.715	0.0148136
885.793	0.0149042
885.871	0.0147924
885.950	0.0146338
886.028	0.0148407
886.106	0.0148089
886.184	0.0148049
886.262	0.0149577
886.340	0.0147097
886.418	0.0147620
886.496	0.0148442
886.575	0.0148702
886.653	0.0147063
886.731	0.0147053
886.809	0.0148104
886.887	0.0147113
886.965	0.0147477
887.043	0.0147755
887.121	0.0147073
887.200	0.0147810
887.278	0.0147538
887.356	0.0146587
887.434	0.0147769
887.512	0.0147225
887.590	0.0147984
887.668	0.0147184
887.746	0.0147080
887.825	0.0148023
887.903	0.0148383
887.981	0.0148319
888.059	0.0146354
888.137	0.0146921
888.215	0.0146801
888.293	0.0147153
888.371	0.0147411
888.450	0.0146662
888.528	0.0146896
888.606	0.0147270
888.684	0.0146115
888.762	0.0146494
888.840	0.0146638
888.918	0.0146841
888.996	0.0146159
889.075	0.0146354
889.153	0.0147067
889.231	0.0146738
889.309	0.0147496
889.387	0.0147054
889.465	0.0146988
889.543	0.0145467
889.621	0.0145503
889.700	0.0146434
889.778	0.0145660
889.856	0.0146024
889.934	0.0146603
890.012	0.0145376
890.090	0.0145503
890.168	0.0145989
890.246	0.0146129
890.325	0.0145700
890.403	0.0146864
890.481	0.0146209
890.559	0.0146673
890.637	0.0146261
890.715	0.0146273
890.793	0.0145848
890.871	0.0144527
890.950	0.0144272
891.028	0.0144601
891.106	0.0146181
891.184	0.0145890
891.262	0.0145068
891.340	0.0144582
891.418	0.0144997
891.496	0.0145889
891.575	0.0146398
891.653	0.0147429
891.731	0.0146460
891.809	0.0147126
891.887	0.0147380
891.965	0.0148396
892.043	0.0148313
892.121	0.0148302
892.200	0.0149065
892.278	0.0148038
892.356	0.0148158
892.434	0.0148428
892.512	0.0147926
892.590	0.0147813
892.668	0.0147031
892.746	0.0146380
892.825	0.0146944
892.903	0.0146381
892.981	0.0146222
893.059	0.0147346
893.137	0.0147412
893.215	0.0146283
893.293	0.0146976
893.371	0.0148734
893.450	0.0149677
893.528	0.0147739
893.606	0.0148807
893.684	0.0147767
893.762	0.0148842
893.840	0.0148292
893.918	0.0149128
893.996	0.0146497
894.075	0.0148090
894.153	0.0146736
894.231	0.0147054
894.309	0.0147139
894.387	0.0147650
894.465	0.0147224
894.543	0.0146710
894.621	0.0145623
894.700	0.0146022
894.778	0.0146257
894.856	0.0146635
894.934	0.0147378
895.012	0.0146661
895.090	0.0147238
895.168	0.0148338
895.246	0.0147143
895.325	0.0148425
895.403	0.0149076
895.481	0.0149105
895.559	0.0149451
895.637	0.0149190
895.715	0.0149946
895.793	0.0148644
895.871	0.0148921
895.950	0.0150124
896.028	0.0148949
896.106	0.0149369
896.184	0.0147840
896.262	0.0147109
896.340	0.0147179
896.418	0.0147068
896.496	0.0147596
896.575	0.0146272
896.653	0.0145479
896.731	0.0145641
896.809	0.0145024
896.887	0.0144299
896.965	0.0145994
897.043	0.0146957
897.121	0.0147601
897.200	0.0147375
897.278	0.0147269
897.356	0.0148357
897.434	0.0149628
897.512	0.0149529
897.590	0.0150882
897.668	0.0150275
897.746	0.0148930
897.825	0.0150417
897.903	0.0149888
897.981	0.0149397
898.059	0.0150372
898.137	0.0149239
898.215	0.0148563
898.293	0.0147599
898.371	0.0149342
898.450	0.0147649
898.528	0.0147948
898.606	0.0146188
898.684	0.0147519
898.762	0.0147263
898.840	0.0147203
898.918	0.0145835
898.996	0.0147678
899.075	0.0148159
899.153	0.0147390
899.231	0.0149490
899.309	0.0148421
899.387	0.0148473
899.465	0.0148798
899.543	0.0148278
899.621	0.0148061
899.700	0.0149789
899.778	0.0149889
899.856	0.0149660
899.934	0.0150324
900.012	0.0149455
900.090	0.0150300
900.168	0.0149740
900.246	0.0150419
900.325	0.0149346
900.403	0.0149674
900.481	0.0148466
900.559	0.0148814
900.637	0.0147180
900.715	0.0148114
900.793	0.0148492
900.871	0.0147331
900.950	0.0148621
901.028	0.0147027
901.106	0.0148514
901.184	0.0147972
901.262	0.0148839
901.340	0.0148882
901.418	0.0148243
901.496	0.0148217
901.575	0.0147446
901.653	0.0149695
901.731	0.0149947
901.809	0.0149546
901.887	0.0149355
901.965	0.0149352
902.043	0.0149535
902.121	0.0150278
902.200	0.0147865
902.278	0.0149149
902.356	0.0148681
902.434	0.0147386
902.512	0.0149117
902.590	0.0148270
902.668	0.0147467
902.746	0.0148308
902.825	0.0148705
902.903	0.0148092
902.981	0.0148959
903.059	0.0148051
903.137	0.0148544
903.215	0.0148611
903.293	0.0148439
903.371	0.0150129
903.450	0.0148208
903.528	0.0151301
903.606	0.0148409
903.684	0.0147441
903.762	0.0149289
903.840	0.0149527
903.918	0.0148518
903.996	0.0148077
904.075	0.0147893
904.153	0.0148226
904.231	0.0148817
904.309	0.0147620
904.387	0.0148121
904.465	0.0147086
904.543	0.0147286
904.621	0.0148020
904.700	0.0147025
904.778	0.0148563
904.856	0.0148411
904.934	0.0147379
905.012	0.0147924
905.090	0.0148810
905.168	0.0147734
905.246	0.0148816
905.325	0.0148477
905.403	0.0147133
905.481	0.0148483
905.559	0.0147285
905.637	0.0147941
905.715	0.0147367
905.793	0.0148382
905.871	0.0147274
905.950	0.0147015
906.028	0.0147773
906.106	0.0146578
906.184	0.0149346
906.262	0.0147901
906.340	0.0147674
906.418	0.0146603
906.496	0.0146803
906.575	0.0146519
906.653	0.0146369
906.731	0.0146225
906.809	0.0148714
906.887	0.0146127
906.965	0.0147932
907.043	0.0149062
907.121	0.0148885
907.200	0.0148690
907.278	0.0147806
907.356	0.0147265
907.434	0.0149345
907.512	0.0148584
907.590	0.0146996
907.668	0.0147706
907.746	0.0147369
907.825	0.0146588
907.903	0.0147826
907.981	0.0146328
908.059	0.0146499
908.137	0.0147179
908.215	0.0147207
908.293	0.0147437
908.371	0.0147403
908.450	0.0147733
908.528	0.0146492
908.606	0.0147824
908.684	0.0147086
908.762	0.0147379
908.840	0.0147559
908.918	0.0146246
908.996	0.0146163
909.075	0.0146835
909.153	0.0146470
909.231	0.0147630
909.309	0.0147511
909.387	0.0147402
909.465	0.0147221
909.543	0.0146811
909.621	0.0147714
909.700	0.0147926
909.778	0.0147796
909.856	0.0147233
909.934	0.0147979
910.012	0.0148385
910.090	0.0149021
910.168	0.0146703
910.246	0.0148375
910.325	0.0149301
910.403	0.0147581
910.481	0.0147751
910.559	0.0147894
910.637	0.0146043
910.715	0.0147226
910.793	0.0147688
910.871	0.0148005
910.950	0.0146069
911.028	0.0146980
911.106	0.0147495
911.184	0.0147050
911.262	0.0146789
911.340	0.0146762
911.418	0.0148157
911.496	0.0147002
911.575	0.0146973
911.653	0.0147678
911.731	0.0147666
911.809	0.0147443
911.887	0.0147433
911.965	0.0148579
912.043	0.0147471
912.121	0.0147964
912.200	0.0146442
912.278	0.0147507
912.356	0.0148220
912.434	0.0147948
912.512	0.0147733
912.590	0.0146622
912.668	0.0146473
912.746	0.0147415
912.825	0.0145795
912.903	0.0145831
912.981	0.0146486
913.059	0.0147511
913.137	0.0145843
913.215	0.0146087
913.293	0.0146151
913.371	0.0145844
913.450	0.0145682
913.528	0.0144317
913.606	0.0146082
913.684	0.0146620
913.762	0.0146440
913.840	0.0146203
913.918	0.0146362
913.996	0.0145037
914.075	0.0146432
914.153	0.0148812
914.231	0.0147195
914.309	0.0147198
914.387	0.0147694
914.465	0.0147375
914.543	0.0149322
914.621	0.0148566
914.700	0.0146974
914.778	0.0147572
914.856	0.0147700
914.934	0.0147644
915.012	0.0148755
915.090	0.0146867
915.168	0.0147556
915.246	0.0148485
915.325	0.0146424
915.403	0.0147083
915.481	0.0147443
915.559	0.0144681
915.637	0.0146723
915.715	0.0145599
915.793	0.0145932
915.871	0.0146084
915.950	0.0146494
916.028	0.0146214
916.106	0.0146814
916.184	0.0145953
916.262	0.0147163
916.340	0.0148812
916.418	0.0146681
916.496	0.0148331
916.575	0.0147540
916.653	0.0148381
916.731	0.0147334
916.809	0.0147878
916.887	0.0148035
916.965	0.0146162
917.043	0.0148283
917.121	0.0149459
917.200	0.0148560
917.278	0.0146735
917.356	0.0148896
917.434	0.0148052
917.512	0.0147559
917.590	0.0147154
917.668	0.0145612
917.746	0.0147601
917.825	0.0146942
917.903	0.0147672
917.981	0.0147396
918.059	0.0148277
918.137	0.0147515
918.215	0.0147202
918.293	0.0147012
918.371	0.0147249
918.450	0.0148905
918.528	0.0147615
918.606	0.0148798
918.684	0.0147688
918.762	0.0147755
918.840	0.0147815
918.918	0.0147768
918.996	0.0147543
919.075	0.0148554
919.153	0.0148925
919.231	0.0148214
919.309	0.0149925
919.387	0.0148238
919.465	0.0148831
919.543	0.0149758
919.621	0.0148860
919.700	0.0148076
919.778	0.0149251
919.856	0.0147913
919.934	0.0147736
920.012	0.0148724
920.090	0.0147580
920.168	0.0147926
920.246	0.0148654
920.325	0.0150253
920.403	0.0148534
920.481	0.0147517
920.559	0.0148238
920.637	0.0147774
920.715	0.0149774
920.793	0.0147975
920.871	0.0147662
920.950	0.0147071
921.028	0.0147102
921.106	0.0147547
921.184	0.0148138
921.262	0.0147248
921.340	0.0147678
921.418	0.0147717
921.496	0.0147805
921.575	0.0146916
921.653	0.0148591
921.731	0.0148416
921.809	0.0149378
921.887	0.0149030
921.965	0.0147644
922.043	0.0147919
922.121	0.0148739
922.200	0.0147872
922.278	0.0148108
922.356	0.0147871
922.434	0.0147955
922.512	0.0147699
922.590	0.0147217
922.668	0.0147551
922.746	0.0147719
922.825	0.0147723
922.903	0.0146696
922.981	0.0147526
923.059	0.0147688
923.137	0.0149339
923.215	0.0148901
923.293	0.0149662
923.371	0.0148325
923.450	0.0148830
923.528	0.0148720
923.606	0.0148518
923.684	0.0147091
923.762	0.0150166
923.840	0.0150367
923.918	0.0149048
923.996	0.0148463
924.075	0.0148694
924.153	0.0148747
924.231	0.0148054
924.309	0.0147768
924.387	0.0149787
924.465	0.0148479
924.543	0.0147933
924.621	0.0147654
924.700	0.0146943
924.778	0.0146713
924.856	0.0148450
924.934	0.0146504
925.012	0.0147118
925.090	0.0146664
925.168	0.0147091
925.246	0.0147546
925.325	0.0146954
925.403	0.0146619
925.481	0.0147036
925.559	0.0147422
925.637	0.0146115
925.715	0.0147636
925.793	0.0148274
925.871	0.0147511
925.950	0.0149126
926.028	0.0147785
926.106	0.0147874
926.184	0.0148161
926.262	0.0148676
926.340	0.0148252
926.418	0.0147697
926.496	0.0149538
926.575	0.0147520
926.653	0.0149429
926.731	0.0147813
926.809	0.0148691
926.887	0.0147546
926.965	0.0145775
927.043	0.0147160
927.121	0.0149626
927.200	0.0148443
927.278	0.0147047
927.356	0.0147717
927.434	0.0147038
927.512	0.0146001
927.590	0.0148225
927.668	0.0148753
927.746	0.0147277
927.825	0.0147385
927.903	0.0148584
927.981	0.0147561
928.059	0.0147198
928.137	0.0148381
928.215	0.0147717
928.293	0.0147815
928.371	0.0147719
928.450	0.0147011
928.528	0.0148792
928.606	0.0150227
928.684	0.0147907
928.762	0.0147899
928.840	0.0147149
928.918	0.0147922
928.996	0.0148566
929.075	0.0147401
929.153	0.0148089
929.231	0.0147084
929.309	0.0148508
929.387	0.0147105
929.465	0.0147410
929.543	0.0147325
929.621	0.0146844
929.700	0.0148528
929.778	0.0148520
929.856	0.0147079
929.934	0.0147891
930.012	0.0147488
930.090	0.0147329
930.168	0.0148334
930.246	0.0147199
930.325	0.0148595
930.403	0.0147787
930.481	0.0148806
930.559	0.0147490
930.637	0.0147974
930.715	0.0148487
930.793	0.0148825
930.871	0.0149239
930.950	0.0147442
931.028	0.0148064
931.106	0.0148347
931.184	0.0147364
931.262	0.0149505
931.340	0.0148731
931.418	0.0149009
931.496	0.0148213
931.575	0.0147818
931.653	0.0147400
931.731	0.0148952
931.809	0.0148564
931.887	0.0149029
931.965	0.0147569
932.043	0.0147204
932.121	0.0147891
932.200	0.0148579
932.278	0.0149524
932.356	0.0146949
932.434	0.0146988
932.512	0.0147805
932.590	0.0147185
932.668	0.0148819
932.746	0.0147877
932.825	0.0147947
932.903	0.0147220
932.981	0.0147750
933.059	0.0147946
933.137	0.0147875
933.215	0.0149393
933.293	0.0147912
933.371	0.0148359
933.450	0.0149115
933.528	0.0148732
933.606	0.0148492
933.684	0.0146995
933.762	0.0148270
933.840	0.0145779
933.918	0.0148380
933.996	0.0148108
934.075	0.0146446
934.153	0.0147545
934.231	0.0146355
934.309	0.0147461
934.387	0.0147395
934.465	0.0146815
934.543	0.0146344
934.621	0.0146354
934.700	0.0147597
934.778	0.0146394
934.856	0.0146306
934.934	0.0147781
935.012	0.0147977
935.090	0.0148258
935.168	0.0147431
935.246	0.0147431
935.325	0.0147690
935.403	0.0148202
935.481	0.0148650
935.559	0.0148965
935.637	0.0147858
935.715	0.0148165
935.793	0.0148318
935.871	0.0148341
935.950	0.0146367
936.028	0.0147524
936.106	0.0148895
936.184	0.0147882
936.262	0.0148002
936.340	0.0146684
936.418	0.0146004
936.496	0.0147327
936.575	0.0146487
936.653	0.0146539
936.731	0.0147299
936.809	0.0146519
936.887	0.0146346
936.965	0.0146883
937.043	0.0147614
937.121	0.0147466
937.200	0.0147770
937.278	0.0146545
937.356	0.0147344
937.434	0.0148051
937.512	0.0147070
937.590	0.0147726
937.668	0.0147804
937.746	0.0147604
937.825	0.0147495
937.903	0.0148420
937.981	0.0146767
938.059	0.0147858
938.137	0.0148209
938.215	0.0147131
938.293	0.0146735
938.371	0.0149458
938.450	0.0146821
938.528	0.0147008
938.606	0.0146924
938.684	0.0145852
938.762	0.0147621
938.840	0.0147061
938.918	0.0147321
938.996	0.0147500
939.075	0.0146120
939.153	0.0146243
939.231	0.0145272
939.309	0.0147627
939.387	0.0146569
939.465	0.0146711
939.543	0.0146461
939.621	0.0148209
939.700	0.0148153
939.778	0.0146593
939.856	0.0147298
939.934	0.0147980
940.012	0.0148315
940.090	0.0147865
940.168	0.0148058
940.246	0.0149104
940.325	0.0148135
940.403	0.0148666
940.481	0.0148416
940.559	0.0147719
940.637	0.0148200
940.715	0.0148695
940.793	0.0147520
940.871	0.0147707
940.950	0.0146658
941.028	0.0148283
941.106	0.0148967
941.184	0.0148827
941.262	0.0148399
941.340	0.0149287
941.418	0.0147556
941.496	0.0147510
941.575	0.0146714
941.653	0.0147592
941.731	0.0147802
941.809	0.0147381
941.887	0.0147005
941.965	0.0147570
942.043	0.0147787
942.121	0.0148122
942.200	0.0147754
942.278	0.0147238
942.356	0.0147971
942.434	0.0147618
942.512	0.0147910
942.590	0.0147501
942.668	0.0148742
942.746	0.0149279
942.825	0.0147364
942.903	0.0147941
942.981	0.0149190
943.059	0.0148190
943.137	0.0147298
943.215	0.0148782
943.293	0.0147112
943.371	0.0147945
943.450	0.0147514
943.528	0.0149220
943.606	0.0148958
943.684	0.0146763
943.762	0.0147468
943.840	0.0148794
943.918	0.0146691
943.996	0.0147191
944.075	0.0146534
944.153	0.0147256
944.231	0.0146870
944.309	0.0146059
944.387	0.0147102
944.465	0.0147072
944.543	0.0146673
944.621	0.0146684
944.700	0.0148248
944.778	0.0146725
944.856	0.0147077
944.934	0.0147928
945.012	0.0146224
945.090	0.0146884
945.168	0.0148154
945.246	0.0148048
945.325	0.0146722
945.403	0.0147630
945.481	0.0147517
945.559	0.0149075
945.637	0.0147757
945.715	0.0147834
945.793	0.0149937
945.871	0.0149217
945.950	0.0148315
946.028	0.0149281
946.106	0.0146761
946.184	0.0146666
946.262	0.0147705
946.340	0.0147564
946.418	0.0146857
946.496	0.0146114
946.575	0.0146854
946.653	0.0147213
946.731	0.0147690
946.809	0.0148560
946.887	0.0148153
946.965	0.0146760
947.043	0.0145792
947.121	0.0146081
947.200	0.0148191
947.278	0.0148555
947.356	0.0148597
947.434	0.0147816
947.512	0.0146889
947.590	0.0146741
947.668	0.0147559
947.746	0.0146860
947.825	0.0147205
947.903	0.0149255
947.981	0.0148974
948.059	0.0148758
948.137	0.0147044
948.215	0.0148705
948.293	0.0147956
948.371	0.0147310
948.450	0.0149310
948.528	0.0148630
948.606	0.0147556
948.684	0.0148833
948.762	0.0148721
948.840	0.0149104
948.918	0.0146153
948.996	0.0147866
949.075	0.0146372
949.153	0.0148542
949.231	0.0148805
949.309	0.0148583
949.387	0.0147262
949.465	0.0147116
949.543	0.0146993
949.621	0.0146235
949.700	0.0147621
949.778	0.0147129
949.856	0.0147522
949.934	0.0147015
950.012	0.0145110
950.090	0.0146921
950.168	0.0148572
950.246	0.0146227
950.325	0.0146551
950.403	0.0148694
950.481	0.0147302
950.559	0.0146825
950.637	0.0146461
950.715	0.0146561
950.793	0.0147765
950.871	0.0146793
950.950	0.0146522
951.028	0.0146951
951.106	0.0147386
951.184	0.0148045
951.262	0.0148211
951.340	0.0147315
951.418	0.0147791
951.496	0.0148581
951.575	0.0147801
951.653	0.0146390
951.731	0.0147784
951.809	0.0147844
951.887	0.0146811
951.965	0.0147773
952.043	0.0148274
952.121	0.0146750
952.200	0.0147382
952.278	0.0146094
952.356	0.0147464
952.434	0.0145649
952.512	0.0146243
952.590	0.0147352
952.668	0.0146295
952.746	0.0145688
952.825	0.0145724
952.903	0.0146933
952.981	0.0147080
953.059	0.0146486
953.137	0.0146958
953.215	0.0147540
953.293	0.0149073
953.371	0.0148376
953.450	0.0147799
953.528	0.0148405
953.606	0.0149263
953.684	0.0147920
953.762	0.0148711
953.840	0.0147923
953.918	0.0147779
953.996	0.0149133
954.075	0.0147560
954.153	0.0147017
954.231	0.0148071
954.309	0.0147298
954.387	0.0147112
954.465	0.0148074
954.543	0.0147672
954.621	0.0147958
954.700	0.0148177
954.778	0.0146730
954.856	0.0146474
954.934	0.0149232
955.012	0.0148577
955.090	0.0147783
955.168	0.0149214
955.246	0.0148588
955.325	0.0148370
955.403	0.0148556
955.481	0.0149092
955.559	0.0148365
955.637	0.0147943
955.715	0.0147804
955.793	0.0148531
955.871	0.0148588
955.950	0.0148306
956.028	0.0148539
956.106	0.0146933
956.184	0.0148949
956.262	0.0148049
956.340	0.0147002
956.418	0.0147715
956.496	0.0149384
956.575	0.0148013
956.653	0.0146993
956.731	0.0148732
956.809	0.0147165
956.887	0.0148430
956.965	0.0147182
957.043	0.0147951
957.121	0.0149091
957.200	0.0147967
957.278	0.0149033
957.356	0.0149575
957.434	0.0147219
957.512	0.0148959
957.590	0.0148484
957.668	0.0148974
957.746	0.0148030
957.825	0.0146557
957.903	0.0147220
957.981	0.0147472
958.059	0.0148135
958.137	0.0147940
958.215	0.0148365
958.293	0.0148289
958.371	0.0146674
958.450	0.0146936
958.528	0.0147633
958.606	0.0147969
958.684	0.0146528
958.762	0.0147472
958.840	0.0147714
958.918	0.0147993
958.996	0.0148059
959.075	0.0148319
959.153	0.0147806
959.231	0.0147668
959.309	0.0147623
959.387	0.0147939
959.465	0.0147730
959.543	0.0147826
959.621	0.0147028
959.700	0.0148116
959.778	0.0147681
959.856	0.0147668
959.934	0.0148367
960.012	0.0148597
960.090	0.0146938
960.168	0.0147939
960.246	0.0147629
960.325	0.0146754
960.403	0.0147175
960.481	0.0147314
960.559	0.0146469
960.637	0.0146553
960.715	0.0148237
960.793	0.0147178
960.871	0.0144414
960.950	0.0146506
961.028	0.0146934
961.106	0.0146922
961.184	0.0145714
961.262	0.0146983
961.340	0.0147649
961.418	0.0148188
961.496	0.0147144
961.575	0.0147968
961.653	0.0148329
961.731	0.0146941
961.809	0.0147501
961.887	0.0146907
961.965	0.0146790
962.043	0.0148573
962.121	0.0147072
962.200	0.0148730
962.278	0.0147810
962.356	0.0146596
962.434	0.0148042
962.512	0.0147248
962.590	0.0147502
962.668	0.0149620
962.746	0.0149345
962.825	0.0147416
962.903	0.0147304
962.981	0.0146690
963.059	0.0147782
963.137	0.0149272
963.215	0.0146542
963.293	0.0145660
963.371	0.0147188
963.450	0.0148366
963.528	0.0147410
963.606	0.0147152
963.684	0.0147319
963.762	0.0147663
963.840	0.0148878
963.918	0.0147610
963.996	0.0147803
964.075	0.0147475
964.153	0.0148099
964.231	0.0147984
964.309	0.0149255
964.387	0.0149772
964.465	0.0148464
964.543	0.0148466
964.621	0.0149458
964.700	0.0147528
964.778	0.0148342
964.856	0.0147713
964.934	0.0149466
965.012	0.0147988
965.090	0.0148351
965.168	0.0148727
965.246	0.0148470
965.325	0.0148887
965.403	0.0148046
965.481	0.0146426
965.559	0.0148112
965.637	0.0147511
965.715	0.0147972
965.793	0.0147416
965.871	0.0148145
965.950	0.0146320
966.028	0.0147467
966.106	0.0147738
966.184	0.0146695
966.262	0.0147977
966.340	0.0147923
966.418	0.0148631
966.496	0.0146928
966.575	0.0147312
966.653	0.0148862
966.731	0.0148424
966.809	0.0147291
966.887	0.0148014
966.965	0.0148659
967.043	0.0147958
967.121	0.0147360
967.200	0.0146139
967.278	0.0147244
967.356	0.0146377
967.434	0.0147238
967.512	0.0147633
967.590	0.0144823
967.668	0.0146846
967.746	0.0147186
967.825	0.0146186
967.903	0.0145966
967.981	0.0146185
968.059	0.0147101
968.137	0.0146396
968.215	0.0146504
968.293	0.0145705
968.371	0.0145448
968.450	0.0145345
968.528	0.0146216
968.606	0.0148183
968.684	0.0146281
968.762	0.0145930
968.840	0.0147008
968.918	0.0147626
968.996	0.0147216
969.075	0.0146911
969.153	0.0146422
969.231	0.0146579
969.309	0.0146735
969.387	0.0147322
969.465	0.0147807
969.543	0.0147284
969.621	0.0147305
969.700	0.0147785
969.778	0.0146889
969.856	0.0146623
969.934	0.0146729
970.012	0.0147557
970.090	0.0147305
970.168	0.0146841
970.246	0.0147334
970.325	0.0147084
970.403	0.0147242
970.481	0.0147038
970.559	0.0148477
970.637	0.0148284
970.715	0.0148174
970.793	0.0147246
970.871	0.0147057
970.950	0.0146709
971.028	0.0146680
971.106	0.0148352
971.184	0.0146856
971.262	0.0145509
971.340	0.0146825
971.418	0.0146745
971.496	0.0147008
971.575	0.0148260
971.653	0.0147741
971.731	0.0146868
971.809	0.0148276
971.887	0.0148599
971.965	0.0148125
972.043	0.0148013
972.121	0.0147987
972.200	0.0149260
972.278	0.0149669
972.356	0.0149261
972.434	0.0149134
972.512	0.0148911
972.590	0.0149216
972.668	0.0147737
972.746	0.0148902
972.825	0.0148711
972.903	0.0149006
972.981	0.0148559
973.059	0.0148532
973.137	0.0148122
973.215	0.0147822
973.293	0.0147611
973.371	0.0147556
973.450	0.0148195
973.528	0.0147240
973.606	0.0148941
973.684	0.0148923
973.762	0.0147076
973.840	0.0147079
973.918	0.0148596
973.996	0.0149534
974.075	0.0148927
974.153	0.0148977
974.231	0.0148714
974.309	0.0148135
974.387	0.0148822
974.465	0.0150041
974.543	0.0149365
974.621	0.0148159
974.700	0.0149195
974.778	0.0146857
974.856	0.0148093
974.934	0.0149464
975.012	0.0148566
975.090	0.0148288
975.168	0.0148083
975.246	0.0149193
975.325	0.0147762
975.403	0.0147684
975.481	0.0146713
975.559	0.0147493
975.637	0.0149350
975.715	0.0147043
975.793	0.0147215
975.871	0.0148151
975.950	0.0148012
976.028	0.0147576
976.106	0.0148049
976.184	0.0147898
976.262	0.0148921
976.340	0.0147144
976.418	0.0148856
976.496	0.0147093
976.575	0.0148746
976.653	0.0148265
976.731	0.0146928
976.809	0.0146543
976.887	0.0146641
976.965	0.0146574
977.043	0.0146604
977.121	0.0146368
977.200	0.0146500
977.278	0.0146137
977.356	0.0146619
977.434	0.0145760
977.512	0.0145420
977.590	0.0146381
977.668	0.0147923
977.746	0.0147596
977.825	0.0147558
977.903	0.0145952
977.981	0.0148414
978.059	0.0148555
978.137	0.0146886
978.215	0.0147890
978.293	0.0148087
978.371	0.0147408
978.450	0.0148187
978.528	0.0147837
978.606	0.0147543
978.684	0.0149737
978.762	0.0146908
978.840	0.0146899
978.918	0.0146465
978.996	0.0147372
979.075	0.0146410
979.153	0.0147605
979.231	0.0147301
979.309	0.0147912
979.387	0.0145046
979.465	0.0146000
979.543	0.0148501
979.621	0.0149193
979.700	0.0146886
979.778	0.0146965
979.856	0.0145483
979.934	0.0147892
980.012	0.0147762
980.090	0.0147958
980.168	0.0147617
980.246	0.0147723
980.325	0.0148135
980.403	0.0147987
980.481	0.0149497
980.559	0.0148220
980.637	0.0147321
980.715	0.0149450
980.793	0.0148999
980.871	0.0149776
980.950	0.0148923
981.028	0.0147987
981.106	0.0148052
981.184	0.0149081
981.262	0.0148912
981.340	0.0148555
981.418	0.0147205
981.496	0.0148322
981.575	0.0148354
981.653	0.0147592
981.731	0.0148646
981.809	0.0147652
981.887	0.0148209
981.965	0.0147140
982.043	0.0148072
982.121	0.0147475
982.200	0.0148408
982.278	0.0147750
982.356	0.0147604
982.434	0.0148328
982.512	0.0147565
982.590	0.0149718
982.668	0.0147621
982.746	0.0148686
982.825	0.0147672
982.903	0.0147791
982.981	0.0147942
983.059	0.0149054
983.137	0.0148366
983.215	0.0147762
983.293	0.0148838
983.371	0.0148925
983.450	0.0148737
983.528	0.0148923
983.606	0.0147610
983.684	0.0148865
983.762	0.0148905
983.840	0.0149066
983.918	0.0148489
983.996	0.0148109
984.075	0.0149516
984.153	0.0148070
984.231	0.0147200
984.309	0.0148208
984.387	0.0150003
984.465	0.0146832
984.543	0.0147269
984.621	0.0149098
984.700	0.0148110
984.778	0.0147639
984.856	0.0147585
984.934	0.0147367
985.012	0.0148436
985.090	0.0147591
985.168	0.0147028
985.246	0.0147765
985.325	0.0147287
985.403	0.0146709
985.481	0.0146423
985.559	0.0146948
985.637	0.0147118
985.715	0.0148014
985.793	0.0147358
985.871	0.0146765
985.950	0.0147673
986.028	0.0147589
986.106	0.0146733
986.184	0.0146909
986.262	0.0146896
986.340	0.0147199
986.418	0.0148045
986.496	0.0148331
986.575	0.0147912
986.653	0.0147232
986.731	0.0147714
986.809	0.0148262
986.887	0.0147972
986.965	0.0147220
987.043	0.0148267
987.121	0.0147611
987.200	0.0148259
987.278	0.0147746
987.356	0.0146919
987.434	0.0147071
987.512	0.0146930
987.590	0.0148132
987.668	0.0148101
987.746	0.0146188
987.825	0.0149133
987.903	0.0148457
987.981	0.0147111
988.059	0.0149485
988.137	0.0147468
988.215	0.0146869
988.293	0.0147679
988.371	0.0147358
988.450	0.0147520
988.528	0.0147119
988.606	0.0146973
988.684	0.0146122
988.762	0.0146942
988.840	0.0146059
988.918	0.0147032
988.996	0.0147653
989.075	0.0147483
989.153	0.0145635
989.231	0.0146056
989.309	0.0147068
989.387	0.0147658
989.465	0.0147457
989.543	0.0146075
989.621	0.0147218
989.700	0.0147374
989.778	0.0146629
989.856	0.0148524
989.934	0.0146535
990.012	0.0149168
990.090	0.0147493
990.168	0.0147070
990.246	0.0148095
990.325	0.0147802
990.403	0.0149037
990.481	0.0146738
990.559	0.0146552
990.637	0.0148127
990.715	0.0147417
990.793	0.0147040
990.871	0.0147815
990.950	0.0147969
991.028	0.0146514
991.106	0.0148222
991.184	0.0147199
991.262	0.0146339
991.340	0.0146571
991.418	0.0146367
991.496	0.0146790
991.575	0.0146739
991.653	0.0146161
991.731	0.0146218
991.809	0.0146828
991.887	0.0146456
991.965	0.0145628
992.043	0.0145954
992.121	0.0148626
992.200	0.0145662
992.278	0.0145335
992.356	0.0146457
992.434	0.0146677
992.512	0.0146813
992.590	0.0147952
992.668	0.0146788
992.746	0.0146381
992.825	0.0146436
992.903	0.0146814
992.981	0.0145881
993.059	0.0146542
993.137	0.0147777
993.215	0.0146690
993.293	0.0148010
993.371	0.0146881
993.450	0.0146332
993.528	0.0146758
993.606	0.0147600
993.684	0.0146935
993.762	0.0146879
993.840	0.0147928
993.918	0.0147882
993.996	0.0147595
994.075	0.0147771
994.153	0.0146316
994.231	0.0147175
994.309	0.0146461
994.387	0.0146486
994.465	0.0147824
994.543	0.0147622
994.621	0.0147148
994.700	0.0146223
994.778	0.0147378
994.856	0.0148717
994.934	0.0147832
995.012	0.0147634
995.090	0.0147123
995.168	0.0148052
995.246	0.0147769
995.325	0.0147289
995.403	0.0147657
995.481	0.0147440
995.559	0.0147309
995.637	0.0148772
995.715	0.0148057
995.793	0.0147691
995.871	0.0146492
995.950	0.0148451
996.028	0.0147970
996.106	0.0147104
996.184	0.0148468
996.262	0.0147535
996.340	0.0147001
996.418	0.0146957
996.496	0.0147149
996.575	0.0147170
996.653	0.0147811
996.731	0.0147720
996.809	0.0147836
996.887	0.0147887
996.965	0.0148093
997.043	0.0149358
997.121	0.0146708
997.200	0.0148215
997.278	0.0148649
997.356	0.0148013
997.434	0.0148266
997.512	0.0149258
997.590	0.0148219
997.668	0.0149667
997.746	0.0149400
997.825	0.0147590
997.903	0.0147227
997.981	0.0148502
998.059	0.0148492
998.137	0.0147646
998.215	0.0148794
998.293	0.0148915
998.371	0.0147224
998.450	0.0147469
998.528	0.0148418
998.606	0.0148357
998.684	0.0148000
998.762	0.0147543
998.840	0.0147525
998.918	0.0148772
