05/04/2022	21:22:53	Ver.	4.1	UNKNOWN
Optical Delay	678.996401	Delta X		0.078125	Sweeps	1	Scan Rate	0/0
Coordinates	Axis 1	NaN	Axis 2	NaN	Axis 3	NaN	Axis 4	NaN	Axis 5	NaN	Axis 6	0.000000
TX Power	0.000000	RX Power	0.000000

678.996	0.0143774
679.075	0.0143256
679.153	0.0144003
679.231	0.0143728
679.309	0.0143905
679.387	0.0144712
679.465	0.0145355
679.543	0.0145611
679.621	0.0144523
679.700	0.0145261
679.778	0.0144672
679.856	0.0145184
679.934	0.0145506
680.012	0.0144373
680.090	0.0143673
680.168	0.0145835
680.246	0.0144775
680.325	0.0143989
680.403	0.0143376
680.481	0.0144080
680.559	0.0142362
680.637	0.0142563
680.715	0.0143291
680.793	0.0143021
680.871	0.0141683
680.950	0.0142070
681.028	0.0142249
681.106	0.0142616
681.184	0.0142791
681.262	0.0142866
681.340	0.0142182
681.418	0.0142104
681.496	0.0142194
681.575	0.0142661
681.653	0.0142480
681.731	0.0143248
681.809	0.0143000
681.887	0.0143510
681.965	0.0143663
682.043	0.0142886
682.121	0.0144296
682.200	0.0144384
682.278	0.0144027
682.356	0.0145376
682.434	0.0145063
682.512	0.0144315
682.590	0.0144329
682.668	0.0143801
682.746	0.0144622
682.825	0.0143066
682.903	0.0144936
682.981	0.0142425
683.059	0.0141987
683.137	0.0144031
683.215	0.0143311
683.293	0.0140611
683.371	0.0142250
683.450	0.0142862
683.528	0.0142916
683.606	0.0142803
683.684	0.0141443
683.762	0.0142088
683.840	0.0143248
683.918	0.0143222
683.996	0.0142738
684.075	0.0144583
684.153	0.0143893
684.231	0.0144817
684.309	0.0143343
684.387	0.0144212
684.465	0.0144386
684.543	0.0145790
684.621	0.0144482
684.700	0.0146194
684.778	0.0144947
684.856	0.0142919
684.934	0.0143889
685.012	0.0145410
685.090	0.0144688
685.168	0.0143659
685.246	0.0142963
685.325	0.0143084
685.403	0.0144082
685.481	0.0142384
685.559	0.0142438
685.637	0.0142756
685.715	0.0143858
685.793	0.0142274
685.871	0.0143175
685.950	0.0142397
686.028	0.0144418
686.106	0.0142946
686.184	0.0142641
686.262	0.0143803
686.340	0.0144485
686.418	0.0143469
686.496	0.0143793
686.575	0.0144088
686.653	0.0143996
686.731	0.0145609
686.809	0.0143544
686.887	0.0143772
686.965	0.0144460
687.043	0.0143938
687.121	0.0143788
687.200	0.0143554
687.278	0.0143198
687.356	0.0144177
687.434	0.0145498
687.512	0.0142968
687.590	0.0143354
687.668	0.0143884
687.746	0.0144253
687.825	0.0143712
687.903	0.0141846
687.981	0.0142134
688.059	0.0142941
688.137	0.0142979
688.215	0.0142695
688.293	0.0142474
688.371	0.0142570
688.450	0.0142273
688.528	0.0143106
688.606	0.0144250
688.684	0.0144710
688.762	0.0143696
688.840	0.0144537
688.918	0.0145354
688.996	0.0145161
689.075	0.0145145
689.153	0.0143903
689.231	0.0145084
689.309	0.0145692
689.387	0.0145570
689.465	0.0146176
689.543	0.0145891
689.621	0.0146041
689.700	0.0144482
689.778	0.0145984
689.856	0.0144859
689.934	0.0144092
690.012	0.0145722
690.090	0.0145217
690.168	0.0144926
690.246	0.0146041
690.325	0.0145877
690.403	0.0145106
690.481	0.0145504
690.559	0.0146081
690.637	0.0144511
690.715	0.0144379
690.793	0.0143228
690.871	0.0144924
690.950	0.0144512
691.028	0.0143295
691.106	0.0142144
691.184	0.0144170
691.262	0.0144045
691.340	0.0144163
691.418	0.0144624
691.496	0.0145744
691.575	0.0145821
691.653	0.0145578
691.731	0.0145808
691.809	0.0147755
691.887	0.0147597
691.965	0.0147217
692.043	0.0148320
692.121	0.0146661
692.200	0.0147299
692.278	0.0147357
692.356	0.0146856
692.434	0.0145929
692.512	0.0144347
692.590	0.0142454
692.668	0.0141042
692.746	0.0140947
692.825	0.0141708
692.903	0.0140443
692.981	0.0140667
693.059	0.0142448
693.137	0.0143449
693.215	0.0144329
693.293	0.0146593
693.371	0.0145054
693.450	0.0146564
693.528	0.0147131
693.606	0.0146333
693.684	0.0147466
693.762	0.0148655
693.840	0.0149181
693.918	0.0147530
693.996	0.0145791
694.075	0.0145906
694.153	0.0144453
694.231	0.0144917
694.309	0.0141612
694.387	0.0140466
694.465	0.0140686
694.543	0.0140590
694.621	0.0138846
694.700	0.0139613
694.778	0.0139639
694.856	0.0139590
694.934	0.0141666
695.012	0.0143274
695.090	0.0144152
695.168	0.0143974
695.246	0.0146787
695.325	0.0147316
695.403	0.0147816
695.481	0.0147615
695.559	0.0148366
695.637	0.0149363
695.715	0.0148256
695.793	0.0146374
695.871	0.0147526
695.950	0.0145348
696.028	0.0144317
696.106	0.0143581
696.184	0.0142513
696.262	0.0141491
696.340	0.0139277
696.418	0.0140252
696.496	0.0139594
696.575	0.0138886
696.653	0.0141187
696.731	0.0140929
696.809	0.0140972
696.887	0.0144128
696.965	0.0145225
697.043	0.0145881
697.121	0.0147074
697.200	0.0147459
697.278	0.0148257
697.356	0.0147032
697.434	0.0145408
697.512	0.0144736
697.590	0.0143869
697.668	0.0142622
697.746	0.0141531
697.825	0.0140506
697.903	0.0140140
697.981	0.0142470
698.059	0.0141190
698.137	0.0141653
698.215	0.0142398
698.293	0.0143637
698.371	0.0146497
698.450	0.0147552
698.528	0.0147015
698.606	0.0148062
698.684	0.0148268
698.762	0.0149310
698.840	0.0148190
698.918	0.0146066
698.996	0.0145878
699.075	0.0144270
699.153	0.0142494
699.231	0.0141360
699.309	0.0140049
699.387	0.0139172
699.465	0.0138737
699.543	0.0138504
699.621	0.0140073
699.700	0.0141010
699.778	0.0141927
699.856	0.0145092
699.934	0.0145359
700.012	0.0147979
700.090	0.0149563
700.168	0.0149818
700.246	0.0150503
700.325	0.0147617
700.403	0.0147499
700.481	0.0146497
700.559	0.0143557
700.637	0.0140283
700.715	0.0139072
700.793	0.0138065
700.871	0.0134489
700.950	0.0134849
701.028	0.0136087
701.106	0.0137558
701.184	0.0140009
701.262	0.0142528
701.340	0.0144841
701.418	0.0147426
701.496	0.0150037
701.575	0.0151940
701.653	0.0151521
701.731	0.0152219
701.809	0.0151241
701.887	0.0150273
701.965	0.0149248
702.043	0.0147404
702.121	0.0142956
702.200	0.0142424
702.278	0.0139807
702.356	0.0138605
702.434	0.0136749
702.512	0.0135927
702.590	0.0136203
702.668	0.0136889
702.746	0.0135733
702.825	0.0136596
702.903	0.0136253
702.981	0.0137022
703.059	0.0139762
703.137	0.0140137
703.215	0.0140722
703.293	0.0143201
703.371	0.0146389
703.450	0.0146962
703.528	0.0148350
703.606	0.0151000
703.684	0.0150578
703.762	0.0149879
703.840	0.0152663
703.918	0.0151749
703.996	0.0149586
704.075	0.0149404
704.153	0.0147910
704.231	0.0145913
704.309	0.0143749
704.387	0.0139984
704.465	0.0138826
704.543	0.0137240
704.621	0.0131972
704.700	0.0129492
704.778	0.0127917
704.856	0.0128568
704.934	0.0127979
705.012	0.0129290
705.090	0.0132551
705.168	0.0135574
705.246	0.0139378
705.325	0.0144974
705.403	0.0148232
705.481	0.0153271
705.559	0.0154955
705.637	0.0159801
705.715	0.0161236
705.793	0.0160305
705.871	0.0157627
705.950	0.0157029
706.028	0.0153570
706.106	0.0150871
706.184	0.0147411
706.262	0.0143963
706.340	0.0140771
706.418	0.0137483
706.496	0.0136702
706.575	0.0134449
706.653	0.0133483
706.731	0.0132150
706.809	0.0133633
706.887	0.0136330
706.965	0.0135061
707.043	0.0135695
707.121	0.0139637
707.200	0.0141383
707.278	0.0142573
707.356	0.0145613
707.434	0.0148745
707.512	0.0148772
707.590	0.0150439
707.668	0.0151716
707.746	0.0149988
707.825	0.0150220
707.903	0.0149801
707.981	0.0147817
708.059	0.0147104
708.137	0.0148367
708.215	0.0145378
708.293	0.0145174
708.371	0.0142313
708.450	0.0141273
708.528	0.0142298
708.606	0.0140418
708.684	0.0140205
708.762	0.0138016
708.840	0.0138607
708.918	0.0137988
708.996	0.0139785
709.075	0.0141203
709.153	0.0140517
709.231	0.0141020
709.309	0.0142221
709.387	0.0141853
709.465	0.0143391
709.543	0.0144432
709.621	0.0144324
709.700	0.0145389
709.778	0.0146631
709.856	0.0145827
709.934	0.0146098
710.012	0.0146450
710.090	0.0145656
710.168	0.0145947
710.246	0.0145055
710.325	0.0144550
710.403	0.0144151
710.481	0.0143723
710.559	0.0142797
710.637	0.0143839
710.715	0.0142607
710.793	0.0142602
710.871	0.0142051
710.950	0.0143432
711.028	0.0143213
711.106	0.0142776
711.184	0.0142592
711.262	0.0143162
711.340	0.0142551
711.418	0.0143765
711.496	0.0141991
711.575	0.0142357
711.653	0.0143200
711.731	0.0144034
711.809	0.0143447
711.887	0.0143531
711.965	0.0144708
712.043	0.0145654
712.121	0.0143624
712.200	0.0143951
712.278	0.0145422
712.356	0.0144425
712.434	0.0144898
712.512	0.0144308
712.590	0.0144179
712.668	0.0144846
712.746	0.0145197
712.825	0.0146077
712.903	0.0144963
712.981	0.0144210
713.059	0.0146019
713.137	0.0144329
713.215	0.0146259
713.293	0.0147030
713.371	0.0146046
713.450	0.0146674
713.528	0.0146775
713.606	0.0148296
713.684	0.0146560
713.762	0.0146931
713.840	0.0147977
713.918	0.0147486
713.996	0.0146455
714.075	0.0145269
714.153	0.0145542
714.231	0.0143158
714.309	0.0142467
714.387	0.0141841
714.465	0.0139153
714.543	0.0137547
714.621	0.0136828
714.700	0.0135417
714.778	0.0137126
714.856	0.0138760
714.934	0.0137815
715.012	0.0138020
715.090	0.0140752
715.168	0.0143098
715.246	0.0146233
715.325	0.0146880
715.403	0.0149660
715.481	0.0150544
715.559	0.0149930
715.637	0.0149795
715.715	0.0150106
715.793	0.0151025
715.871	0.0149430
715.950	0.0150002
716.028	0.0148770
716.106	0.0148016
716.184	0.0148222
716.262	0.0145997
716.340	0.0145690
716.418	0.0145189
716.496	0.0143489
716.575	0.0141790
716.653	0.0142103
716.731	0.0139936
716.809	0.0139504
716.887	0.0138457
716.965	0.0139185
717.043	0.0136412
717.121	0.0137466
717.200	0.0138145
717.278	0.0138484
717.356	0.0137030
717.434	0.0138590
717.512	0.0140169
717.590	0.0139642
717.668	0.0142121
717.746	0.0145461
717.825	0.0146098
717.903	0.0148565
717.981	0.0150563
718.059	0.0152274
718.137	0.0152492
718.215	0.0151611
718.293	0.0152218
718.371	0.0149609
718.450	0.0148894
718.528	0.0148641
718.606	0.0145331
718.684	0.0143624
718.762	0.0142174
718.840	0.0140794
718.918	0.0138192
718.996	0.0138456
719.075	0.0136757
719.153	0.0136395
719.231	0.0139121
719.309	0.0139700
719.387	0.0139915
719.465	0.0141652
719.543	0.0143556
719.621	0.0143966
719.700	0.0145494
719.778	0.0146582
719.856	0.0145444
719.934	0.0148148
720.012	0.0146703
720.090	0.0148804
720.168	0.0148009
720.246	0.0148236
720.325	0.0148846
720.403	0.0148826
720.481	0.0147604
720.559	0.0147244
720.637	0.0148038
720.715	0.0146924
720.793	0.0146302
720.871	0.0147142
720.950	0.0146194
721.028	0.0144253
721.106	0.0143015
721.184	0.0141487
721.262	0.0140818
721.340	0.0140566
721.418	0.0139144
721.496	0.0138033
721.575	0.0137537
721.653	0.0138554
721.731	0.0138223
721.809	0.0138187
721.887	0.0139173
721.965	0.0141161
722.043	0.0141566
722.121	0.0145069
722.200	0.0144942
722.278	0.0147680
722.356	0.0149697
722.434	0.0149524
722.512	0.0151534
722.590	0.0154244
722.668	0.0151878
722.746	0.0151006
722.825	0.0149934
722.903	0.0150243
722.981	0.0147429
723.059	0.0145376
723.137	0.0144128
723.215	0.0142381
723.293	0.0141353
723.371	0.0140092
723.450	0.0137902
723.528	0.0136893
723.606	0.0136047
723.684	0.0136673
723.762	0.0135960
723.840	0.0137141
723.918	0.0137260
723.996	0.0140045
724.075	0.0140973
724.153	0.0141602
724.231	0.0142194
724.309	0.0143068
724.387	0.0145887
724.465	0.0147134
724.543	0.0148063
724.621	0.0149745
724.700	0.0149250
724.778	0.0148177
724.856	0.0148341
724.934	0.0148334
725.012	0.0147176
725.090	0.0145750
725.168	0.0145164
725.246	0.0143854
725.325	0.0142477
725.403	0.0140598
725.481	0.0140705
725.559	0.0140142
725.637	0.0139764
725.715	0.0140471
725.793	0.0141745
725.871	0.0139655
725.950	0.0141059
726.028	0.0142386
726.106	0.0142968
726.184	0.0143993
726.262	0.0143684
726.340	0.0144370
726.418	0.0145429
726.496	0.0146526
726.575	0.0146155
726.653	0.0146880
726.731	0.0146839
726.809	0.0146861
726.887	0.0147578
726.965	0.0147636
727.043	0.0146297
727.121	0.0146460
727.200	0.0145495
727.278	0.0144726
727.356	0.0144499
727.434	0.0146094
727.512	0.0144157
727.590	0.0145575
727.668	0.0146250
727.746	0.0145407
727.825	0.0146079
727.903	0.0143724
727.981	0.0143314
728.059	0.0143667
728.137	0.0144986
728.215	0.0142765
728.293	0.0142696
728.371	0.0141196
728.450	0.0141016
728.528	0.0140351
728.606	0.0141389
728.684	0.0143452
728.762	0.0141727
728.840	0.0142732
728.918	0.0142679
728.996	0.0143030
729.075	0.0143542
729.153	0.0143455
729.231	0.0144772
729.309	0.0146588
729.387	0.0147090
729.465	0.0146412
729.543	0.0147339
729.621	0.0147701
729.700	0.0147350
729.778	0.0147812
729.856	0.0149607
729.934	0.0149587
730.012	0.0147498
730.090	0.0147012
730.168	0.0148820
730.246	0.0148029
730.325	0.0147034
730.403	0.0145596
730.481	0.0144671
730.559	0.0143977
730.637	0.0142020
730.715	0.0141437
730.793	0.0141807
730.871	0.0140118
730.950	0.0139026
731.028	0.0139953
731.106	0.0139861
731.184	0.0139249
731.262	0.0139708
731.340	0.0139174
731.418	0.0141413
731.496	0.0141850
731.575	0.0141832
731.653	0.0143876
731.731	0.0144331
731.809	0.0145039
731.887	0.0145668
731.965	0.0146165
732.043	0.0145949
732.121	0.0146593
732.200	0.0146084
732.278	0.0146301
732.356	0.0147755
732.434	0.0145298
732.512	0.0145975
732.590	0.0146276
732.668	0.0143467
732.746	0.0143418
732.825	0.0143507
732.903	0.0142749
732.981	0.0142545
733.059	0.0140489
733.137	0.0141586
733.215	0.0139890
733.293	0.0140027
733.371	0.0140234
733.450	0.0139378
733.528	0.0138976
733.606	0.0140645
733.684	0.0141840
733.762	0.0141160
733.840	0.0141286
733.918	0.0143661
733.996	0.0144873
734.075	0.0143427
734.153	0.0146976
734.231	0.0147315
734.309	0.0146757
734.387	0.0146730
734.465	0.0148219
734.543	0.0146683
734.621	0.0145712
734.700	0.0145502
734.778	0.0145457
734.856	0.0145992
734.934	0.0143513
735.012	0.0144356
735.090	0.0144576
735.168	0.0143401
735.246	0.0143450
735.325	0.0144264
735.403	0.0143053
735.481	0.0141454
735.559	0.0140216
735.637	0.0141905
735.715	0.0142069
735.793	0.0141596
735.871	0.0141673
735.950	0.0141367
736.028	0.0142307
736.106	0.0141668
736.184	0.0142840
736.262	0.0143284
736.340	0.0144250
736.418	0.0144948
736.496	0.0144433
736.575	0.0146188
736.653	0.0146083
736.731	0.0146323
736.809	0.0147091
736.887	0.0147342
736.965	0.0147315
737.043	0.0147070
737.121	0.0146834
737.200	0.0148032
737.278	0.0147679
737.356	0.0146141
737.434	0.0146265
737.512	0.0143735
737.590	0.0146478
737.668	0.0143354
737.746	0.0141285
737.825	0.0142386
737.903	0.0141940
737.981	0.0141827
738.059	0.0141202
738.137	0.0140314
738.215	0.0140345
738.293	0.0142570
738.371	0.0140185
738.450	0.0141655
738.528	0.0141529
738.606	0.0141903
738.684	0.0141245
738.762	0.0143636
738.840	0.0143854
738.918	0.0144244
738.996	0.0144092
739.075	0.0144418
739.153	0.0144266
739.231	0.0145414
739.309	0.0145657
739.387	0.0146950
739.465	0.0146147
739.543	0.0146804
739.621	0.0146660
739.700	0.0145488
739.778	0.0146059
739.856	0.0145415
739.934	0.0146387
740.012	0.0145783
740.090	0.0145812
740.168	0.0145281
740.246	0.0144247
740.325	0.0143674
740.403	0.0142717
740.481	0.0143156
740.559	0.0142097
740.637	0.0142159
740.715	0.0140929
740.793	0.0140132
740.871	0.0141789
740.950	0.0139951
741.028	0.0140827
741.106	0.0140784
741.184	0.0141305
741.262	0.0143439
741.340	0.0142582
741.418	0.0143432
741.496	0.0142168
741.575	0.0144182
741.653	0.0145564
741.731	0.0144297
741.809	0.0145334
741.887	0.0144587
741.965	0.0145880
742.043	0.0145535
742.121	0.0145584
742.200	0.0146509
742.278	0.0144111
742.356	0.0145417
742.434	0.0144609
742.512	0.0144469
742.590	0.0143469
742.668	0.0144450
742.746	0.0143140
742.825	0.0144106
742.903	0.0142650
742.981	0.0140546
743.059	0.0141964
743.137	0.0142283
743.215	0.0141399
743.293	0.0141624
743.371	0.0142055
743.450	0.0142513
743.528	0.0143319
743.606	0.0143697
743.684	0.0145892
743.762	0.0145772
743.840	0.0145854
743.918	0.0146638
743.996	0.0145728
744.075	0.0147766
744.153	0.0148811
744.231	0.0149023
744.309	0.0147954
744.387	0.0147355
744.465	0.0145730
744.543	0.0145804
744.621	0.0145436
744.700	0.0145723
744.778	0.0144771
744.856	0.0144257
744.934	0.0143999
745.012	0.0143310
745.090	0.0140764
745.168	0.0139857
745.246	0.0141618
745.325	0.0139935
745.403	0.0140606
745.481	0.0140493
745.559	0.0140353
745.637	0.0139439
745.715	0.0141145
745.793	0.0142232
745.871	0.0140891
745.950	0.0141080
746.028	0.0142641
746.106	0.0143278
746.184	0.0144555
746.262	0.0145641
746.340	0.0146442
746.418	0.0146458
746.496	0.0146648
746.575	0.0146481
746.653	0.0145738
746.731	0.0146909
746.809	0.0145476
746.887	0.0145616
746.965	0.0144807
747.043	0.0144811
747.121	0.0144282
747.200	0.0143764
747.278	0.0145871
747.356	0.0145226
747.434	0.0144527
747.512	0.0145263
747.590	0.0144379
747.668	0.0143681
747.746	0.0144092
747.825	0.0142639
747.903	0.0144932
747.981	0.0144858
748.059	0.0144628
748.137	0.0143925
748.215	0.0143136
748.293	0.0146015
748.371	0.0145855
748.450	0.0143578
748.528	0.0144485
748.606	0.0144691
748.684	0.0144035
748.762	0.0145536
748.840	0.0147031
748.918	0.0145649
748.996	0.0144234
749.075	0.0143867
749.153	0.0145059
749.231	0.0145946
749.309	0.0144986
749.387	0.0144816
749.465	0.0143298
749.543	0.0144179
749.621	0.0144531
749.700	0.0142986
749.778	0.0144260
749.856	0.0145364
749.934	0.0142411
750.012	0.0143346
750.090	0.0144350
750.168	0.0143654
750.246	0.0144031
750.325	0.0143212
750.403	0.0143587
750.481	0.0142412
750.559	0.0144276
750.637	0.0145229
750.715	0.0143941
750.793	0.0144940
750.871	0.0143310
750.950	0.0145284
751.028	0.0145434
751.106	0.0145721
751.184	0.0146177
751.262	0.0145229
751.340	0.0145975
751.418	0.0147511
751.496	0.0146369
751.575	0.0146555
751.653	0.0144953
751.731	0.0146890
751.809	0.0146613
751.887	0.0146274
751.965	0.0145055
752.043	0.0147055
752.121	0.0146622
752.200	0.0144736
752.278	0.0145818
752.356	0.0146081
752.434	0.0145791
752.512	0.0144569
752.590	0.0143760
752.668	0.0144051
752.746	0.0145112
752.825	0.0144135
752.903	0.0144646
752.981	0.0143254
753.059	0.0144846
753.137	0.0142767
753.215	0.0143977
753.293	0.0143278
753.371	0.0142669
753.450	0.0141447
753.528	0.0142427
753.606	0.0143980
753.684	0.0144345
753.762	0.0144280
753.840	0.0144505
753.918	0.0144852
753.996	0.0144172
754.075	0.0144684
754.153	0.0144111
754.231	0.0144649
754.309	0.0144849
754.387	0.0143684
754.465	0.0144716
754.543	0.0145244
754.621	0.0146468
754.700	0.0145861
754.778	0.0143632
754.856	0.0144698
754.934	0.0144147
755.012	0.0143140
755.090	0.0141899
755.168	0.0144476
755.246	0.0143895
755.325	0.0144947
755.403	0.0144482
755.481	0.0144003
755.559	0.0143923
755.637	0.0144250
755.715	0.0143639
755.793	0.0143968
755.871	0.0143864
755.950	0.0144451
756.028	0.0143011
756.106	0.0143075
756.184	0.0143962
756.262	0.0142971
756.340	0.0143369
756.418	0.0144311
756.496	0.0143559
756.575	0.0144076
756.653	0.0144576
756.731	0.0145703
756.809	0.0146090
756.887	0.0145055
756.965	0.0145713
757.043	0.0144836
757.121	0.0146879
757.200	0.0146161
757.278	0.0144245
757.356	0.0144277
757.434	0.0143291
757.512	0.0143870
757.590	0.0141129
757.668	0.0142805
757.746	0.0142196
757.825	0.0142722
757.903	0.0143008
757.981	0.0142016
758.059	0.0142764
758.137	0.0142091
758.215	0.0143599
758.293	0.0142839
758.371	0.0143472
758.450	0.0142574
758.528	0.0143172
758.606	0.0142477
758.684	0.0144503
758.762	0.0142574
758.840	0.0143713
758.918	0.0143333
758.996	0.0144093
759.075	0.0143333
759.153	0.0143931
759.231	0.0143149
759.309	0.0142352
759.387	0.0142968
759.465	0.0142667
759.543	0.0141415
759.621	0.0142852
759.700	0.0142690
759.778	0.0142873
759.856	0.0141938
759.934	0.0143240
760.012	0.0141792
760.090	0.0142219
760.168	0.0140782
760.246	0.0141618
760.325	0.0142561
760.403	0.0141968
760.481	0.0144004
760.559	0.0143083
760.637	0.0141538
760.715	0.0142136
760.793	0.0143161
760.871	0.0142982
760.950	0.0143466
761.028	0.0142690
761.106	0.0143569
761.184	0.0144241
761.262	0.0143835
761.340	0.0143771
761.418	0.0143792
761.496	0.0144595
761.575	0.0143956
761.653	0.0143887
761.731	0.0144456
761.809	0.0143793
761.887	0.0144326
761.965	0.0145621
762.043	0.0144604
762.121	0.0143874
762.200	0.0144015
762.278	0.0143404
762.356	0.0144324
762.434	0.0142740
762.512	0.0143316
762.590	0.0144661
762.668	0.0142448
762.746	0.0143247
762.825	0.0143424
762.903	0.0143283
762.981	0.0143501
763.059	0.0144241
763.137	0.0144550
763.215	0.0143972
763.293	0.0145092
763.371	0.0145223
763.450	0.0144247
763.528	0.0145277
763.606	0.0144974
763.684	0.0143684
763.762	0.0144917
763.840	0.0145078
763.918	0.0145195
763.996	0.0145450
764.075	0.0144916
764.153	0.0145466
764.231	0.0144655
764.309	0.0146163
764.387	0.0145883
764.465	0.0145876
764.543	0.0145216
764.621	0.0145712
764.700	0.0145564
764.778	0.0146400
764.856	0.0146868
764.934	0.0145865
765.012	0.0145005
765.090	0.0144563
765.168	0.0145703
765.246	0.0144363
765.325	0.0145556
765.403	0.0144662
765.481	0.0144386
765.559	0.0144558
765.637	0.0144111
765.715	0.0145126
765.793	0.0142974
765.871	0.0144561
765.950	0.0144608
766.028	0.0144245
766.106	0.0143243
766.184	0.0143807
766.262	0.0143301
766.340	0.0141395
766.418	0.0142667
766.496	0.0143944
766.575	0.0142991
766.653	0.0142463
766.731	0.0142182
766.809	0.0144363
766.887	0.0144023
766.965	0.0143003
767.043	0.0144579
767.121	0.0144342
767.200	0.0143472
767.278	0.0143741
767.356	0.0141806
767.434	0.0142091
767.512	0.0144090
767.590	0.0146357
767.668	0.0144077
767.746	0.0142595
767.825	0.0143530
767.903	0.0143976
767.981	0.0142845
768.059	0.0141727
768.137	0.0142194
768.215	0.0143056
768.293	0.0144078
768.371	0.0143235
768.450	0.0144379
768.528	0.0142626
768.606	0.0144617
768.684	0.0145182
768.762	0.0146147
768.840	0.0144971
768.918	0.0146993
768.996	0.0145410
769.075	0.0145682
769.153	0.0145277
769.231	0.0145796
769.309	0.0146288
769.387	0.0147774
769.465	0.0146194
769.543	0.0145403
769.621	0.0145985
769.700	0.0145625
769.778	0.0145647
769.856	0.0144044
769.934	0.0144376
770.012	0.0145893
770.090	0.0145561
770.168	0.0143933
770.246	0.0144660
770.325	0.0144321
770.403	0.0143946
770.481	0.0144960
770.559	0.0145084
770.637	0.0144197
770.715	0.0144501
770.793	0.0144343
770.871	0.0143077
770.950	0.0143145
771.028	0.0144154
771.106	0.0145777
771.184	0.0143525
771.262	0.0144637
771.340	0.0144529
771.418	0.0145169
771.496	0.0144122
771.575	0.0144629
771.653	0.0144430
771.731	0.0144011
771.809	0.0145045
771.887	0.0145386
771.965	0.0145656
772.043	0.0145743
772.121	0.0144077
772.200	0.0146682
772.278	0.0146751
772.356	0.0145922
772.434	0.0146597
772.512	0.0147022
772.590	0.0146334
772.668	0.0146208
772.746	0.0146025
772.825	0.0146074
772.903	0.0145483
772.981	0.0145846
773.059	0.0146520
773.137	0.0144519
773.215	0.0146641
773.293	0.0146106
773.371	0.0145329
773.450	0.0147400
773.528	0.0146299
773.606	0.0144975
773.684	0.0143087
773.762	0.0144683
773.840	0.0145882
773.918	0.0144092
773.996	0.0143324
774.075	0.0145322
774.153	0.0144115
774.231	0.0143152
774.309	0.0143307
774.387	0.0145023
774.465	0.0144603
774.543	0.0145245
774.621	0.0144743
774.700	0.0144632
774.778	0.0144953
774.856	0.0144061
774.934	0.0144752
775.012	0.0144658
775.090	0.0143798
775.168	0.0142041
775.246	0.0143198
775.325	0.0143513
775.403	0.0142910
775.481	0.0141936
775.559	0.0144350
775.637	0.0144501
775.715	0.0142374
775.793	0.0142842
775.871	0.0142564
775.950	0.0143745
776.028	0.0143395
776.106	0.0141983
776.184	0.0142200
776.262	0.0142825
776.340	0.0143335
776.418	0.0144147
776.496	0.0145397
776.575	0.0143387
776.653	0.0142661
776.731	0.0143257
776.809	0.0143858
776.887	0.0145621
776.965	0.0144135
777.043	0.0144901
777.121	0.0143902
777.200	0.0144784
777.278	0.0145028
777.356	0.0143481
777.434	0.0144202
777.512	0.0142959
777.590	0.0144147
777.668	0.0144553
777.746	0.0145146
777.825	0.0144388
777.903	0.0144977
777.981	0.0145702
778.059	0.0145142
778.137	0.0144989
778.215	0.0144562
778.293	0.0142834
778.371	0.0144292
778.450	0.0145625
778.528	0.0143358
778.606	0.0145079
778.684	0.0144629
778.762	0.0144093
778.840	0.0144193
778.918	0.0144621
778.996	0.0142767
779.075	0.0144363
779.153	0.0143417
779.231	0.0144286
779.309	0.0142995
779.387	0.0143043
779.465	0.0143834
779.543	0.0144730
779.621	0.0144697
779.700	0.0143605
779.778	0.0145320
779.856	0.0144311
779.934	0.0144186
780.012	0.0146189
780.090	0.0143662
780.168	0.0144072
780.246	0.0144547
780.325	0.0144817
780.403	0.0144827
780.481	0.0144640
780.559	0.0144868
780.637	0.0144293
780.715	0.0145921
780.793	0.0144308
780.871	0.0143722
780.950	0.0143559
781.028	0.0143562
781.106	0.0144110
781.184	0.0144199
781.262	0.0144007
781.340	0.0143961
781.418	0.0143951
781.496	0.0142930
781.575	0.0142483
781.653	0.0142725
781.731	0.0143602
781.809	0.0144599
781.887	0.0143047
781.965	0.0144017
782.043	0.0143865
782.121	0.0143732
782.200	0.0143863
782.278	0.0142669
782.356	0.0143064
782.434	0.0144965
782.512	0.0142362
782.590	0.0142334
782.668	0.0141605
782.746	0.0142150
782.825	0.0143817
782.903	0.0142039
782.981	0.0142943
783.059	0.0142159
783.137	0.0142284
783.215	0.0142978
783.293	0.0143528
783.371	0.0143866
783.450	0.0143937
783.528	0.0144752
783.606	0.0144060
783.684	0.0142883
783.762	0.0143699
783.840	0.0143234
783.918	0.0144085
783.996	0.0143724
784.075	0.0143785
784.153	0.0145044
784.231	0.0144933
784.309	0.0143931
784.387	0.0144328
784.465	0.0144043
784.543	0.0144501
784.621	0.0144029
784.700	0.0144224
784.778	0.0145874
784.856	0.0145530
784.934	0.0143581
785.012	0.0143701
785.090	0.0144263
785.168	0.0144627
785.246	0.0144163
785.325	0.0143324
785.403	0.0145153
785.481	0.0143738
785.559	0.0144645
785.637	0.0145564
785.715	0.0145280
785.793	0.0144955
785.871	0.0144570
785.950	0.0144859
786.028	0.0145150
786.106	0.0144211
786.184	0.0144131
786.262	0.0144609
786.340	0.0144222
786.418	0.0143501
786.496	0.0143334
786.575	0.0142606
786.653	0.0143829
786.731	0.0144960
786.809	0.0143742
786.887	0.0143433
786.965	0.0142944
787.043	0.0143932
787.121	0.0143287
787.200	0.0144601
787.278	0.0144289
787.356	0.0144399
787.434	0.0143156
787.512	0.0145447
787.590	0.0145197
787.668	0.0143681
787.746	0.0144733
787.825	0.0145263
787.903	0.0143676
787.981	0.0142830
788.059	0.0144731
788.137	0.0144755
788.215	0.0145351
788.293	0.0144541
788.371	0.0145034
788.450	0.0145129
788.528	0.0144762
788.606	0.0145582
788.684	0.0143608
788.762	0.0144482
788.840	0.0144347
788.918	0.0144838
788.996	0.0144885
789.075	0.0144580
789.153	0.0143585
789.231	0.0144740
789.309	0.0146144
789.387	0.0143421
789.465	0.0144846
789.543	0.0144755
789.621	0.0146211
789.700	0.0143785
789.778	0.0145029
789.856	0.0145705
789.934	0.0143620
790.012	0.0143654
790.090	0.0144815
790.168	0.0144379
790.246	0.0144843
790.325	0.0143527
790.403	0.0143018
790.481	0.0144568
790.559	0.0143829
790.637	0.0144765
790.715	0.0143751
790.793	0.0144457
790.871	0.0144253
790.950	0.0143357
791.028	0.0142509
791.106	0.0144813
791.184	0.0143475
791.262	0.0143417
791.340	0.0145248
791.418	0.0144408
791.496	0.0144693
791.575	0.0145349
791.653	0.0144807
791.731	0.0144412
791.809	0.0143777
791.887	0.0144091
791.965	0.0144987
792.043	0.0144244
792.121	0.0145454
792.200	0.0144711
792.278	0.0146066
792.356	0.0143906
792.434	0.0143539
792.512	0.0144086
792.590	0.0146100
792.668	0.0145811
792.746	0.0144109
792.825	0.0144677
792.903	0.0144746
792.981	0.0144570
793.059	0.0145448
793.137	0.0145242
793.215	0.0144475
793.293	0.0146256
793.371	0.0145194
793.450	0.0144120
793.528	0.0144390
793.606	0.0144501
793.684	0.0145038
793.762	0.0145206
793.840	0.0144382
793.918	0.0144723
793.996	0.0143902
794.075	0.0143163
794.153	0.0143653
794.231	0.0144598
794.309	0.0145015
794.387	0.0144879
794.465	0.0145661
794.543	0.0146093
794.621	0.0145112
794.700	0.0145222
794.778	0.0145306
794.856	0.0145897
794.934	0.0145023
795.012	0.0145873
795.090	0.0143941
795.168	0.0144980
795.246	0.0144116
795.325	0.0144038
795.403	0.0145212
795.481	0.0145171
795.559	0.0144112
795.637	0.0144973
795.715	0.0144328
795.793	0.0145188
795.871	0.0144715
795.950	0.0144362
796.028	0.0144423
796.106	0.0145090
796.184	0.0145400
796.262	0.0144025
796.340	0.0144136
796.418	0.0144493
796.496	0.0145297
796.575	0.0144096
796.653	0.0144456
796.731	0.0145210
796.809	0.0143496
796.887	0.0143359
796.965	0.0144067
797.043	0.0144038
797.121	0.0145472
797.200	0.0144492
797.278	0.0144193
797.356	0.0143978
797.434	0.0145161
797.512	0.0144896
797.590	0.0144617
797.668	0.0145096
797.746	0.0144764
797.825	0.0144967
797.903	0.0144711
797.981	0.0143886
798.059	0.0144187
798.137	0.0144269
798.215	0.0145441
798.293	0.0144127
798.371	0.0145333
798.450	0.0143863
798.528	0.0142789
798.606	0.0143653
798.684	0.0144749
798.762	0.0144257
798.840	0.0144341
798.918	0.0143119
798.996	0.0142949
799.075	0.0143697
799.153	0.0145309
799.231	0.0143628
799.309	0.0144183
799.387	0.0144218
799.465	0.0144550
799.543	0.0144454
799.621	0.0143375
799.700	0.0142296
799.778	0.0144751
799.856	0.0144066
799.934	0.0143636
800.012	0.0144315
800.090	0.0144980
800.168	0.0143919
800.246	0.0145223
800.325	0.0145339
800.403	0.0144652
800.481	0.0143353
800.559	0.0146122
800.637	0.0145008
800.715	0.0145098
800.793	0.0143312
800.871	0.0144323
800.950	0.0144164
801.028	0.0144485
801.106	0.0144088
801.184	0.0144357
801.262	0.0142516
801.340	0.0144832
801.418	0.0143384
801.496	0.0144646
801.575	0.0143813
801.653	0.0143512
801.731	0.0145132
801.809	0.0144038
801.887	0.0145036
801.965	0.0145152
802.043	0.0144614
802.121	0.0143893
802.200	0.0144794
802.278	0.0144401
802.356	0.0144348
802.434	0.0143362
802.512	0.0143822
802.590	0.0144644
802.668	0.0146290
802.746	0.0143374
802.825	0.0143446
802.903	0.0143868
802.981	0.0143782
803.059	0.0143980
803.137	0.0143626
803.215	0.0144315
803.293	0.0144115
803.371	0.0143970
803.450	0.0144976
803.528	0.0143772
803.606	0.0144630
803.684	0.0145023
803.762	0.0145090
803.840	0.0144222
803.918	0.0144310
803.996	0.0143714
804.075	0.0144318
804.153	0.0144211
804.231	0.0143675
804.309	0.0144221
804.387	0.0146183
804.465	0.0144947
804.543	0.0145376
804.621	0.0145223
804.700	0.0143726
804.778	0.0144778
804.856	0.0146236
804.934	0.0145820
805.012	0.0145805
805.090	0.0145409
805.168	0.0143610
805.246	0.0144945
805.325	0.0144228
805.403	0.0142725
805.481	0.0143201
805.559	0.0144055
805.637	0.0144314
805.715	0.0144035
805.793	0.0143273
805.871	0.0144992
805.950	0.0144440
806.028	0.0142561
806.106	0.0144654
806.184	0.0145361
806.262	0.0144564
806.340	0.0144276
806.418	0.0144936
806.496	0.0145588
806.575	0.0145331
806.653	0.0144304
806.731	0.0145108
806.809	0.0144286
806.887	0.0144246
806.965	0.0145804
807.043	0.0146205
807.121	0.0144957
807.200	0.0143751
807.278	0.0144263
807.356	0.0143876
807.434	0.0143024
807.512	0.0143543
807.590	0.0144081
807.668	0.0144032
807.746	0.0141646
807.825	0.0142290
807.903	0.0143111
807.981	0.0142464
808.059	0.0143093
808.137	0.0141114
808.215	0.0142709
808.293	0.0141116
808.371	0.0142469
808.450	0.0142961
808.528	0.0143687
808.606	0.0143070
808.684	0.0141146
808.762	0.0142657
808.840	0.0142329
808.918	0.0143434
808.996	0.0143925
809.075	0.0143769
809.153	0.0144717
809.231	0.0144202
809.309	0.0145461
809.387	0.0143760
809.465	0.0145424
809.543	0.0144096
809.621	0.0143703
809.700	0.0145657
809.778	0.0145061
809.856	0.0143988
809.934	0.0143910
810.012	0.0143413
810.090	0.0143295
810.168	0.0145155
810.246	0.0144129
810.325	0.0144367
810.403	0.0144297
810.481	0.0143970
810.559	0.0144401
810.637	0.0144598
810.715	0.0144956
810.793	0.0144365
810.871	0.0143723
810.950	0.0144520
811.028	0.0145336
811.106	0.0145246
811.184	0.0144781
811.262	0.0144994
811.340	0.0144831
811.418	0.0145190
811.496	0.0145289
811.575	0.0145274
811.653	0.0144801
811.731	0.0145851
811.809	0.0144673
811.887	0.0144662
811.965	0.0144423
812.043	0.0144843
812.121	0.0145577
812.200	0.0144478
812.278	0.0144297
812.356	0.0143689
812.434	0.0145268
812.512	0.0143890
812.590	0.0143668
812.668	0.0145169
812.746	0.0143349
812.825	0.0142724
812.903	0.0144676
812.981	0.0143162
813.059	0.0143649
813.137	0.0142532
813.215	0.0143934
813.293	0.0144690
813.371	0.0144404
813.450	0.0143980
813.528	0.0143571
813.606	0.0144050
813.684	0.0144075
813.762	0.0144225
813.840	0.0144269
813.918	0.0145621
813.996	0.0143793
814.075	0.0144312
814.153	0.0144577
814.231	0.0144815
814.309	0.0145435
814.387	0.0144288
814.465	0.0145459
814.543	0.0144763
814.621	0.0144643
814.700	0.0143842
814.778	0.0144091
814.856	0.0143465
814.934	0.0144764
815.012	0.0143530
815.090	0.0144860
815.168	0.0144501
815.246	0.0144612
815.325	0.0144814
815.403	0.0146557
815.481	0.0145491
815.559	0.0144672
815.637	0.0144686
815.715	0.0143987
815.793	0.0144035
815.871	0.0144154
815.950	0.0143789
816.028	0.0144444
816.106	0.0145214
816.184	0.0144515
816.262	0.0144698
816.340	0.0146130
816.418	0.0144195
816.496	0.0143618
816.575	0.0144777
816.653	0.0144324
816.731	0.0145764
816.809	0.0144556
816.887	0.0146351
816.965	0.0144405
817.043	0.0143907
817.121	0.0144437
817.200	0.0143753
817.278	0.0144714
817.356	0.0145634
817.434	0.0143392
817.512	0.0145451
817.590	0.0144516
817.668	0.0143909
817.746	0.0144073
817.825	0.0144883
817.903	0.0145244
817.981	0.0143871
818.059	0.0144286
818.137	0.0144685
818.215	0.0144876
818.293	0.0145219
818.371	0.0144778
818.450	0.0145023
818.528	0.0143366
818.606	0.0144955
818.684	0.0145279
818.762	0.0143439
818.840	0.0144950
818.918	0.0145108
818.996	0.0143427
819.075	0.0144582
819.153	0.0144086
819.231	0.0143610
819.309	0.0145559
819.387	0.0144841
819.465	0.0144811
819.543	0.0144617
819.621	0.0145564
819.700	0.0145134
819.778	0.0144392
819.856	0.0144932
819.934	0.0144443
820.012	0.0145933
820.090	0.0143518
820.168	0.0144614
820.246	0.0144368
820.325	0.0145371
820.403	0.0144778
820.481	0.0144630
820.559	0.0143953
820.637	0.0144718
820.715	0.0144130
820.793	0.0145837
820.871	0.0145455
820.950	0.0144535
821.028	0.0144130
821.106	0.0144154
821.184	0.0145042
821.262	0.0143121
821.340	0.0145800
821.418	0.0144626
821.496	0.0143317
821.575	0.0143132
821.653	0.0144117
821.731	0.0143961
821.809	0.0143714
821.887	0.0141743
821.965	0.0143182
822.043	0.0143658
822.121	0.0142270
822.200	0.0143144
822.278	0.0143094
822.356	0.0142667
822.434	0.0143835
822.512	0.0144370
822.590	0.0143681
822.668	0.0143230
822.746	0.0143068
822.825	0.0143381
822.903	0.0144339
822.981	0.0144500
823.059	0.0144138
823.137	0.0143629
823.215	0.0144394
823.293	0.0142618
823.371	0.0143383
823.450	0.0142667
823.528	0.0144045
823.606	0.0142969
823.684	0.0141501
823.762	0.0142460
823.840	0.0142237
823.918	0.0141437
823.996	0.0141446
824.075	0.0141821
824.153	0.0143092
824.231	0.0141624
824.309	0.0141895
824.387	0.0142869
824.465	0.0142387
824.543	0.0143655
824.621	0.0143192
824.700	0.0144036
824.778	0.0143659
824.856	0.0144392
824.934	0.0144500
825.012	0.0145001
825.090	0.0144331
825.168	0.0144424
825.246	0.0143729
825.325	0.0144653
825.403	0.0143743
825.481	0.0143929
825.559	0.0144179
825.637	0.0143529
825.715	0.0144250
825.793	0.0143958
825.871	0.0143676
825.950	0.0143964
826.028	0.0142840
826.106	0.0145211
826.184	0.0145036
826.262	0.0143528
826.340	0.0144115
826.418	0.0144135
826.496	0.0145116
826.575	0.0145075
826.653	0.0145155
826.731	0.0144700
826.809	0.0145030
826.887	0.0143831
826.965	0.0144690
827.043	0.0145665
827.121	0.0145016
827.200	0.0144884
827.278	0.0145177
827.356	0.0146127
827.434	0.0143678
827.512	0.0144689
827.590	0.0145001
827.668	0.0144568
827.746	0.0145705
827.825	0.0144965
827.903	0.0145258
827.981	0.0144654
828.059	0.0144069
828.137	0.0144173
828.215	0.0143673
828.293	0.0144283
828.371	0.0145121
828.450	0.0144106
828.528	0.0145364
828.606	0.0145325
828.684	0.0143890
828.762	0.0143275
828.840	0.0146552
828.918	0.0146268
828.996	0.0144301
829.075	0.0144165
829.153	0.0145586
829.231	0.0145887
829.309	0.0144532
829.387	0.0143918
829.465	0.0143951
829.543	0.0142976
829.621	0.0143709
829.700	0.0143299
829.778	0.0145067
829.856	0.0146581
829.934	0.0144438
830.012	0.0144147
830.090	0.0143524
830.168	0.0143369
830.246	0.0145926
830.325	0.0144660
830.403	0.0144209
830.481	0.0144543
830.559	0.0144390
830.637	0.0143459
830.715	0.0142347
830.793	0.0144734
830.871	0.0144156
830.950	0.0145226
831.028	0.0144923
831.106	0.0144185
831.184	0.0143063
831.262	0.0143402
831.340	0.0143008
831.418	0.0143764
831.496	0.0143214
831.575	0.0144273
831.653	0.0145509
831.731	0.0144375
831.809	0.0144347
831.887	0.0142870
831.965	0.0143166
832.043	0.0144798
832.121	0.0145183
832.200	0.0145140
832.278	0.0145262
832.356	0.0144044
832.434	0.0144118
832.512	0.0144638
832.590	0.0145196
832.668	0.0144359
832.746	0.0143900
832.825	0.0144327
832.903	0.0144463
832.981	0.0142322
833.059	0.0143282
833.137	0.0143341
833.215	0.0143864
833.293	0.0144271
833.371	0.0144186
833.450	0.0143463
833.528	0.0145057
833.606	0.0144414
833.684	0.0145273
833.762	0.0143993
833.840	0.0145109
833.918	0.0143305
833.996	0.0144212
834.075	0.0143468
834.153	0.0142707
834.231	0.0144463
834.309	0.0144186
834.387	0.0143312
834.465	0.0145262
834.543	0.0144353
834.621	0.0143791
834.700	0.0144028
834.778	0.0143554
834.856	0.0143159
834.934	0.0143098
835.012	0.0144390
835.090	0.0144971
835.168	0.0144243
835.246	0.0143257
835.325	0.0143227
835.403	0.0144801
835.481	0.0144279
835.559	0.0143700
835.637	0.0143491
835.715	0.0145988
835.793	0.0145004
835.871	0.0143365
835.950	0.0144006
836.028	0.0143822
836.106	0.0143352
836.184	0.0143697
836.262	0.0145550
836.340	0.0145582
836.418	0.0144101
836.496	0.0144614
836.575	0.0143792
836.653	0.0145184
836.731	0.0144921
836.809	0.0144214
836.887	0.0144279
836.965	0.0145232
837.043	0.0144566
837.121	0.0145686
837.200	0.0145911
837.278	0.0144674
837.356	0.0144491
837.434	0.0143601
837.512	0.0145159
837.590	0.0143624
837.668	0.0143330
837.746	0.0143807
837.825	0.0144051
837.903	0.0143987
837.981	0.0144093
838.059	0.0144465
838.137	0.0143735
838.215	0.0142327
838.293	0.0145144
838.371	0.0144340
838.450	0.0142511
838.528	0.0143607
838.606	0.0144367
838.684	0.0143298
838.762	0.0144518
838.840	0.0144500
838.918	0.0144015
838.996	0.0144238
839.075	0.0143972
839.153	0.0143668
839.231	0.0144889
839.309	0.0146149
839.387	0.0143774
839.465	0.0143038
839.543	0.0145451
839.621	0.0145193
839.700	0.0144978
839.778	0.0146731
839.856	0.0145143
839.934	0.0143459
840.012	0.0145740
840.090	0.0144413
840.168	0.0143699
840.246	0.0144789
840.325	0.0144840
840.403	0.0145383
840.481	0.0143864
840.559	0.0144158
840.637	0.0144091
840.715	0.0145070
840.793	0.0144941
840.871	0.0144102
840.950	0.0144086
841.028	0.0144420
841.106	0.0144804
841.184	0.0144763
841.262	0.0144349
841.340	0.0143951
841.418	0.0144176
841.496	0.0144663
841.575	0.0143958
841.653	0.0143790
841.731	0.0145061
841.809	0.0143554
841.887	0.0145394
841.965	0.0144507
842.043	0.0143663
842.121	0.0144293
842.200	0.0144312
842.278	0.0143957
842.356	0.0143738
842.434	0.0143196
842.512	0.0142323
842.590	0.0145020
842.668	0.0144370
842.746	0.0144672
842.825	0.0144504
842.903	0.0143486
842.981	0.0143490
843.059	0.0144208
843.137	0.0144876
843.215	0.0144276
843.293	0.0145147
843.371	0.0145296
843.450	0.0144328
843.528	0.0145308
843.606	0.0144258
843.684	0.0144170
843.762	0.0144181
843.840	0.0144896
843.918	0.0144477
843.996	0.0145338
844.075	0.0144843
844.153	0.0145034
844.231	0.0144250
844.309	0.0143962
844.387	0.0144936
844.465	0.0143323
844.543	0.0144927
844.621	0.0145084
844.700	0.0144669
844.778	0.0143382
844.856	0.0144064
844.934	0.0144398
845.012	0.0144934
845.090	0.0144508
845.168	0.0142623
845.246	0.0144187
845.325	0.0145416
845.403	0.0143594
845.481	0.0142756
845.559	0.0143415
845.637	0.0144334
845.715	0.0144033
845.793	0.0144859
845.871	0.0144148
845.950	0.0143494
846.028	0.0144569
846.106	0.0143768
846.184	0.0144482
846.262	0.0144325
846.340	0.0145638
846.418	0.0146374
846.496	0.0145571
846.575	0.0144551
846.653	0.0144617
846.731	0.0145821
846.809	0.0144579
846.887	0.0143555
846.965	0.0144019
847.043	0.0143112
847.121	0.0142767
847.200	0.0145734
847.278	0.0144930
847.356	0.0143608
847.434	0.0143021
847.512	0.0143703
847.590	0.0144955
847.668	0.0142915
847.746	0.0144256
847.825	0.0145043
847.903	0.0144595
847.981	0.0144812
848.059	0.0145235
848.137	0.0145001
848.215	0.0143536
848.293	0.0145578
848.371	0.0146128
848.450	0.0145401
848.528	0.0146394
848.606	0.0145957
848.684	0.0145447
848.762	0.0146250
848.840	0.0145863
848.918	0.0144145
848.996	0.0146015
849.075	0.0144917
849.153	0.0143305
849.231	0.0144892
849.309	0.0144252
849.387	0.0144199
849.465	0.0144893
849.543	0.0143728
849.621	0.0143413
849.700	0.0143683
849.778	0.0143823
849.856	0.0145007
849.934	0.0143356
850.012	0.0144123
850.090	0.0144285
850.168	0.0145734
850.246	0.0145929
850.325	0.0143792
850.403	0.0145274
850.481	0.0146149
850.559	0.0145496
850.637	0.0146264
850.715	0.0145194
850.793	0.0144271
850.871	0.0144051
850.950	0.0146023
851.028	0.0145702
851.106	0.0144972
851.184	0.0145411
851.262	0.0147024
851.340	0.0144955
851.418	0.0145192
851.496	0.0145981
851.575	0.0144502
851.653	0.0144972
851.731	0.0145792
851.809	0.0144055
851.887	0.0144490
851.965	0.0144450
852.043	0.0144771
852.121	0.0144279
852.200	0.0144944
852.278	0.0143566
852.356	0.0144830
852.434	0.0144395
852.512	0.0144068
852.590	0.0145949
852.668	0.0144993
852.746	0.0143594
852.825	0.0145386
852.903	0.0145391
852.981	0.0145886
853.059	0.0145246
853.137	0.0145250
853.215	0.0144029
853.293	0.0143615
853.371	0.0144534
853.450	0.0144611
853.528	0.0144464
853.606	0.0144757
853.684	0.0144004
853.762	0.0144157
853.840	0.0144302
853.918	0.0143343
853.996	0.0144148
854.075	0.0143474
854.153	0.0144987
854.231	0.0144736
854.309	0.0144581
854.387	0.0144176
854.465	0.0144901
854.543	0.0143925
854.621	0.0144411
854.700	0.0144701
854.778	0.0144435
854.856	0.0144994
854.934	0.0143924
855.012	0.0144172
855.090	0.0144061
855.168	0.0144054
855.246	0.0141624
855.325	0.0144054
855.403	0.0144308
855.481	0.0143400
855.559	0.0144315
855.637	0.0143407
855.715	0.0143875
855.793	0.0145107
855.871	0.0144588
855.950	0.0143230
856.028	0.0143538
856.106	0.0143956
856.184	0.0143749
856.262	0.0145292
856.340	0.0144458
856.418	0.0145448
856.496	0.0146209
856.575	0.0144946
856.653	0.0145656
856.731	0.0143784
856.809	0.0145203
856.887	0.0145222
856.965	0.0143291
857.043	0.0144835
857.121	0.0145181
857.200	0.0144455
857.278	0.0143700
857.356	0.0143174
857.434	0.0146532
857.512	0.0143500
857.590	0.0144666
857.668	0.0143758
857.746	0.0144073
857.825	0.0144691
857.903	0.0144220
857.981	0.0142924
858.059	0.0143625
858.137	0.0145011
858.215	0.0144541
858.293	0.0143707
858.371	0.0145718
858.450	0.0143610
858.528	0.0144956
858.606	0.0145486
858.684	0.0144365
858.762	0.0144910
858.840	0.0144647
858.918	0.0144069
858.996	0.0144965
859.075	0.0144827
859.153	0.0143678
859.231	0.0143949
859.309	0.0143609
859.387	0.0144002
859.465	0.0143408
859.543	0.0143164
859.621	0.0142974
859.700	0.0142477
859.778	0.0143009
859.856	0.0142783
859.934	0.0143542
860.012	0.0141771
860.090	0.0142561
860.168	0.0143130
860.246	0.0144983
860.325	0.0144225
860.403	0.0143202
860.481	0.0142972
860.559	0.0143320
860.637	0.0143902
860.715	0.0143452
860.793	0.0143491
860.871	0.0142312
860.950	0.0142435
861.028	0.0142810
861.106	0.0142366
861.184	0.0142352
861.262	0.0143546
861.340	0.0142799
861.418	0.0141389
861.496	0.0142646
861.575	0.0142319
861.653	0.0142587
861.731	0.0143068
861.809	0.0143130
861.887	0.0143125
861.965	0.0143302
862.043	0.0143668
862.121	0.0141212
862.200	0.0143851
862.278	0.0144229
862.356	0.0145242
862.434	0.0144581
862.512	0.0144877
862.590	0.0143516
862.668	0.0144881
862.746	0.0143667
862.825	0.0144813
862.903	0.0144447
862.981	0.0143903
863.059	0.0143427
863.137	0.0143834
863.215	0.0144112
863.293	0.0144355
863.371	0.0144295
863.450	0.0143478
863.528	0.0144248
863.606	0.0142703
863.684	0.0144971
863.762	0.0144734
863.840	0.0143447
863.918	0.0142458
863.996	0.0142810
864.075	0.0142590
864.153	0.0144390
864.231	0.0144334
864.309	0.0143850
864.387	0.0144811
864.465	0.0145830
864.543	0.0144663
864.621	0.0144678
864.700	0.0143778
864.778	0.0145813
864.856	0.0145177
864.934	0.0146143
865.012	0.0145458
865.090	0.0143280
865.168	0.0145206
865.246	0.0145896
865.325	0.0144953
865.403	0.0144314
865.481	0.0144498
865.559	0.0144633
865.637	0.0145354
865.715	0.0144350
865.793	0.0144032
865.871	0.0144036
865.950	0.0144641
866.028	0.0143548
866.106	0.0144720
866.184	0.0144728
866.262	0.0144627
866.340	0.0145207
866.418	0.0144131
866.496	0.0144493
866.575	0.0144938
866.653	0.0144298
866.731	0.0144563
866.809	0.0144243
866.887	0.0143406
866.965	0.0143804
867.043	0.0143941
867.121	0.0144472
867.200	0.0143988
867.278	0.0145221
867.356	0.0145327
867.434	0.0143945
867.512	0.0145457
867.590	0.0144231
867.668	0.0144699
867.746	0.0146691
867.825	0.0145732
867.903	0.0145829
867.981	0.0145705
868.059	0.0144714
868.137	0.0145007
868.215	0.0144830
868.293	0.0144062
868.371	0.0145031
868.450	0.0145449
868.528	0.0145691
868.606	0.0145419
868.684	0.0145703
868.762	0.0145116
868.840	0.0144381
868.918	0.0145892
868.996	0.0143767
869.075	0.0143565
869.153	0.0144722
869.231	0.0144044
869.309	0.0146230
869.387	0.0145096
869.465	0.0144525
869.543	0.0144624
869.621	0.0144868
869.700	0.0144730
869.778	0.0144065
869.856	0.0144550
869.934	0.0145061
870.012	0.0143742
870.090	0.0144299
870.168	0.0144926
870.246	0.0143835
870.325	0.0144726
870.403	0.0144639
870.481	0.0143989
870.559	0.0143858
870.637	0.0144203
870.715	0.0144204
870.793	0.0144308
870.871	0.0144336
870.950	0.0143821
871.028	0.0143001
871.106	0.0143430
871.184	0.0144510
871.262	0.0145065
871.340	0.0144244
871.418	0.0143885
871.496	0.0143515
871.575	0.0142668
871.653	0.0143294
871.731	0.0145922
871.809	0.0143682
871.887	0.0143257
871.965	0.0143496
872.043	0.0144061
872.121	0.0143273
872.200	0.0145750
872.278	0.0143328
872.356	0.0145338
872.434	0.0144508
872.512	0.0144781
872.590	0.0143827
872.668	0.0144120
872.746	0.0144364
872.825	0.0145052
872.903	0.0144793
872.981	0.0144687
873.059	0.0145039
873.137	0.0145020
873.215	0.0144434
873.293	0.0143784
873.371	0.0144071
873.450	0.0144656
873.528	0.0144999
873.606	0.0144510
873.684	0.0144371
873.762	0.0145213
873.840	0.0144082
873.918	0.0142457
873.996	0.0144017
874.075	0.0144656
874.153	0.0144542
874.231	0.0144839
874.309	0.0144744
874.387	0.0145414
874.465	0.0143533
874.543	0.0144286
874.621	0.0144537
874.700	0.0144708
874.778	0.0144433
874.856	0.0144837
874.934	0.0143826
875.012	0.0143124
875.090	0.0143454
875.168	0.0143374
875.246	0.0144582
875.325	0.0144236
875.403	0.0143449
875.481	0.0143394
875.559	0.0143891
875.637	0.0144878
875.715	0.0143277
875.793	0.0143803
875.871	0.0145300
875.950	0.0144949
876.028	0.0145108
876.106	0.0143745
876.184	0.0144330
876.262	0.0144344
876.340	0.0145680
876.418	0.0143752
876.496	0.0144165
876.575	0.0143784
876.653	0.0143855
876.731	0.0142860
876.809	0.0143564
876.887	0.0142992
876.965	0.0143763
877.043	0.0143230
877.121	0.0143686
877.200	0.0144379
877.278	0.0142255
877.356	0.0143447
877.434	0.0144809
877.512	0.0144868
877.590	0.0143684
877.668	0.0144469
877.746	0.0144348
877.825	0.0142811
877.903	0.0143119
877.981	0.0144462
878.059	0.0143095
878.137	0.0144231
878.215	0.0141557
878.293	0.0142857
878.371	0.0145041
878.450	0.0143333
878.528	0.0142101
878.606	0.0144048
878.684	0.0143214
878.762	0.0145107
878.840	0.0144437
878.918	0.0143522
878.996	0.0144666
879.075	0.0143357
879.153	0.0142682
879.231	0.0144988
879.309	0.0143204
879.387	0.0145278
879.465	0.0144305
879.543	0.0143591
879.621	0.0144054
879.700	0.0144156
879.778	0.0144223
879.856	0.0144531
879.934	0.0144848
880.012	0.0144508
880.090	0.0144920
880.168	0.0144213
880.246	0.0145365
880.325	0.0144206
880.403	0.0145229
880.481	0.0145486
880.559	0.0144575
880.637	0.0144125
880.715	0.0145723
880.793	0.0145004
880.871	0.0145023
880.950	0.0143337
881.028	0.0143856
881.106	0.0144627
881.184	0.0143282
881.262	0.0143674
881.340	0.0145839
881.418	0.0144469
881.496	0.0144370
881.575	0.0144443
881.653	0.0144907
881.731	0.0144155
881.809	0.0144383
881.887	0.0145847
881.965	0.0145729
882.043	0.0145656
882.121	0.0145228
882.200	0.0145087
882.278	0.0143861
882.356	0.0143097
882.434	0.0145352
882.512	0.0144440
882.590	0.0144488
882.668	0.0142360
882.746	0.0143795
882.825	0.0144976
882.903	0.0144624
882.981	0.0143751
883.059	0.0144300
883.137	0.0145385
883.215	0.0144128
883.293	0.0144278
883.371	0.0144947
883.450	0.0144724
883.528	0.0144188
883.606	0.0143521
883.684	0.0143583
883.762	0.0143554
883.840	0.0142805
883.918	0.0144637
883.996	0.0143576
884.075	0.0141724
884.153	0.0143322
884.231	0.0143993
884.309	0.0143127
884.387	0.0142234
884.465	0.0143456
884.543	0.0142471
884.621	0.0143362
884.700	0.0142418
884.778	0.0142899
884.856	0.0143924
884.934	0.0144498
885.012	0.0143641
885.090	0.0142820
885.168	0.0145358
885.246	0.0143913
885.325	0.0143939
885.403	0.0143892
885.481	0.0143925
885.559	0.0143543
885.637	0.0143777
885.715	0.0142606
885.793	0.0142657
885.871	0.0143305
885.950	0.0142041
886.028	0.0143219
886.106	0.0143133
886.184	0.0142146
886.262	0.0140438
886.340	0.0142151
886.418	0.0141880
886.496	0.0141519
886.575	0.0142323
886.653	0.0142282
886.731	0.0141841
886.809	0.0142782
886.887	0.0143179
886.965	0.0142136
887.043	0.0143378
887.121	0.0144547
887.200	0.0143914
887.278	0.0142020
887.356	0.0142503
887.434	0.0142999
887.512	0.0143446
887.590	0.0143643
887.668	0.0143518
887.746	0.0143941
887.825	0.0143040
887.903	0.0142793
887.981	0.0142780
888.059	0.0142672
888.137	0.0143227
888.215	0.0144289
888.293	0.0144223
888.371	0.0143262
888.450	0.0143452
888.528	0.0143774
888.606	0.0144241
888.684	0.0143719
888.762	0.0144429
888.840	0.0142966
888.918	0.0143155
888.996	0.0144272
889.075	0.0142974
889.153	0.0143665
889.231	0.0144801
889.309	0.0142822
889.387	0.0142952
889.465	0.0143070
889.543	0.0143264
889.621	0.0144342
889.700	0.0144073
889.778	0.0143633
889.856	0.0143951
889.934	0.0142472
890.012	0.0144079
890.090	0.0144818
890.168	0.0144451
890.246	0.0145007
890.325	0.0146179
890.403	0.0144862
890.481	0.0143916
890.559	0.0144353
890.637	0.0143196
890.715	0.0142612
890.793	0.0141781
890.871	0.0142431
890.950	0.0142279
891.028	0.0143128
891.106	0.0142470
891.184	0.0144628
891.262	0.0143690
891.340	0.0144278
891.418	0.0145270
891.496	0.0145280
891.575	0.0145503
891.653	0.0145535
891.731	0.0144772
891.809	0.0144915
891.887	0.0143906
891.965	0.0144562
892.043	0.0146242
892.121	0.0145218
892.200	0.0145134
892.278	0.0142979
892.356	0.0143588
892.434	0.0143880
892.512	0.0143125
892.590	0.0143565
892.668	0.0143095
892.746	0.0143421
892.825	0.0144683
892.903	0.0144928
892.981	0.0144186
893.059	0.0143276
893.137	0.0145126
893.215	0.0146914
893.293	0.0145654
893.371	0.0144868
893.450	0.0146768
893.528	0.0146539
893.606	0.0145849
893.684	0.0144984
893.762	0.0145352
893.840	0.0144066
893.918	0.0144242
893.996	0.0143581
894.075	0.0144244
894.153	0.0144072
894.231	0.0144019
894.309	0.0144057
894.387	0.0143607
894.465	0.0141743
894.543	0.0143066
894.621	0.0143776
894.700	0.0143165
894.778	0.0144016
894.856	0.0145016
894.934	0.0144498
895.012	0.0145135
895.090	0.0145794
895.168	0.0145750
895.246	0.0145291
895.325	0.0144977
895.403	0.0145776
895.481	0.0147338
895.559	0.0145826
895.637	0.0146292
895.715	0.0147453
895.793	0.0145318
895.871	0.0144470
895.950	0.0145662
896.028	0.0144217
896.106	0.0145403
896.184	0.0143674
896.262	0.0143862
896.340	0.0143157
896.418	0.0141734
896.496	0.0142895
896.575	0.0142329
896.653	0.0141955
896.731	0.0142339
896.809	0.0142197
896.887	0.0144447
896.965	0.0145271
897.043	0.0144930
897.121	0.0145345
897.200	0.0145526
897.278	0.0147841
897.356	0.0146249
897.434	0.0147516
897.512	0.0146209
897.590	0.0147251
897.668	0.0146400
897.746	0.0145648
897.825	0.0145598
897.903	0.0145018
897.981	0.0145063
898.059	0.0145648
898.137	0.0143440
898.215	0.0144127
898.293	0.0142805
898.371	0.0144210
898.450	0.0143450
898.528	0.0143184
898.606	0.0143449
898.684	0.0143679
898.762	0.0143951
898.840	0.0143748
898.918	0.0143501
898.996	0.0143707
899.075	0.0144125
899.153	0.0144460
899.231	0.0144846
899.309	0.0145033
899.387	0.0144609
899.465	0.0144002
899.543	0.0146077
899.621	0.0146641
899.700	0.0146711
899.778	0.0145567
899.856	0.0146326
899.934	0.0143962
900.012	0.0144794
900.090	0.0144224
900.168	0.0143669
900.246	0.0144736
900.325	0.0145114
900.403	0.0144403
900.481	0.0143701
900.559	0.0143327
900.637	0.0144547
900.715	0.0143355
900.793	0.0143027
900.871	0.0144539
900.950	0.0143362
901.028	0.0144475
901.106	0.0143941
901.184	0.0144219
901.262	0.0145210
901.340	0.0145478
901.418	0.0145136
901.496	0.0144584
901.575	0.0144667
901.653	0.0143970
901.731	0.0145592
901.809	0.0144846
901.887	0.0144576
901.965	0.0144498
902.043	0.0144339
902.121	0.0145548
902.200	0.0144039
902.278	0.0144590
902.356	0.0144116
902.434	0.0144289
902.512	0.0144537
902.590	0.0143809
902.668	0.0143517
902.746	0.0143948
902.825	0.0144463
902.903	0.0143631
902.981	0.0143760
903.059	0.0144296
903.137	0.0144508
903.215	0.0143252
903.293	0.0142957
903.371	0.0144560
903.450	0.0144386
903.528	0.0143931
903.606	0.0144933
903.684	0.0143531
903.762	0.0145352
903.840	0.0143918
903.918	0.0143917
903.996	0.0142628
904.075	0.0143326
904.153	0.0144305
904.231	0.0143692
904.309	0.0143925
904.387	0.0144057
904.465	0.0145154
904.543	0.0142751
904.621	0.0144197
904.700	0.0144218
904.778	0.0143259
904.856	0.0144008
904.934	0.0144925
905.012	0.0143735
905.090	0.0144930
905.168	0.0144518
905.246	0.0144213
905.325	0.0145620
905.403	0.0145045
905.481	0.0143331
905.559	0.0143755
905.637	0.0144662
905.715	0.0143207
905.793	0.0144887
905.871	0.0144041
905.950	0.0144971
906.028	0.0144012
906.106	0.0144674
906.184	0.0143401
906.262	0.0142798
906.340	0.0143446
906.418	0.0143695
906.496	0.0144119
906.575	0.0144527
906.653	0.0143771
906.731	0.0144439
906.809	0.0144949
906.887	0.0145055
906.965	0.0145212
907.043	0.0144118
907.121	0.0145216
907.200	0.0145475
907.278	0.0144339
907.356	0.0144209
907.434	0.0143221
907.512	0.0144993
907.590	0.0145216
907.668	0.0143913
907.746	0.0143902
907.825	0.0143230
907.903	0.0142419
907.981	0.0143466
908.059	0.0144707
908.137	0.0142669
908.215	0.0142817
908.293	0.0142699
908.371	0.0142796
908.450	0.0143240
908.528	0.0142917
908.606	0.0143876
908.684	0.0143845
908.762	0.0142113
908.840	0.0143203
908.918	0.0143675
908.996	0.0143854
909.075	0.0143766
909.153	0.0143222
909.231	0.0143540
909.309	0.0143637
909.387	0.0143709
909.465	0.0143808
909.543	0.0143134
909.621	0.0144678
909.700	0.0144930
909.778	0.0144143
909.856	0.0143824
909.934	0.0143367
910.012	0.0143010
910.090	0.0142609
910.168	0.0144123
910.246	0.0143698
910.325	0.0143034
910.403	0.0144274
910.481	0.0143478
910.559	0.0143515
910.637	0.0141542
910.715	0.0143186
910.793	0.0144266
910.871	0.0143213
910.950	0.0143839
911.028	0.0143797
911.106	0.0144456
911.184	0.0143655
911.262	0.0143417
911.340	0.0143143
911.418	0.0144527
911.496	0.0144359
911.575	0.0144935
911.653	0.0144169
911.731	0.0145319
911.809	0.0144916
911.887	0.0144798
911.965	0.0146140
912.043	0.0145244
912.121	0.0143793
912.200	0.0143401
912.278	0.0143340
912.356	0.0143450
912.434	0.0143591
912.512	0.0142970
912.590	0.0144616
912.668	0.0142718
912.746	0.0143473
912.825	0.0142688
912.903	0.0142603
912.981	0.0143333
913.059	0.0142620
913.137	0.0142441
913.215	0.0143737
913.293	0.0141457
913.371	0.0142809
913.450	0.0143297
913.528	0.0144190
913.606	0.0144137
913.684	0.0144593
913.762	0.0144023
913.840	0.0145127
913.918	0.0144941
913.996	0.0143822
914.075	0.0145725
914.153	0.0145623
914.231	0.0145618
914.309	0.0146113
914.387	0.0145355
914.465	0.0145396
914.543	0.0144960
914.621	0.0143374
914.700	0.0142870
914.778	0.0142680
914.856	0.0144081
914.934	0.0144237
915.012	0.0143858
915.090	0.0142280
915.168	0.0143233
915.246	0.0144299
915.325	0.0142595
915.403	0.0142099
915.481	0.0144794
915.559	0.0142427
915.637	0.0144276
915.715	0.0144055
915.793	0.0145605
915.871	0.0145235
915.950	0.0145182
916.028	0.0145187
916.106	0.0145317
916.184	0.0145232
916.262	0.0144828
916.340	0.0145509
916.418	0.0146838
916.496	0.0145940
916.575	0.0144786
916.653	0.0146227
916.731	0.0145336
916.809	0.0146247
916.887	0.0145365
916.965	0.0144589
917.043	0.0143730
917.121	0.0144553
917.200	0.0143115
917.278	0.0144218
917.356	0.0144428
917.434	0.0143761
917.512	0.0143130
917.590	0.0144748
917.668	0.0144080
917.746	0.0143565
917.825	0.0144482
917.903	0.0144444
917.981	0.0144750
918.059	0.0144957
918.137	0.0143346
918.215	0.0144370
918.293	0.0144006
918.371	0.0145395
918.450	0.0145219
918.528	0.0145444
918.606	0.0145230
918.684	0.0144758
918.762	0.0144492
918.840	0.0144135
918.918	0.0143698
918.996	0.0145287
919.075	0.0144995
919.153	0.0146239
919.231	0.0144892
919.309	0.0144827
919.387	0.0146601
919.465	0.0146769
919.543	0.0144670
919.621	0.0145110
919.700	0.0145019
919.778	0.0143641
919.856	0.0145128
919.934	0.0144765
920.012	0.0144851
920.090	0.0143761
920.168	0.0143534
920.246	0.0143652
920.325	0.0144374
920.403	0.0144474
920.481	0.0143024
920.559	0.0142379
920.637	0.0144408
920.715	0.0143377
920.793	0.0144038
920.871	0.0142543
920.950	0.0144459
921.028	0.0143926
921.106	0.0143188
921.184	0.0144185
921.262	0.0144791
921.340	0.0143845
921.418	0.0144441
921.496	0.0143900
921.575	0.0144302
921.653	0.0144321
921.731	0.0144860
921.809	0.0144831
921.887	0.0145494
921.965	0.0144614
922.043	0.0145415
922.121	0.0144949
922.200	0.0143948
922.278	0.0145312
922.356	0.0144976
922.434	0.0144344
922.512	0.0143716
922.590	0.0144263
922.668	0.0142585
922.746	0.0142737
922.825	0.0143294
922.903	0.0143419
922.981	0.0143457
923.059	0.0143403
923.137	0.0144047
923.215	0.0144322
923.293	0.0143297
923.371	0.0145422
923.450	0.0144067
923.528	0.0143736
923.606	0.0143887
923.684	0.0144714
923.762	0.0144662
923.840	0.0144341
923.918	0.0143488
923.996	0.0144544
924.075	0.0144704
924.153	0.0144199
924.231	0.0145544
924.309	0.0142918
924.387	0.0143164
924.465	0.0144402
924.543	0.0142503
924.621	0.0144760
924.700	0.0144572
924.778	0.0143811
924.856	0.0143245
924.934	0.0143081
925.012	0.0143783
925.090	0.0143483
925.168	0.0144626
925.246	0.0144400
925.325	0.0145661
925.403	0.0144025
925.481	0.0144521
925.559	0.0142345
925.637	0.0144308
925.715	0.0145137
925.793	0.0144067
925.871	0.0143103
925.950	0.0143878
926.028	0.0145345
926.106	0.0143987
926.184	0.0143713
926.262	0.0143302
926.340	0.0144039
926.418	0.0145197
926.496	0.0144654
926.575	0.0142605
926.653	0.0143458
926.731	0.0143578
926.809	0.0144460
926.887	0.0144111
926.965	0.0144286
927.043	0.0143790
927.121	0.0144211
927.200	0.0144451
927.278	0.0144179
927.356	0.0142845
927.434	0.0145399
927.512	0.0145166
927.590	0.0145062
927.668	0.0144933
927.746	0.0143647
927.825	0.0144662
927.903	0.0144017
927.981	0.0143217
928.059	0.0143133
928.137	0.0144981
928.215	0.0145570
928.293	0.0144540
928.371	0.0144374
928.450	0.0143686
928.528	0.0143949
928.606	0.0144632
928.684	0.0144968
928.762	0.0144543
928.840	0.0144734
928.918	0.0143883
928.996	0.0143038
929.075	0.0144001
929.153	0.0143295
929.231	0.0143160
929.309	0.0143822
929.387	0.0144660
929.465	0.0143251
929.543	0.0143867
929.621	0.0143123
929.700	0.0142963
929.778	0.0144152
929.856	0.0144066
929.934	0.0142474
930.012	0.0143286
930.090	0.0144188
930.168	0.0144701
930.246	0.0145195
930.325	0.0143969
930.403	0.0144765
930.481	0.0144925
930.559	0.0144344
930.637	0.0143661
930.715	0.0144990
930.793	0.0143101
930.871	0.0143327
930.950	0.0142947
931.028	0.0143483
931.106	0.0144809
931.184	0.0144714
931.262	0.0144017
931.340	0.0144334
931.418	0.0144376
931.496	0.0144731
931.575	0.0143861
931.653	0.0145010
931.731	0.0145461
931.809	0.0143867
931.887	0.0144830
931.965	0.0145773
932.043	0.0144080
932.121	0.0145403
932.200	0.0143887
932.278	0.0143700
932.356	0.0143449
932.434	0.0145758
932.512	0.0144820
932.590	0.0143634
932.668	0.0144227
932.746	0.0143960
932.825	0.0144204
932.903	0.0144943
932.981	0.0143562
933.059	0.0143835
933.137	0.0142900
933.215	0.0143071
933.293	0.0143230
933.371	0.0144070
933.450	0.0143709
933.528	0.0143546
933.606	0.0143052
933.684	0.0143218
933.762	0.0145566
933.840	0.0146624
933.918	0.0144049
933.996	0.0144591
934.075	0.0144997
934.153	0.0144321
934.231	0.0145336
934.309	0.0144370
934.387	0.0144722
934.465	0.0144594
934.543	0.0144431
934.621	0.0143795
934.700	0.0144482
934.778	0.0143979
934.856	0.0145870
934.934	0.0144724
935.012	0.0141758
935.090	0.0142767
935.168	0.0145406
935.246	0.0144585
935.325	0.0143752
935.403	0.0144624
935.481	0.0143655
935.559	0.0144193
935.637	0.0144888
935.715	0.0144260
935.793	0.0144302
935.871	0.0144698
935.950	0.0143889
936.028	0.0144783
936.106	0.0144487
936.184	0.0143919
936.262	0.0142957
936.340	0.0144544
936.418	0.0143916
936.496	0.0143600
936.575	0.0143089
936.653	0.0144302
936.731	0.0145046
936.809	0.0144200
936.887	0.0143726
936.965	0.0143201
937.043	0.0145258
937.121	0.0145348
937.200	0.0144119
937.278	0.0145356
937.356	0.0144740
937.434	0.0145737
937.512	0.0143757
937.590	0.0144650
937.668	0.0144711
937.746	0.0143326
937.825	0.0144426
937.903	0.0143681
937.981	0.0143208
938.059	0.0143517
938.137	0.0144444
938.215	0.0144836
938.293	0.0143081
938.371	0.0143342
938.450	0.0143556
938.528	0.0143487
938.606	0.0144348
938.684	0.0143787
938.762	0.0143779
938.840	0.0143695
938.918	0.0144779
938.996	0.0144032
939.075	0.0143941
939.153	0.0143731
939.231	0.0143951
939.309	0.0145606
939.387	0.0144500
939.465	0.0145261
939.543	0.0144213
939.621	0.0144917
939.700	0.0143929
939.778	0.0143316
939.856	0.0143124
939.934	0.0143369
940.012	0.0144452
940.090	0.0143938
940.168	0.0144595
940.246	0.0144153
940.325	0.0143716
940.403	0.0143866
940.481	0.0144619
940.559	0.0143599
940.637	0.0143947
940.715	0.0144209
940.793	0.0143509
940.871	0.0143945
940.950	0.0144574
941.028	0.0144837
941.106	0.0144015
941.184	0.0143745
941.262	0.0145464
941.340	0.0144743
941.418	0.0143974
941.496	0.0144782
941.575	0.0146034
941.653	0.0143743
941.731	0.0145197
941.809	0.0144598
941.887	0.0144778
941.965	0.0144692
942.043	0.0144547
942.121	0.0143754
942.200	0.0144039
942.278	0.0143239
942.356	0.0141782
942.434	0.0144259
942.512	0.0143678
942.590	0.0144282
942.668	0.0143706
942.746	0.0142529
942.825	0.0142677
942.903	0.0143436
942.981	0.0143451
943.059	0.0143988
943.137	0.0143182
943.215	0.0143208
943.293	0.0143510
943.371	0.0143929
943.450	0.0144384
943.528	0.0144205
943.606	0.0143532
943.684	0.0142171
943.762	0.0144187
943.840	0.0144029
943.918	0.0142557
943.996	0.0143444
944.075	0.0144749
944.153	0.0143909
944.231	0.0145476
944.309	0.0145431
944.387	0.0143265
944.465	0.0143858
944.543	0.0144296
944.621	0.0143763
944.700	0.0144434
944.778	0.0144968
944.856	0.0145159
944.934	0.0143330
945.012	0.0145550
945.090	0.0145547
945.168	0.0144431
945.246	0.0144106
945.325	0.0144688
945.403	0.0143147
945.481	0.0144559
945.559	0.0144636
945.637	0.0142857
945.715	0.0142240
945.793	0.0144301
945.871	0.0144230
945.950	0.0142165
946.028	0.0142939
946.106	0.0141962
946.184	0.0142711
946.262	0.0142419
946.340	0.0143479
946.418	0.0142246
946.496	0.0143573
946.575	0.0143090
946.653	0.0142727
946.731	0.0143489
946.809	0.0144119
946.887	0.0142784
946.965	0.0144356
947.043	0.0143567
947.121	0.0143905
947.200	0.0143613
947.278	0.0143021
947.356	0.0144315
947.434	0.0142822
947.512	0.0143742
947.590	0.0144634
947.668	0.0144051
947.746	0.0142386
947.825	0.0143291
947.903	0.0143803
947.981	0.0143964
948.059	0.0142032
948.137	0.0142765
948.215	0.0143280
948.293	0.0143685
948.371	0.0143798
948.450	0.0143950
948.528	0.0143723
948.606	0.0145010
948.684	0.0143262
948.762	0.0143334
948.840	0.0143967
948.918	0.0143829
948.996	0.0144714
949.075	0.0142233
949.153	0.0143251
949.231	0.0143883
949.309	0.0143259
949.387	0.0144240
949.465	0.0144536
949.543	0.0143932
949.621	0.0143620
949.700	0.0143966
949.778	0.0142114
949.856	0.0145042
949.934	0.0143476
950.012	0.0144120
950.090	0.0144555
950.168	0.0143665
950.246	0.0144955
950.325	0.0144886
950.403	0.0145580
950.481	0.0145573
950.559	0.0144523
950.637	0.0143398
950.715	0.0145103
950.793	0.0143929
950.871	0.0144191
950.950	0.0144711
951.028	0.0144563
951.106	0.0144411
951.184	0.0143620
951.262	0.0145536
951.340	0.0144674
951.418	0.0143848
951.496	0.0144287
951.575	0.0145272
951.653	0.0143958
951.731	0.0145140
951.809	0.0144134
951.887	0.0143792
951.965	0.0144521
952.043	0.0145276
952.121	0.0144774
952.200	0.0144944
952.278	0.0147014
952.356	0.0146886
952.434	0.0145232
952.512	0.0145197
952.590	0.0145181
952.668	0.0147183
952.746	0.0146290
952.825	0.0146109
952.903	0.0146561
952.981	0.0146004
953.059	0.0145109
953.137	0.0145549
953.215	0.0145612
953.293	0.0144469
953.371	0.0145158
953.450	0.0145023
953.528	0.0144561
953.606	0.0143752
953.684	0.0144071
953.762	0.0144046
953.840	0.0143746
953.918	0.0144110
953.996	0.0143873
954.075	0.0143901
954.153	0.0144051
954.231	0.0143757
954.309	0.0142725
954.387	0.0144421
954.465	0.0144534
954.543	0.0144395
954.621	0.0144068
954.700	0.0144440
954.778	0.0144192
954.856	0.0144035
954.934	0.0144000
955.012	0.0143935
955.090	0.0144611
955.168	0.0144070
955.246	0.0143037
955.325	0.0144470
955.403	0.0144524
955.481	0.0143443
955.559	0.0143785
955.637	0.0143216
955.715	0.0143069
955.793	0.0143017
955.871	0.0143362
955.950	0.0143851
956.028	0.0143611
956.106	0.0144058
956.184	0.0144006
956.262	0.0143341
956.340	0.0143047
956.418	0.0144087
956.496	0.0143384
956.575	0.0143914
956.653	0.0143364
956.731	0.0145288
956.809	0.0142617
956.887	0.0142622
956.965	0.0145007
957.043	0.0143272
957.121	0.0143896
957.200	0.0144228
957.278	0.0144476
957.356	0.0144267
957.434	0.0143708
957.512	0.0143112
957.590	0.0143819
957.668	0.0143262
957.746	0.0143524
957.825	0.0143510
957.903	0.0143909
957.981	0.0144189
958.059	0.0144096
958.137	0.0145206
958.215	0.0144400
958.293	0.0143224
958.371	0.0144698
958.450	0.0144738
958.528	0.0143812
958.606	0.0142843
958.684	0.0144959
958.762	0.0144562
958.840	0.0144835
958.918	0.0143645
958.996	0.0144550
959.075	0.0144473
959.153	0.0144181
959.231	0.0143526
959.309	0.0144655
959.387	0.0145789
959.465	0.0145713
959.543	0.0144682
959.621	0.0144349
959.700	0.0144006
959.778	0.0143031
959.856	0.0144921
959.934	0.0144815
960.012	0.0144661
960.090	0.0143980
960.168	0.0145612
960.246	0.0144855
960.325	0.0144612
960.403	0.0144859
960.481	0.0145016
960.559	0.0144781
960.637	0.0145006
960.715	0.0144412
960.793	0.0144298
960.871	0.0144762
960.950	0.0145443
961.028	0.0144817
961.106	0.0144556
961.184	0.0143978
961.262	0.0145150
961.340	0.0145200
961.418	0.0144701
961.496	0.0144294
961.575	0.0144711
961.653	0.0143858
961.731	0.0144704
961.809	0.0145135
961.887	0.0143678
961.965	0.0142725
962.043	0.0144753
962.121	0.0145232
962.200	0.0144532
962.278	0.0144448
962.356	0.0145479
962.434	0.0144727
962.512	0.0145678
962.590	0.0143213
962.668	0.0143776
962.746	0.0144781
962.825	0.0145013
962.903	0.0143253
962.981	0.0143844
963.059	0.0145268
963.137	0.0144237
963.215	0.0143967
963.293	0.0142972
963.371	0.0142347
963.450	0.0144069
963.528	0.0143711
963.606	0.0144161
963.684	0.0143840
963.762	0.0143683
963.840	0.0144154
963.918	0.0142423
963.996	0.0143367
964.075	0.0143512
964.153	0.0143145
964.231	0.0143051
964.309	0.0142854
964.387	0.0143243
964.465	0.0143491
964.543	0.0143297
964.621	0.0142750
964.700	0.0143176
964.778	0.0143647
964.856	0.0143731
964.934	0.0144106
965.012	0.0145107
965.090	0.0143886
965.168	0.0144223
965.246	0.0143102
965.325	0.0142818
965.403	0.0142828
965.481	0.0144423
965.559	0.0144832
965.637	0.0144931
965.715	0.0142628
965.793	0.0143147
965.871	0.0144048
965.950	0.0143022
966.028	0.0143394
966.106	0.0144260
966.184	0.0143664
966.262	0.0142867
966.340	0.0143636
966.418	0.0143880
966.496	0.0144604
966.575	0.0144421
966.653	0.0143131
966.731	0.0143770
966.809	0.0144347
966.887	0.0143810
966.965	0.0143788
967.043	0.0145139
967.121	0.0145637
967.200	0.0144306
967.278	0.0144692
967.356	0.0143364
967.434	0.0143702
967.512	0.0145631
967.590	0.0146289
967.668	0.0144981
967.746	0.0145173
967.825	0.0146139
967.903	0.0144820
967.981	0.0145344
968.059	0.0145710
968.137	0.0146037
968.215	0.0145123
968.293	0.0145404
968.371	0.0144505
968.450	0.0144700
968.528	0.0144875
968.606	0.0143776
968.684	0.0144143
968.762	0.0146255
968.840	0.0143626
968.918	0.0144666
968.996	0.0145989
969.075	0.0146145
969.153	0.0145489
969.231	0.0145103
969.309	0.0145657
969.387	0.0145396
969.465	0.0146107
969.543	0.0145441
969.621	0.0145546
969.700	0.0144178
969.778	0.0145698
969.856	0.0144026
969.934	0.0145219
970.012	0.0144643
970.090	0.0143851
970.168	0.0143442
970.246	0.0143257
970.325	0.0144492
970.403	0.0144489
970.481	0.0143678
970.559	0.0144728
970.637	0.0144396
970.715	0.0144043
970.793	0.0144073
970.871	0.0144501
970.950	0.0145930
971.028	0.0145684
971.106	0.0144624
971.184	0.0143773
971.262	0.0145293
971.340	0.0143195
971.418	0.0144826
971.496	0.0145000
971.575	0.0143372
971.653	0.0144327
971.731	0.0143954
971.809	0.0144836
971.887	0.0143700
971.965	0.0142662
972.043	0.0142776
972.121	0.0144667
972.200	0.0143722
972.278	0.0142279
972.356	0.0143538
972.434	0.0143259
972.512	0.0143771
972.590	0.0144213
972.668	0.0143513
972.746	0.0143999
972.825	0.0143268
972.903	0.0142851
972.981	0.0140642
973.059	0.0142986
973.137	0.0144142
973.215	0.0143378
973.293	0.0145264
973.371	0.0144212
973.450	0.0142773
973.528	0.0143049
973.606	0.0144595
973.684	0.0145000
973.762	0.0144132
973.840	0.0143691
973.918	0.0143816
973.996	0.0143193
974.075	0.0143897
974.153	0.0142928
974.231	0.0144079
974.309	0.0144044
974.387	0.0142692
974.465	0.0143604
974.543	0.0143813
974.621	0.0143788
974.700	0.0143735
974.778	0.0144626
974.856	0.0143956
974.934	0.0144501
975.012	0.0145473
975.090	0.0144973
975.168	0.0144590
975.246	0.0142999
975.325	0.0144122
975.403	0.0144740
975.481	0.0144170
975.559	0.0144238
975.637	0.0144585
975.715	0.0143339
975.793	0.0144387
975.871	0.0144086
975.950	0.0144231
976.028	0.0143903
976.106	0.0143858
976.184	0.0144046
976.262	0.0143969
976.340	0.0144723
976.418	0.0145155
976.496	0.0145194
976.575	0.0144234
976.653	0.0143533
976.731	0.0144720
976.809	0.0145352
976.887	0.0145008
976.965	0.0145321
977.043	0.0144647
977.121	0.0146880
977.200	0.0146756
977.278	0.0145502
977.356	0.0145222
977.434	0.0145940
977.512	0.0145250
977.590	0.0145037
977.668	0.0144905
977.746	0.0145402
977.825	0.0145123
977.903	0.0145550
977.981	0.0145193
978.059	0.0144000
978.137	0.0144838
978.215	0.0143735
978.293	0.0145151
978.371	0.0146176
978.450	0.0145235
978.528	0.0144315
978.606	0.0144313
978.684	0.0143904
978.762	0.0143902
978.840	0.0145070
978.918	0.0145838
978.996	0.0143530
979.075	0.0144653
979.153	0.0145251
979.231	0.0143506
979.309	0.0144749
979.387	0.0145081
979.465	0.0144273
979.543	0.0144871
979.621	0.0146131
979.700	0.0144832
979.778	0.0144341
979.856	0.0143750
979.934	0.0143676
980.012	0.0144215
980.090	0.0144180
980.168	0.0144449
980.246	0.0143354
980.325	0.0144016
980.403	0.0145371
980.481	0.0144651
980.559	0.0144199
980.637	0.0144832
980.715	0.0144126
980.793	0.0144728
980.871	0.0143234
980.950	0.0143819
981.028	0.0144539
981.106	0.0144547
981.184	0.0144336
981.262	0.0143943
981.340	0.0143856
981.418	0.0144487
981.496	0.0145773
981.575	0.0143304
981.653	0.0144806
981.731	0.0144996
981.809	0.0145676
981.887	0.0144705
981.965	0.0143969
982.043	0.0144497
982.121	0.0143940
982.200	0.0145209
982.278	0.0144232
982.356	0.0143828
982.434	0.0143703
982.512	0.0144303
982.590	0.0143864
982.668	0.0144223
982.746	0.0144803
982.825	0.0143163
982.903	0.0144580
982.981	0.0143268
983.059	0.0143178
983.137	0.0143176
983.215	0.0144784
983.293	0.0144300
983.371	0.0145439
983.450	0.0145090
983.528	0.0145558
983.606	0.0145222
983.684	0.0144801
983.762	0.0146095
983.840	0.0145221
983.918	0.0146227
983.996	0.0143835
984.075	0.0143542
984.153	0.0144579
984.231	0.0145049
984.309	0.0145567
984.387	0.0143838
984.465	0.0143584
984.543	0.0142384
984.621	0.0143641
984.700	0.0142992
984.778	0.0142766
984.856	0.0142875
984.934	0.0141782
985.012	0.0142194
985.090	0.0143449
985.168	0.0143107
985.246	0.0143958
985.325	0.0143177
985.403	0.0143233
985.481	0.0143490
985.559	0.0143596
985.637	0.0143565
985.715	0.0143862
985.793	0.0144800
985.871	0.0146458
985.950	0.0145174
986.028	0.0144756
986.106	0.0145404
986.184	0.0143852
986.262	0.0144065
986.340	0.0143817
986.418	0.0143983
986.496	0.0144957
986.575	0.0143768
986.653	0.0144094
986.731	0.0143715
986.809	0.0144196
986.887	0.0143320
986.965	0.0142411
987.043	0.0143890
987.121	0.0143788
987.200	0.0142285
987.278	0.0143818
987.356	0.0144440
987.434	0.0143990
987.512	0.0145047
987.590	0.0143760
987.668	0.0143233
987.746	0.0143900
987.825	0.0144792
987.903	0.0144389
987.981	0.0142215
988.059	0.0144255
988.137	0.0144505
988.215	0.0142990
988.293	0.0143468
988.371	0.0143398
988.450	0.0144645
988.528	0.0142474
988.606	0.0143076
988.684	0.0144129
988.762	0.0143866
988.840	0.0143884
988.918	0.0144579
988.996	0.0143767
989.075	0.0143959
989.153	0.0144792
989.231	0.0143414
989.309	0.0144202
989.387	0.0144493
989.465	0.0143835
989.543	0.0143849
989.621	0.0143977
989.700	0.0144305
989.778	0.0143585
989.856	0.0144811
989.934	0.0144070
990.012	0.0144712
990.090	0.0146948
990.168	0.0143871
990.246	0.0142760
990.325	0.0144402
990.403	0.0142703
990.481	0.0143309
990.559	0.0143291
990.637	0.0144038
990.715	0.0144231
990.793	0.0143997
990.871	0.0143509
990.950	0.0143787
991.028	0.0143472
991.106	0.0143437
991.184	0.0143465
991.262	0.0144359
991.340	0.0144608
991.418	0.0144225
991.496	0.0144098
991.575	0.0144256
991.653	0.0143924
991.731	0.0144633
991.809	0.0144633
991.887	0.0143268
991.965	0.0145484
992.043	0.0144043
992.121	0.0143502
992.200	0.0142828
992.278	0.0144229
992.356	0.0142738
992.434	0.0143494
992.512	0.0143061
992.590	0.0143694
992.668	0.0143534
992.746	0.0142885
992.825	0.0144055
992.903	0.0143343
992.981	0.0143967
993.059	0.0145021
993.137	0.0143726
993.215	0.0144439
993.293	0.0144626
993.371	0.0144296
993.450	0.0144810
993.528	0.0144851
993.606	0.0144927
993.684	0.0144772
993.762	0.0145248
993.840	0.0144985
993.918	0.0145670
993.996	0.0145163
994.075	0.0145384
994.153	0.0145355
994.231	0.0143826
994.309	0.0144694
994.387	0.0144507
994.465	0.0145362
994.543	0.0144202
994.621	0.0143380
994.700	0.0144466
994.778	0.0144257
994.856	0.0143536
994.934	0.0143716
995.012	0.0144942
995.090	0.0144263
995.168	0.0144003
995.246	0.0144157
995.325	0.0145293
995.403	0.0143122
995.481	0.0144639
995.559	0.0145724
995.637	0.0145744
995.715	0.0144540
995.793	0.0144595
995.871	0.0144114
995.950	0.0144518
996.028	0.0143823
996.106	0.0144185
996.184	0.0144729
996.262	0.0145105
996.340	0.0145784
996.418	0.0144892
996.496	0.0145235
996.575	0.0145469
996.653	0.0144979
996.731	0.0146083
996.809	0.0143886
996.887	0.0143645
996.965	0.0145303
997.043	0.0144448
997.121	0.0144408
997.200	0.0143942
997.278	0.0143711
997.356	0.0144025
997.434	0.0143328
997.512	0.0143210
997.590	0.0143643
997.668	0.0145640
997.746	0.0144030
997.825	0.0143871
997.903	0.0143398
997.981	0.0144155
998.059	0.0143936
998.137	0.0144663
998.215	0.0144727
998.293	0.0144177
998.371	0.0144059
998.450	0.0145039
998.528	0.0145805
998.606	0.0144352
998.684	0.0143832
998.762	0.0144627
998.840	0.0144107
998.918	0.0144383
