05/04/2022	21:24:18	Ver.	4.1	UNKNOWN
Optical Delay	678.996401	Delta X		0.078125	Sweeps	1	Scan Rate	0/0
Coordinates	Axis 1	NaN	Axis 2	NaN	Axis 3	NaN	Axis 4	NaN	Axis 5	NaN	Axis 6	0.000000
TX Power	0.000000	RX Power	0.000000

678.996	0.0147170
679.075	0.0147322
679.153	0.0145972
679.231	0.0146729
679.309	0.0146606
679.387	0.0146290
679.465	0.0146588
679.543	0.0147112
679.621	0.0146530
679.700	0.0144838
679.778	0.0146238
679.856	0.0145512
679.934	0.0145801
680.012	0.0146791
680.090	0.0146395
680.168	0.0145977
680.246	0.0146530
680.325	0.0148248
680.403	0.0147233
680.481	0.0147068
680.559	0.0148679
680.637	0.0148336
680.715	0.0146437
680.793	0.0147348
680.871	0.0148074
680.950	0.0147361
681.028	0.0146220
681.106	0.0146302
681.184	0.0146439
681.262	0.0145618
681.340	0.0147112
681.418	0.0146228
681.496	0.0145488
681.575	0.0145316
681.653	0.0145290
681.731	0.0146249
681.809	0.0145757
681.887	0.0146657
681.965	0.0145718
682.043	0.0145894
682.121	0.0147010
682.200	0.0147511
682.278	0.0146873
682.356	0.0146210
682.434	0.0146056
682.512	0.0146286
682.590	0.0146288
682.668	0.0146516
682.746	0.0145576
682.825	0.0146321
682.903	0.0147130
682.981	0.0146529
683.059	0.0148719
683.137	0.0146518
683.215	0.0147391
683.293	0.0148958
683.371	0.0148263
683.450	0.0147662
683.528	0.0147731
683.606	0.0147411
683.684	0.0146978
683.762	0.0146205
683.840	0.0146763
683.918	0.0146554
683.996	0.0147016
684.075	0.0146908
684.153	0.0145470
684.231	0.0145570
684.309	0.0145483
684.387	0.0146577
684.465	0.0144515
684.543	0.0146056
684.621	0.0146283
684.700	0.0146216
684.778	0.0145290
684.856	0.0146277
684.934	0.0145319
685.012	0.0146322
685.090	0.0146784
685.168	0.0146188
685.246	0.0145786
685.325	0.0147257
685.403	0.0147666
685.481	0.0146016
685.559	0.0148003
685.637	0.0145647
685.715	0.0146609
685.793	0.0147464
685.871	0.0147358
685.950	0.0148637
686.028	0.0147969
686.106	0.0147633
686.184	0.0147257
686.262	0.0146829
686.340	0.0147142
686.418	0.0146386
686.496	0.0147229
686.575	0.0145822
686.653	0.0145893
686.731	0.0145997
686.809	0.0145608
686.887	0.0144440
686.965	0.0145512
687.043	0.0144135
687.121	0.0144633
687.200	0.0145287
687.278	0.0145660
687.356	0.0145309
687.434	0.0145485
687.512	0.0146716
687.590	0.0147397
687.668	0.0147383
687.746	0.0148136
687.825	0.0147691
687.903	0.0148421
687.981	0.0147202
688.059	0.0147140
688.137	0.0147630
688.215	0.0148215
688.293	0.0147886
688.371	0.0147356
688.450	0.0148549
688.528	0.0147688
688.606	0.0146429
688.684	0.0147228
688.762	0.0146545
688.840	0.0147943
688.918	0.0149032
688.996	0.0148383
689.075	0.0146052
689.153	0.0147298
689.231	0.0147251
689.309	0.0148689
689.387	0.0147287
689.465	0.0147726
689.543	0.0148330
689.621	0.0146159
689.700	0.0146075
689.778	0.0144937
689.856	0.0145602
689.934	0.0144289
690.012	0.0144689
690.090	0.0145502
690.168	0.0145788
690.246	0.0146045
690.325	0.0147852
690.403	0.0147151
690.481	0.0147145
690.559	0.0147893
690.637	0.0148286
690.715	0.0148324
690.793	0.0148827
690.871	0.0149772
690.950	0.0150516
691.028	0.0150174
691.106	0.0149754
691.184	0.0149846
691.262	0.0148811
691.340	0.0148530
691.418	0.0148094
691.496	0.0147928
691.575	0.0146587
691.653	0.0145877
691.731	0.0144151
691.809	0.0142631
691.887	0.0144067
691.965	0.0143034
692.043	0.0142102
692.121	0.0143204
692.200	0.0144466
692.278	0.0145999
692.356	0.0145657
692.434	0.0145731
692.512	0.0146506
692.590	0.0148147
692.668	0.0149785
692.746	0.0150150
692.825	0.0150870
692.903	0.0150082
692.981	0.0151350
693.059	0.0150842
693.137	0.0151363
693.215	0.0151208
693.293	0.0148445
693.371	0.0149299
693.450	0.0147289
693.528	0.0146886
693.606	0.0145814
693.684	0.0144485
693.762	0.0144165
693.840	0.0142406
693.918	0.0141593
693.996	0.0141152
694.075	0.0142324
694.153	0.0142598
694.231	0.0144356
694.309	0.0143890
694.387	0.0145434
694.465	0.0147816
694.543	0.0148112
694.621	0.0148321
694.700	0.0151271
694.778	0.0150405
694.856	0.0150485
694.934	0.0151276
695.012	0.0151628
695.090	0.0151210
695.168	0.0151118
695.246	0.0151333
695.325	0.0152211
695.403	0.0149791
695.481	0.0148120
695.559	0.0146941
695.637	0.0146024
695.715	0.0145182
695.793	0.0143829
695.871	0.0141411
695.950	0.0141098
696.028	0.0142005
696.106	0.0141700
696.184	0.0142692
696.262	0.0143644
696.340	0.0144438
696.418	0.0145513
696.496	0.0146373
696.575	0.0146283
696.653	0.0146387
696.731	0.0146886
696.809	0.0148437
696.887	0.0147877
696.965	0.0148314
697.043	0.0148002
697.121	0.0150671
697.200	0.0150889
697.278	0.0150117
697.356	0.0150443
697.434	0.0151651
697.512	0.0152660
697.590	0.0152255
697.668	0.0151639
697.746	0.0151152
697.825	0.0149316
697.903	0.0147125
697.981	0.0146964
698.059	0.0147425
698.137	0.0143575
698.215	0.0142223
698.293	0.0143120
698.371	0.0141777
698.450	0.0140299
698.528	0.0141866
698.606	0.0140726
698.684	0.0142071
698.762	0.0141945
698.840	0.0144373
698.918	0.0145872
698.996	0.0148147
699.075	0.0148877
699.153	0.0152289
699.231	0.0152377
699.309	0.0153827
699.387	0.0154353
699.465	0.0154283
699.543	0.0153306
699.621	0.0150626
699.700	0.0150038
699.778	0.0145889
699.856	0.0143540
699.934	0.0142418
700.012	0.0140967
700.090	0.0139483
700.168	0.0138594
700.246	0.0140062
700.325	0.0140149
700.403	0.0140013
700.481	0.0142230
700.559	0.0143993
700.637	0.0146840
700.715	0.0147353
700.793	0.0149359
700.871	0.0149368
700.950	0.0151764
701.028	0.0153207
701.106	0.0153022
701.184	0.0153728
701.262	0.0152718
701.340	0.0151854
701.418	0.0150887
701.496	0.0149277
701.575	0.0148023
701.653	0.0148247
701.731	0.0146798
701.809	0.0144986
701.887	0.0145113
701.965	0.0141624
702.043	0.0139771
702.121	0.0138382
702.200	0.0138113
702.278	0.0138455
702.356	0.0138545
702.434	0.0137816
702.512	0.0138585
702.590	0.0140227
702.668	0.0142657
702.746	0.0144749
702.825	0.0146899
702.903	0.0149334
702.981	0.0150049
703.059	0.0153443
703.137	0.0155226
703.215	0.0157529
703.293	0.0158370
703.371	0.0158963
703.450	0.0159452
703.528	0.0156598
703.606	0.0155527
703.684	0.0154893
703.762	0.0152387
703.840	0.0149874
703.918	0.0145766
703.996	0.0142112
704.075	0.0139487
704.153	0.0137820
704.231	0.0135688
704.309	0.0135213
704.387	0.0134254
704.465	0.0135630
704.543	0.0138042
704.621	0.0140657
704.700	0.0141472
704.778	0.0143925
704.856	0.0147634
704.934	0.0151762
705.012	0.0152097
705.090	0.0153447
705.168	0.0157016
705.246	0.0156889
705.325	0.0157677
705.403	0.0157304
705.481	0.0155814
705.559	0.0154966
705.637	0.0152680
705.715	0.0150938
705.793	0.0149648
705.871	0.0148629
705.950	0.0144910
706.028	0.0141280
706.106	0.0141776
706.184	0.0140293
706.262	0.0137756
706.340	0.0137794
706.418	0.0138657
706.496	0.0138451
706.575	0.0141279
706.653	0.0140548
706.731	0.0139557
706.809	0.0143277
706.887	0.0146090
706.965	0.0147102
707.043	0.0147607
707.121	0.0148109
707.200	0.0148965
707.278	0.0149770
707.356	0.0149255
707.434	0.0150671
707.512	0.0148499
707.590	0.0148051
707.668	0.0148634
707.746	0.0147598
707.825	0.0147571
707.903	0.0145670
707.981	0.0145928
708.059	0.0144463
708.137	0.0143080
708.215	0.0144673
708.293	0.0144410
708.371	0.0143856
708.450	0.0144414
708.528	0.0147213
708.606	0.0146210
708.684	0.0146815
708.762	0.0145570
708.840	0.0148035
708.918	0.0149177
708.996	0.0148968
709.075	0.0147901
709.153	0.0147768
709.231	0.0149110
709.309	0.0147839
709.387	0.0148287
709.465	0.0148271
709.543	0.0147865
709.621	0.0147896
709.700	0.0148647
709.778	0.0147215
709.856	0.0146312
709.934	0.0145414
710.012	0.0146526
710.090	0.0144987
710.168	0.0143100
710.246	0.0144064
710.325	0.0141949
710.403	0.0142198
710.481	0.0142367
710.559	0.0142011
710.637	0.0142904
710.715	0.0144118
710.793	0.0145763
710.871	0.0145969
710.950	0.0147110
711.028	0.0151012
711.106	0.0151743
711.184	0.0152504
711.262	0.0154886
711.340	0.0155306
711.418	0.0155922
711.496	0.0156217
711.575	0.0156776
711.653	0.0153379
711.731	0.0152917
711.809	0.0150362
711.887	0.0148434
711.965	0.0148143
712.043	0.0143514
712.121	0.0141072
712.200	0.0141747
712.278	0.0141080
712.356	0.0140609
712.434	0.0138510
712.512	0.0139162
712.590	0.0140685
712.668	0.0142447
712.746	0.0145098
712.825	0.0145269
712.903	0.0147392
712.981	0.0149742
713.059	0.0152178
713.137	0.0151196
713.215	0.0152940
713.293	0.0154416
713.371	0.0154196
713.450	0.0154706
713.528	0.0153538
713.606	0.0152363
713.684	0.0153218
713.762	0.0148713
713.840	0.0150865
713.918	0.0147568
713.996	0.0145851
714.075	0.0145104
714.153	0.0146051
714.231	0.0144655
714.309	0.0143688
714.387	0.0143639
714.465	0.0143349
714.543	0.0142100
714.621	0.0142031
714.700	0.0142752
714.778	0.0142493
714.856	0.0141426
714.934	0.0142221
715.012	0.0141315
715.090	0.0142236
715.168	0.0144110
715.246	0.0143713
715.325	0.0144884
715.403	0.0145409
715.481	0.0147724
715.559	0.0148386
715.637	0.0149158
715.715	0.0150476
715.793	0.0152574
715.871	0.0153327
715.950	0.0154355
716.028	0.0155807
716.106	0.0154469
716.184	0.0152695
716.262	0.0153060
716.340	0.0150421
716.418	0.0148260
716.496	0.0146365
716.575	0.0144228
716.653	0.0143211
716.731	0.0140855
716.809	0.0139385
716.887	0.0139262
716.965	0.0138326
717.043	0.0137889
717.121	0.0137363
717.200	0.0139278
717.278	0.0140452
717.356	0.0142960
717.434	0.0143406
717.512	0.0144596
717.590	0.0147373
717.668	0.0147656
717.746	0.0148564
717.825	0.0150421
717.903	0.0152635
717.981	0.0151424
718.059	0.0151135
718.137	0.0151762
718.215	0.0151279
718.293	0.0149912
718.371	0.0149342
718.450	0.0148643
718.528	0.0148911
718.606	0.0147290
718.684	0.0147268
718.762	0.0146324
718.840	0.0146774
718.918	0.0145896
718.996	0.0146146
719.075	0.0144938
719.153	0.0145287
719.231	0.0146613
719.309	0.0147233
719.387	0.0144072
719.465	0.0145774
719.543	0.0145420
719.621	0.0145721
719.700	0.0145454
719.778	0.0147408
719.856	0.0146143
719.934	0.0147121
720.012	0.0147591
720.090	0.0150022
720.168	0.0149644
720.246	0.0148650
720.325	0.0149081
720.403	0.0149081
720.481	0.0148415
720.559	0.0146670
720.637	0.0145852
720.715	0.0145990
720.793	0.0144749
720.871	0.0145581
720.950	0.0144259
721.028	0.0143210
721.106	0.0143610
721.184	0.0143204
721.262	0.0143284
721.340	0.0143478
721.418	0.0143492
721.496	0.0144468
721.575	0.0146251
721.653	0.0146503
721.731	0.0147740
721.809	0.0148812
721.887	0.0149867
721.965	0.0148574
722.043	0.0150833
722.121	0.0150993
722.200	0.0150164
722.278	0.0151677
722.356	0.0151712
722.434	0.0150227
722.512	0.0149964
722.590	0.0148918
722.668	0.0148732
722.746	0.0149002
722.825	0.0147971
722.903	0.0145799
722.981	0.0145196
723.059	0.0144140
723.137	0.0144967
723.215	0.0143974
723.293	0.0142908
723.371	0.0142587
723.450	0.0142618
723.528	0.0143839
723.606	0.0145900
723.684	0.0144989
723.762	0.0144247
723.840	0.0146594
723.918	0.0147269
723.996	0.0146992
724.075	0.0147390
724.153	0.0148795
724.231	0.0149423
724.309	0.0150093
724.387	0.0149269
724.465	0.0148245
724.543	0.0147520
724.621	0.0147973
724.700	0.0147075
724.778	0.0146502
724.856	0.0144855
724.934	0.0145655
725.012	0.0144748
725.090	0.0143778
725.168	0.0143823
725.246	0.0142960
725.325	0.0143115
725.403	0.0146581
725.481	0.0146893
725.559	0.0146210
725.637	0.0146423
725.715	0.0146956
725.793	0.0148389
725.871	0.0148338
725.950	0.0147127
726.028	0.0148923
726.106	0.0148867
726.184	0.0148075
726.262	0.0146921
726.340	0.0147654
726.418	0.0148015
726.496	0.0145985
726.575	0.0146356
726.653	0.0147376
726.731	0.0145834
726.809	0.0147897
726.887	0.0145948
726.965	0.0146371
727.043	0.0146469
727.121	0.0146480
727.200	0.0147533
727.278	0.0147935
727.356	0.0147552
727.434	0.0147654
727.512	0.0149033
727.590	0.0147656
727.668	0.0146378
727.746	0.0147505
727.825	0.0147821
727.903	0.0147184
727.981	0.0146851
728.059	0.0145927
728.137	0.0146244
728.215	0.0146438
728.293	0.0144205
728.371	0.0143556
728.450	0.0143676
728.528	0.0143315
728.606	0.0142997
728.684	0.0143639
728.762	0.0144572
728.840	0.0143827
728.918	0.0145311
728.996	0.0145028
729.075	0.0145944
729.153	0.0147217
729.231	0.0146779
729.309	0.0147829
729.387	0.0150079
729.465	0.0149490
729.543	0.0150967
729.621	0.0150855
729.700	0.0152083
729.778	0.0151304
729.856	0.0152486
729.934	0.0150934
730.012	0.0150475
730.090	0.0149603
730.168	0.0149506
730.246	0.0149093
730.325	0.0149194
730.403	0.0147137
730.481	0.0146976
730.559	0.0145949
730.637	0.0146201
730.715	0.0145817
730.793	0.0143668
730.871	0.0142770
730.950	0.0143304
731.028	0.0143238
731.106	0.0143991
731.184	0.0143507
731.262	0.0143612
731.340	0.0144145
731.418	0.0144942
731.496	0.0147166
731.575	0.0146712
731.653	0.0147528
731.731	0.0147957
731.809	0.0148156
731.887	0.0148157
731.965	0.0146876
732.043	0.0147009
732.121	0.0148737
732.200	0.0146973
732.278	0.0146706
732.356	0.0148318
732.434	0.0149522
732.512	0.0148877
732.590	0.0149184
732.668	0.0148060
732.746	0.0147839
732.825	0.0147734
732.903	0.0147236
732.981	0.0146735
733.059	0.0147381
733.137	0.0147369
733.215	0.0146180
733.293	0.0146460
733.371	0.0146762
733.450	0.0145866
733.528	0.0146449
733.606	0.0146433
733.684	0.0146650
733.762	0.0147158
733.840	0.0146189
733.918	0.0147057
733.996	0.0148441
734.075	0.0147435
734.153	0.0148238
734.231	0.0147708
734.309	0.0149620
734.387	0.0148205
734.465	0.0150542
734.543	0.0149458
734.621	0.0148893
734.700	0.0149792
734.778	0.0150121
734.856	0.0148553
734.934	0.0149223
735.012	0.0148915
735.090	0.0147357
735.168	0.0146851
735.246	0.0148456
735.325	0.0146327
735.403	0.0146105
735.481	0.0146207
735.559	0.0145352
735.637	0.0145690
735.715	0.0148027
735.793	0.0145965
735.871	0.0144272
735.950	0.0146758
736.028	0.0146751
736.106	0.0145666
736.184	0.0146714
736.262	0.0146036
736.340	0.0146073
736.418	0.0148035
736.496	0.0146547
736.575	0.0147191
736.653	0.0148647
736.731	0.0148082
736.809	0.0147668
736.887	0.0149529
736.965	0.0149368
737.043	0.0149610
737.121	0.0150615
737.200	0.0150178
737.278	0.0150787
737.356	0.0151003
737.434	0.0151632
737.512	0.0149661
737.590	0.0149158
737.668	0.0149809
737.746	0.0147851
737.825	0.0147558
737.903	0.0147588
737.981	0.0145959
738.059	0.0145664
738.137	0.0143584
738.215	0.0144324
738.293	0.0144034
738.371	0.0144393
738.450	0.0143815
738.528	0.0145696
738.606	0.0143660
738.684	0.0143746
738.762	0.0144530
738.840	0.0144468
738.918	0.0145699
738.996	0.0146970
739.075	0.0146606
739.153	0.0147845
739.231	0.0148617
739.309	0.0148296
739.387	0.0149378
739.465	0.0149828
739.543	0.0149669
739.621	0.0149206
739.700	0.0149238
739.778	0.0150250
739.856	0.0150600
739.934	0.0149341
740.012	0.0148478
740.090	0.0147311
740.168	0.0147343
740.246	0.0148148
740.325	0.0146266
740.403	0.0144533
740.481	0.0145101
740.559	0.0144708
740.637	0.0144035
740.715	0.0143603
740.793	0.0143195
740.871	0.0142829
740.950	0.0143176
741.028	0.0143123
741.106	0.0143083
741.184	0.0144074
741.262	0.0144997
741.340	0.0145245
741.418	0.0145412
741.496	0.0145665
741.575	0.0146053
741.653	0.0146720
741.731	0.0146542
741.809	0.0146513
741.887	0.0147481
741.965	0.0147436
742.043	0.0147804
742.121	0.0148797
742.200	0.0149122
742.278	0.0147755
742.356	0.0147110
742.434	0.0147388
742.512	0.0144781
742.590	0.0146668
742.668	0.0146441
742.746	0.0144149
742.825	0.0143764
742.903	0.0143748
742.981	0.0143296
743.059	0.0143097
743.137	0.0144079
743.215	0.0142410
743.293	0.0142978
743.371	0.0144248
743.450	0.0145316
743.528	0.0144182
743.606	0.0145258
743.684	0.0146413
743.762	0.0146898
743.840	0.0146615
743.918	0.0147361
743.996	0.0147758
744.075	0.0148650
744.153	0.0147227
744.231	0.0148231
744.309	0.0148238
744.387	0.0148218
744.465	0.0146729
744.543	0.0147456
744.621	0.0146645
744.700	0.0146147
744.778	0.0146992
744.856	0.0145486
744.934	0.0147305
745.012	0.0147124
745.090	0.0145663
745.168	0.0145679
745.246	0.0145750
745.325	0.0145438
745.403	0.0145219
745.481	0.0144127
745.559	0.0145399
745.637	0.0144683
745.715	0.0144749
745.793	0.0146146
745.871	0.0145542
745.950	0.0144451
746.028	0.0145662
746.106	0.0147219
746.184	0.0146774
746.262	0.0147339
746.340	0.0146819
746.418	0.0147136
746.496	0.0148809
746.575	0.0148502
746.653	0.0148766
746.731	0.0149075
746.809	0.0149779
746.887	0.0150450
746.965	0.0150433
747.043	0.0149581
747.121	0.0150309
747.200	0.0150520
747.278	0.0148507
747.356	0.0149182
747.434	0.0150196
747.512	0.0148668
747.590	0.0147551
747.668	0.0147086
747.746	0.0147285
747.825	0.0146165
747.903	0.0146087
747.981	0.0145937
748.059	0.0144235
748.137	0.0144364
748.215	0.0145018
748.293	0.0145115
748.371	0.0144091
748.450	0.0143874
748.528	0.0144808
748.606	0.0144972
748.684	0.0146103
748.762	0.0145072
748.840	0.0144843
748.918	0.0145683
748.996	0.0146162
749.075	0.0146320
749.153	0.0146862
749.231	0.0146843
749.309	0.0147900
749.387	0.0148373
749.465	0.0149279
749.543	0.0147517
749.621	0.0147642
749.700	0.0148057
749.778	0.0146391
749.856	0.0147427
749.934	0.0149553
750.012	0.0147714
750.090	0.0146296
750.168	0.0146404
750.246	0.0147545
750.325	0.0146555
750.403	0.0146880
750.481	0.0147343
750.559	0.0146462
750.637	0.0145462
750.715	0.0145245
750.793	0.0145039
750.871	0.0146128
750.950	0.0146044
751.028	0.0145984
751.106	0.0144930
751.184	0.0145614
751.262	0.0146395
751.340	0.0148032
751.418	0.0146906
751.496	0.0149146
751.575	0.0149356
751.653	0.0147522
751.731	0.0147811
751.809	0.0148378
751.887	0.0148591
751.965	0.0149831
752.043	0.0150006
752.121	0.0150175
752.200	0.0147427
752.278	0.0148450
752.356	0.0149481
752.434	0.0147002
752.512	0.0147141
752.590	0.0146481
752.668	0.0145973
752.746	0.0146894
752.825	0.0145962
752.903	0.0145679
752.981	0.0145580
753.059	0.0144995
753.137	0.0145151
753.215	0.0146187
753.293	0.0146348
753.371	0.0147258
753.450	0.0146563
753.528	0.0146950
753.606	0.0147177
753.684	0.0145402
753.762	0.0146925
753.840	0.0145818
753.918	0.0145858
753.996	0.0148473
754.075	0.0147376
754.153	0.0148003
754.231	0.0147987
754.309	0.0148758
754.387	0.0149249
754.465	0.0148717
754.543	0.0151279
754.621	0.0151112
754.700	0.0148737
754.778	0.0150481
754.856	0.0150514
754.934	0.0148585
755.012	0.0148302
755.090	0.0148594
755.168	0.0148087
755.246	0.0148728
755.325	0.0147359
755.403	0.0148443
755.481	0.0147746
755.559	0.0147843
755.637	0.0148191
755.715	0.0148508
755.793	0.0146324
755.871	0.0146345
755.950	0.0145911
756.028	0.0147383
756.106	0.0147406
756.184	0.0146182
756.262	0.0146535
756.340	0.0146950
756.418	0.0146873
756.496	0.0146670
756.575	0.0146075
756.653	0.0146168
756.731	0.0147120
756.809	0.0147288
756.887	0.0147326
756.965	0.0147024
757.043	0.0146528
757.121	0.0148804
757.200	0.0148336
757.278	0.0148099
757.356	0.0149091
757.434	0.0147893
757.512	0.0146865
757.590	0.0148861
757.668	0.0148721
757.746	0.0147816
757.825	0.0146716
757.903	0.0147261
757.981	0.0147173
758.059	0.0146793
758.137	0.0146869
758.215	0.0146509
758.293	0.0146448
758.371	0.0146643
758.450	0.0144943
758.528	0.0146311
758.606	0.0145389
758.684	0.0146001
758.762	0.0146959
758.840	0.0145967
758.918	0.0145747
758.996	0.0146079
759.075	0.0147408
759.153	0.0146579
759.231	0.0147672
759.309	0.0149679
759.387	0.0147623
759.465	0.0147688
759.543	0.0147819
759.621	0.0147075
759.700	0.0148196
759.778	0.0148447
759.856	0.0149178
759.934	0.0148215
760.012	0.0147935
760.090	0.0147608
760.168	0.0148008
760.246	0.0145876
760.325	0.0145162
760.403	0.0145741
760.481	0.0146990
760.559	0.0147066
760.637	0.0146594
760.715	0.0145960
760.793	0.0145329
760.871	0.0146190
760.950	0.0146659
761.028	0.0146266
761.106	0.0146310
761.184	0.0144238
761.262	0.0146274
761.340	0.0146899
761.418	0.0145874
761.496	0.0146243
761.575	0.0147558
761.653	0.0146494
761.731	0.0146221
761.809	0.0146447
761.887	0.0148217
761.965	0.0146754
762.043	0.0146590
762.121	0.0147143
762.200	0.0147439
762.278	0.0146658
762.356	0.0147157
762.434	0.0147262
762.512	0.0147981
762.590	0.0147417
762.668	0.0145889
762.746	0.0145941
762.825	0.0146906
762.903	0.0147189
762.981	0.0147762
763.059	0.0145295
763.137	0.0146146
763.215	0.0146217
763.293	0.0145740
763.371	0.0145926
763.450	0.0146234
763.528	0.0146311
763.606	0.0145307
763.684	0.0145483
763.762	0.0146085
763.840	0.0146540
763.918	0.0146384
763.996	0.0146092
764.075	0.0146987
764.153	0.0147374
764.231	0.0147536
764.309	0.0147253
764.387	0.0146173
764.465	0.0146410
764.543	0.0148307
764.621	0.0148162
764.700	0.0147948
764.778	0.0148489
764.856	0.0149149
764.934	0.0148741
765.012	0.0147316
765.090	0.0147398
765.168	0.0148443
765.246	0.0147681
765.325	0.0145570
765.403	0.0146201
765.481	0.0145589
765.559	0.0145580
765.637	0.0145622
765.715	0.0145109
765.793	0.0146181
765.871	0.0144025
765.950	0.0144161
766.028	0.0144292
766.106	0.0144930
766.184	0.0145109
766.262	0.0144720
766.340	0.0145068
766.418	0.0145773
766.496	0.0147279
766.575	0.0146178
766.653	0.0146092
766.731	0.0146191
766.809	0.0148116
766.887	0.0147475
766.965	0.0147039
767.043	0.0148100
767.121	0.0147731
767.200	0.0147620
767.278	0.0148643
767.356	0.0146838
767.434	0.0147780
767.512	0.0147495
767.590	0.0148260
767.668	0.0147736
767.746	0.0147194
767.825	0.0148124
767.903	0.0146867
767.981	0.0146299
768.059	0.0148053
768.137	0.0148589
768.215	0.0146666
768.293	0.0145356
768.371	0.0145818
768.450	0.0146109
768.528	0.0146329
768.606	0.0149185
768.684	0.0149185
768.762	0.0146925
768.840	0.0146757
768.918	0.0148586
768.996	0.0147803
769.075	0.0148385
769.153	0.0148701
769.231	0.0147980
769.309	0.0148383
769.387	0.0148376
769.465	0.0147582
769.543	0.0148173
769.621	0.0147374
769.700	0.0147331
769.778	0.0147034
769.856	0.0146888
769.934	0.0146829
770.012	0.0147911
770.090	0.0145188
770.168	0.0146175
770.246	0.0145765
770.325	0.0147066
770.403	0.0147633
770.481	0.0145868
770.559	0.0145673
770.637	0.0146127
770.715	0.0147033
770.793	0.0146458
770.871	0.0146727
770.950	0.0146102
771.028	0.0145914
771.106	0.0147569
771.184	0.0145949
771.262	0.0145824
771.340	0.0146479
771.418	0.0146385
771.496	0.0147263
771.575	0.0148232
771.653	0.0147871
771.731	0.0147854
771.809	0.0148868
771.887	0.0148143
771.965	0.0148026
772.043	0.0148076
772.121	0.0147980
772.200	0.0147497
772.278	0.0149664
772.356	0.0148130
772.434	0.0148155
772.512	0.0148522
772.590	0.0147961
772.668	0.0148721
772.746	0.0147054
772.825	0.0148457
772.903	0.0149454
772.981	0.0147678
773.059	0.0147111
773.137	0.0146110
773.215	0.0147285
773.293	0.0147665
773.371	0.0147327
773.450	0.0146461
773.528	0.0146216
773.606	0.0147201
773.684	0.0145847
773.762	0.0146352
773.840	0.0147218
773.918	0.0147823
773.996	0.0148244
774.075	0.0146911
774.153	0.0145937
774.231	0.0146027
774.309	0.0145612
774.387	0.0147044
774.465	0.0146959
774.543	0.0145821
774.621	0.0148267
774.700	0.0147218
774.778	0.0148382
774.856	0.0147531
774.934	0.0146139
775.012	0.0145833
775.090	0.0146562
775.168	0.0146897
775.246	0.0147172
775.325	0.0146362
775.403	0.0146133
775.481	0.0146324
775.559	0.0146307
775.637	0.0147656
775.715	0.0147176
775.793	0.0146420
775.871	0.0146687
775.950	0.0148025
776.028	0.0147746
776.106	0.0147655
776.184	0.0147758
776.262	0.0148919
776.340	0.0148567
776.418	0.0147137
776.496	0.0148417
776.575	0.0147757
776.653	0.0147674
776.731	0.0147771
776.809	0.0147973
776.887	0.0149221
776.965	0.0147536
777.043	0.0147089
777.121	0.0147012
777.200	0.0147858
777.278	0.0147187
777.356	0.0147090
777.434	0.0147971
777.512	0.0148041
777.590	0.0147514
777.668	0.0146745
777.746	0.0147482
777.825	0.0147544
777.903	0.0147038
777.981	0.0147727
778.059	0.0147374
778.137	0.0147507
778.215	0.0147802
778.293	0.0146813
778.371	0.0148009
778.450	0.0148457
778.528	0.0147068
778.606	0.0146884
778.684	0.0147398
778.762	0.0146669
778.840	0.0147341
778.918	0.0147219
778.996	0.0147656
779.075	0.0146787
779.153	0.0147533
779.231	0.0148713
779.309	0.0147176
779.387	0.0146101
779.465	0.0146797
779.543	0.0146494
779.621	0.0147401
779.700	0.0146677
779.778	0.0147286
779.856	0.0146277
779.934	0.0147476
780.012	0.0145615
780.090	0.0148245
780.168	0.0147263
780.246	0.0146551
780.325	0.0147642
780.403	0.0146348
780.481	0.0147074
780.559	0.0146255
780.637	0.0146638
780.715	0.0146346
780.793	0.0146899
780.871	0.0146128
780.950	0.0145768
781.028	0.0145589
781.106	0.0145578
781.184	0.0146856
781.262	0.0145819
781.340	0.0146938
781.418	0.0147118
781.496	0.0147248
781.575	0.0145510
781.653	0.0146031
781.731	0.0147283
781.809	0.0147567
781.887	0.0148701
781.965	0.0147289
782.043	0.0147147
782.121	0.0147878
782.200	0.0146950
782.278	0.0147619
782.356	0.0147485
782.434	0.0146828
782.512	0.0146856
782.590	0.0147259
782.668	0.0147554
782.746	0.0146816
782.825	0.0147819
782.903	0.0145626
782.981	0.0146785
783.059	0.0146685
783.137	0.0146214
783.215	0.0145345
783.293	0.0145743
783.371	0.0146350
783.450	0.0146758
783.528	0.0145695
783.606	0.0146214
783.684	0.0145713
783.762	0.0146458
783.840	0.0145837
783.918	0.0145366
783.996	0.0146796
784.075	0.0146276
784.153	0.0146963
784.231	0.0146199
784.309	0.0146365
784.387	0.0146069
784.465	0.0146609
784.543	0.0146633
784.621	0.0145460
784.700	0.0145733
784.778	0.0145390
784.856	0.0147296
784.934	0.0145770
785.012	0.0146609
785.090	0.0145336
785.168	0.0145884
785.246	0.0146610
785.325	0.0145236
785.403	0.0146066
785.481	0.0146517
785.559	0.0145692
785.637	0.0148257
785.715	0.0148819
785.793	0.0146702
785.871	0.0148325
785.950	0.0146591
786.028	0.0146996
786.106	0.0147833
786.184	0.0148478
786.262	0.0148022
786.340	0.0147150
786.418	0.0145226
786.496	0.0146592
786.575	0.0147145
786.653	0.0147361
786.731	0.0147160
786.809	0.0148458
786.887	0.0147144
786.965	0.0145709
787.043	0.0147387
787.121	0.0147628
787.200	0.0148334
787.278	0.0147521
787.356	0.0145554
787.434	0.0146439
787.512	0.0147723
787.590	0.0147926
787.668	0.0146844
787.746	0.0148088
787.825	0.0147375
787.903	0.0147359
787.981	0.0147305
788.059	0.0149201
788.137	0.0146524
788.215	0.0146421
788.293	0.0146787
788.371	0.0146861
788.450	0.0147540
788.528	0.0147175
788.606	0.0145732
788.684	0.0147048
788.762	0.0146938
788.840	0.0145660
788.918	0.0146977
788.996	0.0148148
789.075	0.0148544
789.153	0.0146320
789.231	0.0146096
789.309	0.0147131
789.387	0.0148083
789.465	0.0147932
789.543	0.0148098
789.621	0.0147387
789.700	0.0145744
789.778	0.0146198
789.856	0.0146857
789.934	0.0146664
790.012	0.0146811
790.090	0.0147103
790.168	0.0146575
790.246	0.0147021
790.325	0.0147067
790.403	0.0145573
790.481	0.0146890
790.559	0.0146967
790.637	0.0147044
790.715	0.0146616
790.793	0.0147195
790.871	0.0146220
790.950	0.0146941
791.028	0.0148028
791.106	0.0145404
791.184	0.0146510
791.262	0.0145793
791.340	0.0146277
791.418	0.0146585
791.496	0.0146776
791.575	0.0146627
791.653	0.0145724
791.731	0.0145835
791.809	0.0146046
791.887	0.0146971
791.965	0.0146513
792.043	0.0145555
792.121	0.0145972
792.200	0.0145777
792.278	0.0145490
792.356	0.0144369
792.434	0.0145361
792.512	0.0146244
792.590	0.0143313
792.668	0.0145487
792.746	0.0144089
792.825	0.0145007
792.903	0.0146304
792.981	0.0146791
793.059	0.0145007
793.137	0.0146175
793.215	0.0146207
793.293	0.0145132
793.371	0.0147653
793.450	0.0146427
793.528	0.0147255
793.606	0.0147678
793.684	0.0148518
793.762	0.0147157
793.840	0.0147959
793.918	0.0148389
793.996	0.0147858
794.075	0.0148215
794.153	0.0148488
794.231	0.0148936
794.309	0.0147679
794.387	0.0148228
794.465	0.0148588
794.543	0.0147504
794.621	0.0148052
794.700	0.0147052
794.778	0.0147610
794.856	0.0147665
794.934	0.0148082
795.012	0.0147310
795.090	0.0146751
795.168	0.0147401
795.246	0.0147025
795.325	0.0146059
795.403	0.0147262
795.481	0.0147441
795.559	0.0147923
795.637	0.0145403
795.715	0.0146226
795.793	0.0146195
795.871	0.0146738
795.950	0.0147781
796.028	0.0147200
796.106	0.0147246
796.184	0.0146216
796.262	0.0146750
796.340	0.0147446
796.418	0.0147837
796.496	0.0148093
796.575	0.0147160
796.653	0.0145438
796.731	0.0147777
796.809	0.0146338
796.887	0.0146906
796.965	0.0147923
797.043	0.0147951
797.121	0.0146282
797.200	0.0147890
797.278	0.0147675
797.356	0.0148341
797.434	0.0146478
797.512	0.0146062
797.590	0.0147826
797.668	0.0146868
797.746	0.0148297
797.825	0.0147215
797.903	0.0148703
797.981	0.0148729
798.059	0.0146581
798.137	0.0147310
798.215	0.0147092
798.293	0.0148099
798.371	0.0147595
798.450	0.0148680
798.528	0.0148653
798.606	0.0148317
798.684	0.0146242
798.762	0.0147589
798.840	0.0148050
798.918	0.0148313
798.996	0.0145430
799.075	0.0146916
799.153	0.0146127
799.231	0.0146012
799.309	0.0146432
799.387	0.0146044
799.465	0.0147623
799.543	0.0146159
799.621	0.0146256
799.700	0.0147329
799.778	0.0147260
799.856	0.0146193
799.934	0.0145949
800.012	0.0148148
800.090	0.0146921
800.168	0.0147758
800.246	0.0145912
800.325	0.0146218
800.403	0.0147175
800.481	0.0147491
800.559	0.0147630
800.637	0.0146120
800.715	0.0147243
800.793	0.0147421
800.871	0.0147244
800.950	0.0147573
801.028	0.0147614
801.106	0.0148052
801.184	0.0147622
801.262	0.0147469
801.340	0.0145609
801.418	0.0145627
801.496	0.0147507
801.575	0.0146478
801.653	0.0147180
801.731	0.0146864
801.809	0.0147187
801.887	0.0147662
801.965	0.0147305
802.043	0.0147411
802.121	0.0147370
802.200	0.0147166
802.278	0.0147135
802.356	0.0145347
802.434	0.0146301
802.512	0.0148050
802.590	0.0147178
802.668	0.0147533
802.746	0.0147746
802.825	0.0147656
802.903	0.0147668
802.981	0.0146884
803.059	0.0147711
803.137	0.0147932
803.215	0.0148428
803.293	0.0147330
803.371	0.0147539
803.450	0.0148938
803.528	0.0147279
803.606	0.0146575
803.684	0.0146727
803.762	0.0146503
803.840	0.0148225
803.918	0.0147158
803.996	0.0146873
804.075	0.0146449
804.153	0.0147968
804.231	0.0147881
804.309	0.0146313
804.387	0.0145689
804.465	0.0145787
804.543	0.0146030
804.621	0.0147533
804.700	0.0146703
804.778	0.0146043
804.856	0.0146957
804.934	0.0146034
805.012	0.0146281
805.090	0.0146535
805.168	0.0145418
805.246	0.0147174
805.325	0.0145805
805.403	0.0147126
805.481	0.0145398
805.559	0.0145354
805.637	0.0146164
805.715	0.0146182
805.793	0.0145549
805.871	0.0145805
805.950	0.0145940
806.028	0.0145802
806.106	0.0146509
806.184	0.0147529
806.262	0.0145161
806.340	0.0146170
806.418	0.0145177
806.496	0.0144820
806.575	0.0145632
806.653	0.0145043
806.731	0.0145672
806.809	0.0145099
806.887	0.0143858
806.965	0.0145925
807.043	0.0145250
807.121	0.0145380
807.200	0.0145559
807.278	0.0145446
807.356	0.0145253
807.434	0.0146706
807.512	0.0145204
807.590	0.0145961
807.668	0.0145818
807.746	0.0147504
807.825	0.0146515
807.903	0.0145479
807.981	0.0146264
808.059	0.0146901
808.137	0.0146761
808.215	0.0146281
808.293	0.0147504
808.371	0.0145998
808.450	0.0145825
808.528	0.0146490
808.606	0.0146258
808.684	0.0147873
808.762	0.0145840
808.840	0.0146897
808.918	0.0146223
808.996	0.0146840
809.075	0.0146235
809.153	0.0146712
809.231	0.0146799
809.309	0.0145571
809.387	0.0146564
809.465	0.0146877
809.543	0.0147714
809.621	0.0148154
809.700	0.0146845
809.778	0.0148627
809.856	0.0147075
809.934	0.0148167
810.012	0.0147117
810.090	0.0146514
810.168	0.0147549
810.246	0.0146774
810.325	0.0147596
810.403	0.0147861
810.481	0.0147591
810.559	0.0148426
810.637	0.0147005
810.715	0.0147803
810.793	0.0147113
810.871	0.0146141
810.950	0.0148692
811.028	0.0146307
811.106	0.0147163
811.184	0.0147004
811.262	0.0146384
811.340	0.0147404
811.418	0.0146510
811.496	0.0148661
811.575	0.0146344
811.653	0.0146282
811.731	0.0149250
811.809	0.0147948
811.887	0.0147864
811.965	0.0148260
812.043	0.0147913
812.121	0.0148062
812.200	0.0147070
812.278	0.0146911
812.356	0.0148289
812.434	0.0146781
812.512	0.0147058
812.590	0.0146586
812.668	0.0147912
812.746	0.0147793
812.825	0.0147251
812.903	0.0147122
812.981	0.0146048
813.059	0.0146956
813.137	0.0146683
813.215	0.0146246
813.293	0.0146490
813.371	0.0146402
813.450	0.0146017
813.528	0.0146561
813.606	0.0146863
813.684	0.0145566
813.762	0.0145797
813.840	0.0145834
813.918	0.0146651
813.996	0.0146162
814.075	0.0145404
814.153	0.0146526
814.231	0.0146369
814.309	0.0146037
814.387	0.0145753
814.465	0.0146809
814.543	0.0147520
814.621	0.0147303
814.700	0.0145470
814.778	0.0145829
814.856	0.0146398
814.934	0.0147195
815.012	0.0147402
815.090	0.0147009
815.168	0.0146949
815.246	0.0148026
815.325	0.0147520
815.403	0.0146671
815.481	0.0146912
815.559	0.0146519
815.637	0.0146521
815.715	0.0146414
815.793	0.0148324
815.871	0.0146741
815.950	0.0146204
816.028	0.0146749
816.106	0.0148698
816.184	0.0148203
816.262	0.0147169
816.340	0.0147810
816.418	0.0147623
816.496	0.0146738
816.575	0.0146284
816.653	0.0146014
816.731	0.0147155
816.809	0.0146694
816.887	0.0147163
816.965	0.0145926
817.043	0.0145841
817.121	0.0146190
817.200	0.0146931
817.278	0.0146266
817.356	0.0145758
817.434	0.0146240
817.512	0.0145924
817.590	0.0145965
817.668	0.0145989
817.746	0.0146769
817.825	0.0147887
817.903	0.0147616
817.981	0.0147090
818.059	0.0147135
818.137	0.0147033
818.215	0.0146387
818.293	0.0148283
818.371	0.0147598
818.450	0.0147157
818.528	0.0147385
818.606	0.0147444
818.684	0.0145828
818.762	0.0147942
818.840	0.0147779
818.918	0.0145770
818.996	0.0147165
819.075	0.0146138
819.153	0.0147161
819.231	0.0146307
819.309	0.0146090
819.387	0.0146443
819.465	0.0145800
819.543	0.0145160
819.621	0.0145509
819.700	0.0146020
819.778	0.0146233
819.856	0.0146524
819.934	0.0144824
820.012	0.0146648
820.090	0.0145419
820.168	0.0146637
820.246	0.0146079
820.325	0.0146856
820.403	0.0147779
820.481	0.0147475
820.559	0.0147183
820.637	0.0147263
820.715	0.0147129
820.793	0.0146402
820.871	0.0146931
820.950	0.0147072
821.028	0.0147168
821.106	0.0147044
821.184	0.0145650
821.262	0.0146482
821.340	0.0144244
821.418	0.0144762
821.496	0.0146682
821.575	0.0145205
821.653	0.0145992
821.731	0.0145824
821.809	0.0145580
821.887	0.0145069
821.965	0.0146023
822.043	0.0146491
822.121	0.0146010
822.200	0.0146644
822.278	0.0146037
822.356	0.0146878
822.434	0.0146216
822.512	0.0146954
822.590	0.0146878
822.668	0.0146751
822.746	0.0146724
822.825	0.0147896
822.903	0.0146527
822.981	0.0147445
823.059	0.0146885
823.137	0.0147025
823.215	0.0147476
823.293	0.0147062
823.371	0.0147536
823.450	0.0146964
823.528	0.0146701
823.606	0.0146898
823.684	0.0146819
823.762	0.0145851
823.840	0.0145715
823.918	0.0146078
823.996	0.0146934
824.075	0.0146516
824.153	0.0146972
824.231	0.0148286
824.309	0.0146069
824.387	0.0147005
824.465	0.0146968
824.543	0.0147466
824.621	0.0147122
824.700	0.0147922
824.778	0.0147749
824.856	0.0146805
824.934	0.0147893
825.012	0.0147369
825.090	0.0147816
825.168	0.0147056
825.246	0.0146531
825.325	0.0147153
825.403	0.0146736
825.481	0.0147905
825.559	0.0147604
825.637	0.0146330
825.715	0.0146977
825.793	0.0147929
825.871	0.0147017
825.950	0.0148167
826.028	0.0147852
826.106	0.0146648
826.184	0.0147197
826.262	0.0147243
826.340	0.0147918
826.418	0.0147423
826.496	0.0148242
826.575	0.0145817
826.653	0.0147001
826.731	0.0147519
826.809	0.0145706
826.887	0.0146265
826.965	0.0146267
827.043	0.0146070
827.121	0.0145699
827.200	0.0146730
827.278	0.0145641
827.356	0.0145411
827.434	0.0146989
827.512	0.0145564
827.590	0.0146004
827.668	0.0146310
827.746	0.0146218
827.825	0.0147191
827.903	0.0147061
827.981	0.0147686
828.059	0.0146325
828.137	0.0145541
828.215	0.0146498
828.293	0.0147796
828.371	0.0147933
828.450	0.0146951
828.528	0.0145558
828.606	0.0146979
828.684	0.0145660
828.762	0.0145677
828.840	0.0145756
828.918	0.0146460
828.996	0.0144176
829.075	0.0147158
829.153	0.0146463
829.231	0.0145879
829.309	0.0146658
829.387	0.0145671
829.465	0.0145367
829.543	0.0145519
829.621	0.0146455
829.700	0.0145602
829.778	0.0147201
829.856	0.0147055
829.934	0.0147870
830.012	0.0146973
830.090	0.0147807
830.168	0.0146914
830.246	0.0148715
830.325	0.0147889
830.403	0.0147821
830.481	0.0147874
830.559	0.0147530
830.637	0.0147688
830.715	0.0147276
830.793	0.0147408
830.871	0.0147315
830.950	0.0147575
831.028	0.0146712
831.106	0.0145812
831.184	0.0146992
831.262	0.0147692
831.340	0.0148012
831.418	0.0145894
831.496	0.0146909
831.575	0.0147899
831.653	0.0146869
831.731	0.0147205
831.809	0.0145578
831.887	0.0145840
831.965	0.0146999
832.043	0.0146520
832.121	0.0146341
832.200	0.0145979
832.278	0.0147584
832.356	0.0145973
832.434	0.0147293
832.512	0.0147920
832.590	0.0148507
832.668	0.0147475
832.746	0.0146647
832.825	0.0146733
832.903	0.0147420
832.981	0.0146657
833.059	0.0146301
833.137	0.0148509
833.215	0.0147773
833.293	0.0148328
833.371	0.0148363
833.450	0.0145753
833.528	0.0146158
833.606	0.0146662
833.684	0.0148227
833.762	0.0146640
833.840	0.0147826
833.918	0.0148009
833.996	0.0147190
834.075	0.0147102
834.153	0.0146667
834.231	0.0147854
834.309	0.0148580
834.387	0.0148358
834.465	0.0146328
834.543	0.0147125
834.621	0.0148609
834.700	0.0147897
834.778	0.0147086
834.856	0.0147266
834.934	0.0147720
835.012	0.0147936
835.090	0.0148399
835.168	0.0146553
835.246	0.0147153
835.325	0.0147982
835.403	0.0146128
835.481	0.0147461
835.559	0.0147753
835.637	0.0146469
835.715	0.0147560
835.793	0.0148157
835.871	0.0146782
835.950	0.0147009
836.028	0.0147395
836.106	0.0146564
836.184	0.0147063
836.262	0.0147879
836.340	0.0146612
836.418	0.0147517
836.496	0.0146896
836.575	0.0145866
836.653	0.0145363
836.731	0.0145514
836.809	0.0145522
836.887	0.0146252
836.965	0.0144660
837.043	0.0147263
837.121	0.0145711
837.200	0.0146552
837.278	0.0146245
837.356	0.0145905
837.434	0.0146732
837.512	0.0147097
837.590	0.0146650
837.668	0.0147239
837.746	0.0146781
837.825	0.0147446
837.903	0.0147630
837.981	0.0147484
838.059	0.0146548
838.137	0.0146442
838.215	0.0146127
838.293	0.0147273
838.371	0.0146112
838.450	0.0146449
838.528	0.0145167
838.606	0.0146729
838.684	0.0147421
838.762	0.0147467
838.840	0.0146674
838.918	0.0146507
838.996	0.0146671
839.075	0.0146036
839.153	0.0146976
839.231	0.0146510
839.309	0.0146420
839.387	0.0147429
839.465	0.0147800
839.543	0.0146358
839.621	0.0147307
839.700	0.0148229
839.778	0.0146790
839.856	0.0147427
839.934	0.0147682
840.012	0.0146892
840.090	0.0147325
840.168	0.0146567
840.246	0.0147126
840.325	0.0147871
840.403	0.0147201
840.481	0.0145913
840.559	0.0146446
840.637	0.0146707
840.715	0.0147392
840.793	0.0146016
840.871	0.0144152
840.950	0.0144899
841.028	0.0145892
841.106	0.0146672
841.184	0.0145653
841.262	0.0145445
841.340	0.0145174
841.418	0.0145336
841.496	0.0145148
841.575	0.0144849
841.653	0.0145250
841.731	0.0145737
841.809	0.0146011
841.887	0.0146329
841.965	0.0147452
842.043	0.0146849
842.121	0.0146543
842.200	0.0146269
842.278	0.0147397
842.356	0.0147718
842.434	0.0146382
842.512	0.0145951
842.590	0.0145602
842.668	0.0145394
842.746	0.0144745
842.825	0.0147704
842.903	0.0144683
842.981	0.0144972
843.059	0.0145598
843.137	0.0145840
843.215	0.0145364
843.293	0.0144936
843.371	0.0145087
843.450	0.0144728
843.528	0.0145687
843.606	0.0145665
843.684	0.0145129
843.762	0.0146327
843.840	0.0145728
843.918	0.0145787
843.996	0.0146487
844.075	0.0147198
844.153	0.0146848
844.231	0.0146061
844.309	0.0146205
844.387	0.0146030
844.465	0.0145979
844.543	0.0145975
844.621	0.0147373
844.700	0.0146356
844.778	0.0145522
844.856	0.0145599
844.934	0.0146248
845.012	0.0145419
845.090	0.0147057
845.168	0.0145322
845.246	0.0145865
845.325	0.0144765
845.403	0.0145782
845.481	0.0145948
845.559	0.0146328
845.637	0.0145043
845.715	0.0145689
845.793	0.0146702
845.871	0.0147189
845.950	0.0147086
846.028	0.0146975
846.106	0.0145991
846.184	0.0146419
846.262	0.0147839
846.340	0.0146200
846.418	0.0147118
846.496	0.0147494
846.575	0.0145851
846.653	0.0147737
846.731	0.0147602
846.809	0.0146661
846.887	0.0146817
846.965	0.0147169
847.043	0.0146162
847.121	0.0148979
847.200	0.0147894
847.278	0.0147293
847.356	0.0147520
847.434	0.0147807
847.512	0.0147527
847.590	0.0147417
847.668	0.0146451
847.746	0.0147282
847.825	0.0146857
847.903	0.0146750
847.981	0.0148112
848.059	0.0147982
848.137	0.0146776
848.215	0.0146657
848.293	0.0147122
848.371	0.0148229
848.450	0.0146909
848.528	0.0147147
848.606	0.0147511
848.684	0.0147240
848.762	0.0145432
848.840	0.0147739
848.918	0.0146718
848.996	0.0147295
849.075	0.0148054
849.153	0.0146587
849.231	0.0148203
849.309	0.0146469
849.387	0.0146622
849.465	0.0147205
849.543	0.0147024
849.621	0.0147504
849.700	0.0146521
849.778	0.0147175
849.856	0.0146732
849.934	0.0147157
850.012	0.0147696
850.090	0.0148248
850.168	0.0147794
850.246	0.0146637
850.325	0.0146645
850.403	0.0146689
850.481	0.0147289
850.559	0.0148023
850.637	0.0146927
850.715	0.0147028
850.793	0.0147115
850.871	0.0148015
850.950	0.0146934
851.028	0.0148042
851.106	0.0149120
851.184	0.0147252
851.262	0.0146230
851.340	0.0146502
851.418	0.0146764
851.496	0.0147494
851.575	0.0145580
851.653	0.0146628
851.731	0.0146936
851.809	0.0148324
851.887	0.0147199
851.965	0.0147630
852.043	0.0147549
852.121	0.0149133
852.200	0.0148259
852.278	0.0147574
852.356	0.0150614
852.434	0.0147577
852.512	0.0147855
852.590	0.0148352
852.668	0.0149148
852.746	0.0148978
852.825	0.0148323
852.903	0.0148953
852.981	0.0146920
853.059	0.0146669
853.137	0.0147497
853.215	0.0147653
853.293	0.0146613
853.371	0.0146006
853.450	0.0146696
853.528	0.0146467
853.606	0.0145969
853.684	0.0147076
853.762	0.0146685
853.840	0.0147678
853.918	0.0147498
853.996	0.0147331
854.075	0.0147035
854.153	0.0147643
854.231	0.0146075
854.309	0.0148022
854.387	0.0146491
854.465	0.0145764
854.543	0.0146095
854.621	0.0146777
854.700	0.0147868
854.778	0.0146658
854.856	0.0146980
854.934	0.0147942
855.012	0.0146960
855.090	0.0147345
855.168	0.0147908
855.246	0.0148793
855.325	0.0147110
855.403	0.0146378
855.481	0.0147802
855.559	0.0147437
855.637	0.0147890
855.715	0.0148193
855.793	0.0146019
855.871	0.0147352
855.950	0.0148334
856.028	0.0147250
856.106	0.0146091
856.184	0.0148473
856.262	0.0146873
856.340	0.0147157
856.418	0.0147125
856.496	0.0148135
856.575	0.0148216
856.653	0.0148241
856.731	0.0147664
856.809	0.0145930
856.887	0.0146134
856.965	0.0146707
857.043	0.0145457
857.121	0.0145255
857.200	0.0146227
857.278	0.0147359
857.356	0.0145090
857.434	0.0146731
857.512	0.0146911
857.590	0.0145625
857.668	0.0145702
857.746	0.0146279
857.825	0.0146877
857.903	0.0146964
857.981	0.0146967
858.059	0.0147543
858.137	0.0147835
858.215	0.0146736
858.293	0.0146609
858.371	0.0147543
858.450	0.0147118
858.528	0.0147694
858.606	0.0148306
858.684	0.0148129
858.762	0.0146872
858.840	0.0146745
858.918	0.0147878
858.996	0.0146584
859.075	0.0147537
859.153	0.0146222
859.231	0.0147626
859.309	0.0145653
859.387	0.0148108
859.465	0.0145805
859.543	0.0146574
859.621	0.0145938
859.700	0.0147040
859.778	0.0145689
859.856	0.0146469
859.934	0.0146571
860.012	0.0146516
860.090	0.0146077
860.168	0.0147579
860.246	0.0146134
860.325	0.0145316
860.403	0.0148032
860.481	0.0148003
860.559	0.0146855
860.637	0.0148544
860.715	0.0147517
860.793	0.0147674
860.871	0.0148144
860.950	0.0146921
861.028	0.0146567
861.106	0.0147720
861.184	0.0146715
861.262	0.0146748
861.340	0.0146344
861.418	0.0147359
861.496	0.0146915
861.575	0.0145518
861.653	0.0145422
861.731	0.0145904
861.809	0.0146777
861.887	0.0145887
861.965	0.0146001
862.043	0.0146633
862.121	0.0145522
862.200	0.0145510
862.278	0.0146149
862.356	0.0147181
862.434	0.0146376
862.512	0.0146768
862.590	0.0145515
862.668	0.0146021
862.746	0.0147846
862.825	0.0147997
862.903	0.0146405
862.981	0.0145883
863.059	0.0146876
863.137	0.0147656
863.215	0.0146888
863.293	0.0146808
863.371	0.0146864
863.450	0.0147694
863.528	0.0146449
863.606	0.0146902
863.684	0.0146161
863.762	0.0146454
863.840	0.0146958
863.918	0.0148284
863.996	0.0146326
864.075	0.0146016
864.153	0.0146335
864.231	0.0147470
864.309	0.0146010
864.387	0.0146916
864.465	0.0146863
864.543	0.0146565
864.621	0.0146190
864.700	0.0147446
864.778	0.0147612
864.856	0.0147706
864.934	0.0147337
865.012	0.0147670
865.090	0.0146507
865.168	0.0146837
865.246	0.0147515
865.325	0.0147045
865.403	0.0146229
865.481	0.0147396
865.559	0.0147697
865.637	0.0146526
865.715	0.0147381
865.793	0.0146664
865.871	0.0147799
865.950	0.0146625
866.028	0.0146960
866.106	0.0146784
866.184	0.0147313
866.262	0.0148048
866.340	0.0146735
866.418	0.0146208
866.496	0.0146709
866.575	0.0146371
866.653	0.0147568
866.731	0.0147414
866.809	0.0147721
866.887	0.0145995
866.965	0.0148576
867.043	0.0146204
867.121	0.0146333
867.200	0.0146782
867.278	0.0146752
867.356	0.0145564
867.434	0.0145170
867.512	0.0147173
867.590	0.0146420
867.668	0.0145370
867.746	0.0146384
867.825	0.0148094
867.903	0.0147127
867.981	0.0144857
868.059	0.0145036
868.137	0.0146504
868.215	0.0146088
868.293	0.0146300
868.371	0.0146536
868.450	0.0145312
868.528	0.0145074
868.606	0.0146764
868.684	0.0146130
868.762	0.0147431
868.840	0.0147390
868.918	0.0146681
868.996	0.0146041
869.075	0.0146724
869.153	0.0146243
869.231	0.0146155
869.309	0.0146459
869.387	0.0146741
869.465	0.0145444
869.543	0.0145363
869.621	0.0146354
869.700	0.0145363
869.778	0.0146181
869.856	0.0146321
869.934	0.0144463
870.012	0.0144851
870.090	0.0146828
870.168	0.0145528
870.246	0.0145495
870.325	0.0145983
870.403	0.0146698
870.481	0.0147386
870.559	0.0146416
870.637	0.0147048
870.715	0.0147248
870.793	0.0147300
870.871	0.0147170
870.950	0.0146215
871.028	0.0145741
871.106	0.0145730
871.184	0.0146882
871.262	0.0146279
871.340	0.0146253
871.418	0.0146497
871.496	0.0146429
871.575	0.0145808
871.653	0.0147297
871.731	0.0145869
871.809	0.0146243
871.887	0.0147324
871.965	0.0146650
872.043	0.0146799
872.121	0.0146899
872.200	0.0147034
872.278	0.0145841
872.356	0.0147276
872.434	0.0146990
872.512	0.0147377
872.590	0.0147369
872.668	0.0146572
872.746	0.0147152
872.825	0.0147496
872.903	0.0146827
872.981	0.0146460
873.059	0.0147044
873.137	0.0148370
873.215	0.0146479
873.293	0.0146613
873.371	0.0147131
873.450	0.0148057
873.528	0.0146690
873.606	0.0147430
873.684	0.0148309
873.762	0.0146636
873.840	0.0147224
873.918	0.0147946
873.996	0.0147050
874.075	0.0147501
874.153	0.0146273
874.231	0.0146637
874.309	0.0147912
874.387	0.0147121
874.465	0.0148409
874.543	0.0146960
874.621	0.0147219
874.700	0.0147867
874.778	0.0147388
874.856	0.0146487
874.934	0.0147617
875.012	0.0147807
875.090	0.0148285
875.168	0.0147269
875.246	0.0148082
875.325	0.0147507
875.403	0.0146395
875.481	0.0146161
875.559	0.0147064
875.637	0.0145824
875.715	0.0146504
875.793	0.0147701
875.871	0.0148638
875.950	0.0147086
876.028	0.0146565
876.106	0.0147829
876.184	0.0147662
876.262	0.0148281
876.340	0.0147150
876.418	0.0146840
876.496	0.0146881
876.575	0.0147684
876.653	0.0147817
876.731	0.0146774
876.809	0.0146671
876.887	0.0146561
876.965	0.0146598
877.043	0.0146967
877.121	0.0146320
877.200	0.0148463
877.278	0.0148104
877.356	0.0147787
877.434	0.0147279
877.512	0.0146413
877.590	0.0148060
877.668	0.0146909
877.746	0.0145776
877.825	0.0147547
877.903	0.0147839
877.981	0.0146539
878.059	0.0146527
878.137	0.0146328
878.215	0.0146252
878.293	0.0147731
878.371	0.0148437
878.450	0.0148153
878.528	0.0147707
878.606	0.0147905
878.684	0.0148142
878.762	0.0147450
878.840	0.0147997
878.918	0.0149468
878.996	0.0148820
879.075	0.0148686
879.153	0.0149054
879.231	0.0147964
879.309	0.0147346
879.387	0.0147441
879.465	0.0147511
879.543	0.0146573
879.621	0.0147099
879.700	0.0147337
879.778	0.0146749
879.856	0.0147253
879.934	0.0147713
880.012	0.0147172
880.090	0.0147626
880.168	0.0146549
880.246	0.0146967
880.325	0.0145887
880.403	0.0147936
880.481	0.0147176
880.559	0.0147435
880.637	0.0147332
880.715	0.0146084
880.793	0.0147595
880.871	0.0146788
880.950	0.0147167
881.028	0.0146758
881.106	0.0148503
881.184	0.0148354
881.262	0.0147849
881.340	0.0147549
881.418	0.0149135
881.496	0.0146676
881.575	0.0145171
881.653	0.0148005
881.731	0.0147326
881.809	0.0147263
881.887	0.0147099
881.965	0.0147862
882.043	0.0147698
882.121	0.0145805
882.200	0.0146725
882.278	0.0147282
882.356	0.0147601
882.434	0.0147554
882.512	0.0146426
882.590	0.0146400
882.668	0.0145901
882.746	0.0148577
882.825	0.0146935
882.903	0.0146759
882.981	0.0147456
883.059	0.0148179
883.137	0.0148203
883.215	0.0148669
883.293	0.0145659
883.371	0.0148996
883.450	0.0148886
883.528	0.0147198
883.606	0.0146332
883.684	0.0146962
883.762	0.0147998
883.840	0.0146618
883.918	0.0146541
883.996	0.0147845
884.075	0.0147593
884.153	0.0146899
884.231	0.0147727
884.309	0.0147561
884.387	0.0147708
884.465	0.0147424
884.543	0.0146645
884.621	0.0146758
884.700	0.0147562
884.778	0.0146921
884.856	0.0146534
884.934	0.0147102
885.012	0.0146085
885.090	0.0145766
885.168	0.0144853
885.246	0.0146284
885.325	0.0145982
885.403	0.0146273
885.481	0.0143341
885.559	0.0144550
885.637	0.0146087
885.715	0.0146117
885.793	0.0145377
885.871	0.0145483
885.950	0.0145696
886.028	0.0145640
886.106	0.0146087
886.184	0.0146542
886.262	0.0147028
886.340	0.0147123
886.418	0.0147668
886.496	0.0147227
886.575	0.0147717
886.653	0.0146092
886.731	0.0146035
886.809	0.0148315
886.887	0.0147437
886.965	0.0147522
887.043	0.0148190
887.121	0.0145203
887.200	0.0146103
887.278	0.0147427
887.356	0.0145892
887.434	0.0145211
887.512	0.0145242
887.590	0.0146655
887.668	0.0145796
887.746	0.0146490
887.825	0.0145094
887.903	0.0146066
887.981	0.0144107
888.059	0.0145405
888.137	0.0144944
888.215	0.0144225
888.293	0.0143971
888.371	0.0146595
888.450	0.0146159
888.528	0.0144289
888.606	0.0145914
888.684	0.0147063
888.762	0.0147388
888.840	0.0147272
888.918	0.0147229
888.996	0.0147590
889.075	0.0149193
889.153	0.0147850
889.231	0.0148083
889.309	0.0148942
889.387	0.0147478
889.465	0.0148481
889.543	0.0147288
889.621	0.0146710
889.700	0.0145354
889.778	0.0146853
889.856	0.0144685
889.934	0.0145512
890.012	0.0144660
890.090	0.0145502
890.168	0.0144131
890.246	0.0144671
890.325	0.0146932
890.403	0.0146092
890.481	0.0146576
890.559	0.0144788
890.637	0.0146391
890.715	0.0146362
890.793	0.0145983
890.871	0.0147065
890.950	0.0146968
891.028	0.0147976
891.106	0.0147517
891.184	0.0146651
891.262	0.0147264
891.340	0.0146977
891.418	0.0146334
891.496	0.0146532
891.575	0.0146297
891.653	0.0145541
891.731	0.0143603
891.809	0.0144200
891.887	0.0145497
891.965	0.0145145
892.043	0.0144666
892.121	0.0144594
892.200	0.0146054
892.278	0.0145602
892.356	0.0146069
892.434	0.0147334
892.512	0.0147237
892.590	0.0145413
892.668	0.0147134
892.746	0.0146852
892.825	0.0146701
892.903	0.0146585
892.981	0.0146568
893.059	0.0146807
893.137	0.0145752
893.215	0.0145748
893.293	0.0146564
893.371	0.0146218
893.450	0.0146028
893.528	0.0144848
893.606	0.0147630
893.684	0.0145747
893.762	0.0145322
893.840	0.0145737
893.918	0.0145773
893.996	0.0144273
894.075	0.0144918
894.153	0.0145496
894.231	0.0144801
894.309	0.0144050
894.387	0.0145740
894.465	0.0147009
894.543	0.0146024
894.621	0.0147013
894.700	0.0146719
894.778	0.0146545
894.856	0.0147844
894.934	0.0147729
895.012	0.0146404
895.090	0.0146259
895.168	0.0147374
895.246	0.0147396
895.325	0.0147472
895.403	0.0147732
895.481	0.0146546
895.559	0.0145956
895.637	0.0145415
895.715	0.0145299
895.793	0.0144167
895.871	0.0144717
895.950	0.0145361
896.028	0.0145167
896.106	0.0143876
896.184	0.0144266
896.262	0.0144907
896.340	0.0144897
896.418	0.0144731
896.496	0.0147101
896.575	0.0146774
896.653	0.0146078
896.731	0.0146503
896.809	0.0147777
896.887	0.0146724
896.965	0.0147903
897.043	0.0148705
897.121	0.0147795
897.200	0.0148576
897.278	0.0146273
897.356	0.0147913
897.434	0.0147533
897.512	0.0145582
897.590	0.0145800
897.668	0.0146494
897.746	0.0146458
897.825	0.0146461
897.903	0.0146396
897.981	0.0146553
898.059	0.0148431
898.137	0.0146659
898.215	0.0146133
898.293	0.0145948
898.371	0.0145872
898.450	0.0147245
898.528	0.0148131
898.606	0.0148064
898.684	0.0148335
898.762	0.0147829
898.840	0.0147809
898.918	0.0148520
898.996	0.0147262
899.075	0.0147601
899.153	0.0148444
899.231	0.0147962
899.309	0.0147612
899.387	0.0148571
899.465	0.0147881
899.543	0.0146433
899.621	0.0145621
899.700	0.0146197
899.778	0.0146031
899.856	0.0145889
899.934	0.0146685
900.012	0.0145687
900.090	0.0146284
900.168	0.0146143
900.246	0.0145770
900.325	0.0146365
900.403	0.0146389
900.481	0.0146634
900.559	0.0147515
900.637	0.0144644
900.715	0.0146932
900.793	0.0146523
900.871	0.0146627
900.950	0.0146638
901.028	0.0146809
901.106	0.0146869
901.184	0.0147334
901.262	0.0146989
901.340	0.0147504
901.418	0.0146635
901.496	0.0147513
901.575	0.0148563
901.653	0.0147977
901.731	0.0145802
901.809	0.0146864
901.887	0.0149522
901.965	0.0148460
902.043	0.0146984
902.121	0.0147607
902.200	0.0147114
902.278	0.0146721
902.356	0.0147353
902.434	0.0148523
902.512	0.0147353
902.590	0.0147670
902.668	0.0148724
902.746	0.0146705
902.825	0.0148296
902.903	0.0150050
902.981	0.0148619
903.059	0.0148568
903.137	0.0148511
903.215	0.0148121
903.293	0.0147733
903.371	0.0147791
903.450	0.0148109
903.528	0.0147649
903.606	0.0146984
903.684	0.0146823
903.762	0.0145967
903.840	0.0145159
903.918	0.0146429
903.996	0.0146194
904.075	0.0144934
904.153	0.0146165
904.231	0.0146382
904.309	0.0146803
904.387	0.0145923
904.465	0.0146918
904.543	0.0147069
904.621	0.0148438
904.700	0.0147623
904.778	0.0147003
904.856	0.0148060
904.934	0.0148382
905.012	0.0147824
905.090	0.0147526
905.168	0.0147752
905.246	0.0148629
905.325	0.0147675
905.403	0.0147630
905.481	0.0145890
905.559	0.0146149
905.637	0.0146326
905.715	0.0145417
905.793	0.0146572
905.871	0.0147723
905.950	0.0145631
906.028	0.0146778
906.106	0.0144844
906.184	0.0145907
906.262	0.0145816
906.340	0.0146976
906.418	0.0146585
906.496	0.0146442
906.575	0.0146967
906.653	0.0145019
906.731	0.0146026
906.809	0.0147110
906.887	0.0146819
906.965	0.0147982
907.043	0.0146878
907.121	0.0146749
907.200	0.0147531
907.278	0.0148377
907.356	0.0148299
907.434	0.0148529
907.512	0.0148273
907.590	0.0148324
907.668	0.0149046
907.746	0.0147936
907.825	0.0146875
907.903	0.0146841
907.981	0.0145853
908.059	0.0147423
908.137	0.0147481
908.215	0.0145525
908.293	0.0146609
908.371	0.0146240
908.450	0.0144312
908.528	0.0144614
908.606	0.0146117
908.684	0.0146099
908.762	0.0145309
908.840	0.0145228
908.918	0.0145486
908.996	0.0145358
909.075	0.0145911
909.153	0.0144978
909.231	0.0146101
909.309	0.0145650
909.387	0.0146865
909.465	0.0147118
909.543	0.0147417
909.621	0.0148664
909.700	0.0147370
909.778	0.0148752
909.856	0.0146880
909.934	0.0146498
910.012	0.0146906
910.090	0.0147407
910.168	0.0148744
910.246	0.0148437
910.325	0.0146411
910.403	0.0148111
910.481	0.0146833
910.559	0.0147295
910.637	0.0148209
910.715	0.0146977
910.793	0.0146999
910.871	0.0145952
910.950	0.0146302
911.028	0.0146000
911.106	0.0146729
911.184	0.0145591
911.262	0.0146101
911.340	0.0145853
911.418	0.0145479
911.496	0.0145798
911.575	0.0145515
911.653	0.0146188
911.731	0.0146004
911.809	0.0146290
911.887	0.0146700
911.965	0.0146420
912.043	0.0145612
912.121	0.0146274
912.200	0.0147710
912.278	0.0147517
912.356	0.0146998
912.434	0.0145994
912.512	0.0146108
912.590	0.0147029
912.668	0.0147611
912.746	0.0146764
912.825	0.0148373
912.903	0.0146030
912.981	0.0146035
913.059	0.0145996
913.137	0.0147731
913.215	0.0146277
913.293	0.0146528
913.371	0.0146090
913.450	0.0145861
913.528	0.0145617
913.606	0.0146454
913.684	0.0146604
913.762	0.0145461
913.840	0.0146327
913.918	0.0146815
913.996	0.0145641
914.075	0.0146254
914.153	0.0147495
914.231	0.0146049
914.309	0.0146429
914.387	0.0145734
914.465	0.0146021
914.543	0.0145728
914.621	0.0147464
914.700	0.0147096
914.778	0.0147182
914.856	0.0146368
914.934	0.0146493
915.012	0.0147166
915.090	0.0147451
915.168	0.0148716
915.246	0.0148074
915.325	0.0147054
915.403	0.0145988
915.481	0.0147372
915.559	0.0146118
915.637	0.0145122
915.715	0.0147618
915.793	0.0145905
915.871	0.0146464
915.950	0.0146130
916.028	0.0145753
916.106	0.0146616
916.184	0.0146594
916.262	0.0145815
916.340	0.0146106
916.418	0.0146470
916.496	0.0146121
916.575	0.0144273
916.653	0.0145867
916.731	0.0146999
916.809	0.0145296
916.887	0.0146257
916.965	0.0145666
917.043	0.0146889
917.121	0.0147135
917.200	0.0147178
917.278	0.0146957
917.356	0.0146563
917.434	0.0145703
917.512	0.0148117
917.590	0.0147433
917.668	0.0145521
917.746	0.0147067
917.825	0.0148240
917.903	0.0146850
917.981	0.0146998
918.059	0.0147554
918.137	0.0146770
918.215	0.0147022
918.293	0.0147723
918.371	0.0146894
918.450	0.0147052
918.528	0.0147074
918.606	0.0147213
918.684	0.0146950
918.762	0.0147007
918.840	0.0147274
918.918	0.0146807
918.996	0.0146608
919.075	0.0148197
919.153	0.0146937
919.231	0.0146992
919.309	0.0147490
919.387	0.0146521
919.465	0.0145975
919.543	0.0147432
919.621	0.0147466
919.700	0.0147110
919.778	0.0147765
919.856	0.0146605
919.934	0.0146657
920.012	0.0146317
920.090	0.0146425
920.168	0.0146800
920.246	0.0146628
920.325	0.0146469
920.403	0.0146483
920.481	0.0147049
920.559	0.0145624
920.637	0.0146024
920.715	0.0147264
920.793	0.0145023
920.871	0.0146717
920.950	0.0147189
921.028	0.0146824
921.106	0.0146244
921.184	0.0147826
921.262	0.0147706
921.340	0.0147496
921.418	0.0147083
921.496	0.0146291
921.575	0.0146603
921.653	0.0147678
921.731	0.0146399
921.809	0.0146692
921.887	0.0147292
921.965	0.0147147
922.043	0.0146297
922.121	0.0147799
922.200	0.0147176
922.278	0.0147453
922.356	0.0146605
922.434	0.0146315
922.512	0.0146956
922.590	0.0147588
922.668	0.0146108
922.746	0.0147799
922.825	0.0145598
922.903	0.0145541
922.981	0.0146312
923.059	0.0146620
923.137	0.0147361
923.215	0.0147495
923.293	0.0146812
923.371	0.0147391
923.450	0.0147095
923.528	0.0147483
923.606	0.0146532
923.684	0.0147844
923.762	0.0147823
923.840	0.0147823
923.918	0.0146927
923.996	0.0147902
924.075	0.0147603
924.153	0.0147168
924.231	0.0147281
924.309	0.0147527
924.387	0.0147337
924.465	0.0148359
924.543	0.0148182
924.621	0.0148405
924.700	0.0147832
924.778	0.0147358
924.856	0.0147561
924.934	0.0146898
925.012	0.0146242
925.090	0.0148144
925.168	0.0146580
925.246	0.0147342
925.325	0.0147594
925.403	0.0147653
925.481	0.0146583
925.559	0.0146870
925.637	0.0147707
925.715	0.0147891
925.793	0.0146690
925.871	0.0146970
925.950	0.0148557
926.028	0.0146737
926.106	0.0147553
926.184	0.0147144
926.262	0.0148652
926.340	0.0147234
926.418	0.0148029
926.496	0.0146400
926.575	0.0146717
926.653	0.0149042
926.731	0.0147659
926.809	0.0146220
926.887	0.0147623
926.965	0.0149384
927.043	0.0147324
927.121	0.0147534
927.200	0.0146640
927.278	0.0146867
927.356	0.0146682
927.434	0.0147099
927.512	0.0146824
927.590	0.0147397
927.668	0.0148386
927.746	0.0147018
927.825	0.0146496
927.903	0.0146963
927.981	0.0146687
928.059	0.0147246
928.137	0.0146292
928.215	0.0147211
928.293	0.0147475
928.371	0.0147832
928.450	0.0146510
928.528	0.0147217
928.606	0.0147910
928.684	0.0146847
928.762	0.0148376
928.840	0.0147286
928.918	0.0147044
928.996	0.0147085
929.075	0.0146927
929.153	0.0146447
929.231	0.0145956
929.309	0.0147386
929.387	0.0145881
929.465	0.0145873
929.543	0.0145467
929.621	0.0145403
929.700	0.0144982
929.778	0.0146229
929.856	0.0145874
929.934	0.0146561
930.012	0.0145995
930.090	0.0144775
930.168	0.0146664
930.246	0.0147480
930.325	0.0146314
930.403	0.0147279
930.481	0.0146353
930.559	0.0147652
930.637	0.0146406
930.715	0.0147662
930.793	0.0147398
930.871	0.0147452
930.950	0.0146429
931.028	0.0147594
931.106	0.0146859
931.184	0.0144387
931.262	0.0146605
931.340	0.0146026
931.418	0.0145222
931.496	0.0145953
931.575	0.0146629
931.653	0.0146521
931.731	0.0145860
931.809	0.0146369
931.887	0.0147308
931.965	0.0146137
932.043	0.0146674
932.121	0.0146037
932.200	0.0146725
932.278	0.0146888
932.356	0.0147117
932.434	0.0145605
932.512	0.0148009
932.590	0.0147369
932.668	0.0147446
932.746	0.0146705
932.825	0.0147543
932.903	0.0147233
932.981	0.0145954
933.059	0.0147012
933.137	0.0148547
933.215	0.0146880
933.293	0.0146937
933.371	0.0147825
933.450	0.0148085
933.528	0.0147423
933.606	0.0147361
933.684	0.0148071
933.762	0.0146598
933.840	0.0148628
933.918	0.0147094
933.996	0.0147860
934.075	0.0148724
934.153	0.0147330
934.231	0.0147147
934.309	0.0147981
934.387	0.0147895
934.465	0.0147637
934.543	0.0146104
934.621	0.0147272
934.700	0.0148222
934.778	0.0146535
934.856	0.0145902
934.934	0.0147057
935.012	0.0146498
935.090	0.0147620
935.168	0.0148668
935.246	0.0147949
935.325	0.0148156
935.403	0.0147840
935.481	0.0147575
935.559	0.0145747
935.637	0.0147017
935.715	0.0147848
935.793	0.0146957
935.871	0.0148126
935.950	0.0148323
936.028	0.0147816
936.106	0.0148190
936.184	0.0148753
936.262	0.0148840
936.340	0.0147333
936.418	0.0147238
936.496	0.0146309
936.575	0.0147617
936.653	0.0147632
936.731	0.0148022
936.809	0.0147552
936.887	0.0146563
936.965	0.0146687
937.043	0.0147416
937.121	0.0146976
937.200	0.0146875
937.278	0.0146548
937.356	0.0145405
937.434	0.0145549
937.512	0.0147144
937.590	0.0146980
937.668	0.0147899
937.746	0.0147944
937.825	0.0147411
937.903	0.0148380
937.981	0.0146681
938.059	0.0147127
938.137	0.0146237
938.215	0.0148015
938.293	0.0147028
938.371	0.0147816
938.450	0.0146986
938.528	0.0148183
938.606	0.0146858
938.684	0.0146841
938.762	0.0146182
938.840	0.0146503
938.918	0.0147546
938.996	0.0144319
939.075	0.0145972
939.153	0.0148106
939.231	0.0145524
939.309	0.0145578
939.387	0.0146293
939.465	0.0145129
939.543	0.0146075
939.621	0.0145018
939.700	0.0145944
939.778	0.0145352
939.856	0.0146226
939.934	0.0144431
940.012	0.0145861
940.090	0.0146086
940.168	0.0145065
940.246	0.0144859
940.325	0.0145305
940.403	0.0147131
940.481	0.0147736
940.559	0.0145795
940.637	0.0146458
940.715	0.0146315
940.793	0.0146465
940.871	0.0147004
940.950	0.0146678
941.028	0.0145966
941.106	0.0146264
941.184	0.0146983
941.262	0.0145519
941.340	0.0145489
941.418	0.0146506
941.496	0.0146494
941.575	0.0146207
941.653	0.0145811
941.731	0.0145055
941.809	0.0146040
941.887	0.0145872
941.965	0.0145464
942.043	0.0145798
942.121	0.0146667
942.200	0.0145114
942.278	0.0145728
942.356	0.0147854
942.434	0.0147090
942.512	0.0147862
942.590	0.0146632
942.668	0.0146782
942.746	0.0146333
942.825	0.0146291
942.903	0.0146732
942.981	0.0147195
943.059	0.0146059
943.137	0.0146290
943.215	0.0146455
943.293	0.0147062
943.371	0.0147593
943.450	0.0147611
943.528	0.0146994
943.606	0.0147764
943.684	0.0147495
943.762	0.0146552
943.840	0.0146747
943.918	0.0146719
943.996	0.0146199
944.075	0.0146425
944.153	0.0146015
944.231	0.0145033
944.309	0.0145418
944.387	0.0146325
944.465	0.0146432
944.543	0.0146243
944.621	0.0146896
944.700	0.0148141
944.778	0.0147803
944.856	0.0147372
944.934	0.0145834
945.012	0.0146497
945.090	0.0146579
945.168	0.0146932
945.246	0.0146310
945.325	0.0147133
945.403	0.0146981
945.481	0.0146759
945.559	0.0146106
945.637	0.0147130
945.715	0.0146491
945.793	0.0147310
945.871	0.0147079
945.950	0.0147730
946.028	0.0146062
946.106	0.0145904
946.184	0.0148261
946.262	0.0148530
946.340	0.0147683
946.418	0.0147030
946.496	0.0146983
946.575	0.0146719
946.653	0.0145905
946.731	0.0147036
946.809	0.0147192
946.887	0.0146968
946.965	0.0146566
947.043	0.0144475
947.121	0.0146320
947.200	0.0145897
947.278	0.0146848
947.356	0.0146777
947.434	0.0146049
947.512	0.0144155
947.590	0.0145791
947.668	0.0146003
947.746	0.0145707
947.825	0.0146741
947.903	0.0146407
947.981	0.0146523
948.059	0.0146046
948.137	0.0146914
948.215	0.0147833
948.293	0.0145949
948.371	0.0145917
948.450	0.0147607
948.528	0.0147888
948.606	0.0145840
948.684	0.0146642
948.762	0.0147063
948.840	0.0148778
948.918	0.0148717
948.996	0.0146825
949.075	0.0147433
949.153	0.0147314
949.231	0.0146647
949.309	0.0146680
949.387	0.0145600
949.465	0.0146048
949.543	0.0147626
949.621	0.0145741
949.700	0.0146249
949.778	0.0146383
949.856	0.0146372
949.934	0.0145326
950.012	0.0145923
950.090	0.0147334
950.168	0.0144934
950.246	0.0146191
950.325	0.0145996
950.403	0.0147453
950.481	0.0148868
950.559	0.0148029
950.637	0.0147417
950.715	0.0147742
950.793	0.0146481
950.871	0.0147511
950.950	0.0148495
951.028	0.0146704
951.106	0.0146964
951.184	0.0148659
951.262	0.0147724
951.340	0.0147198
951.418	0.0147379
951.496	0.0147418
951.575	0.0146550
951.653	0.0147249
951.731	0.0146447
951.809	0.0146568
951.887	0.0146933
951.965	0.0148730
952.043	0.0145569
952.121	0.0146960
952.200	0.0148251
952.278	0.0147307
952.356	0.0147814
952.434	0.0147426
952.512	0.0148450
952.590	0.0148691
952.668	0.0148169
952.746	0.0147389
952.825	0.0147267
952.903	0.0147746
952.981	0.0147373
953.059	0.0149503
953.137	0.0147981
953.215	0.0148735
953.293	0.0147001
953.371	0.0146516
953.450	0.0147073
953.528	0.0147942
953.606	0.0146820
953.684	0.0146893
953.762	0.0147414
953.840	0.0146443
953.918	0.0147329
953.996	0.0147630
954.075	0.0147782
954.153	0.0147533
954.231	0.0148000
954.309	0.0148316
954.387	0.0146104
954.465	0.0147331
954.543	0.0147766
954.621	0.0147696
954.700	0.0148072
954.778	0.0147424
954.856	0.0147004
954.934	0.0147293
955.012	0.0147191
955.090	0.0148357
955.168	0.0146469
955.246	0.0146816
955.325	0.0147132
955.403	0.0146954
955.481	0.0145820
955.559	0.0147443
955.637	0.0148038
955.715	0.0147514
955.793	0.0146445
955.871	0.0148116
955.950	0.0146661
956.028	0.0145790
956.106	0.0147912
956.184	0.0147083
956.262	0.0147353
956.340	0.0148594
956.418	0.0147048
956.496	0.0148122
956.575	0.0147492
956.653	0.0148775
956.731	0.0149095
956.809	0.0147158
956.887	0.0147034
956.965	0.0148211
957.043	0.0146424
957.121	0.0146583
957.200	0.0146756
957.278	0.0145370
957.356	0.0146368
957.434	0.0146928
957.512	0.0145623
957.590	0.0146371
957.668	0.0145729
957.746	0.0146148
957.825	0.0144895
957.903	0.0145360
957.981	0.0145808
958.059	0.0146285
958.137	0.0147463
958.215	0.0147149
958.293	0.0145642
958.371	0.0145029
958.450	0.0147221
958.528	0.0147022
958.606	0.0146238
958.684	0.0145650
958.762	0.0145728
958.840	0.0147713
958.918	0.0146011
958.996	0.0144661
959.075	0.0147328
959.153	0.0146678
959.231	0.0146199
959.309	0.0145144
959.387	0.0144730
959.465	0.0146667
959.543	0.0144313
959.621	0.0144844
959.700	0.0146782
959.778	0.0146548
959.856	0.0146865
959.934	0.0144724
960.012	0.0146792
960.090	0.0145551
960.168	0.0145035
960.246	0.0145760
960.325	0.0146230
960.403	0.0146134
960.481	0.0145412
960.559	0.0147242
960.637	0.0145715
960.715	0.0145248
960.793	0.0144472
960.871	0.0146627
960.950	0.0146859
961.028	0.0147215
961.106	0.0146781
961.184	0.0145733
961.262	0.0146542
961.340	0.0145395
961.418	0.0147310
961.496	0.0147662
961.575	0.0147575
961.653	0.0146317
961.731	0.0147264
961.809	0.0147593
961.887	0.0148010
961.965	0.0149162
962.043	0.0147942
962.121	0.0148538
962.200	0.0147559
962.278	0.0147316
962.356	0.0147018
962.434	0.0146690
962.512	0.0147481
962.590	0.0147546
962.668	0.0146791
962.746	0.0147082
962.825	0.0146616
962.903	0.0145935
962.981	0.0146136
963.059	0.0146922
963.137	0.0145792
963.215	0.0145695
963.293	0.0146909
963.371	0.0147582
963.450	0.0146032
963.528	0.0145206
963.606	0.0146635
963.684	0.0145746
963.762	0.0146019
963.840	0.0147841
963.918	0.0147142
963.996	0.0144381
964.075	0.0146063
964.153	0.0144658
964.231	0.0144825
964.309	0.0146861
964.387	0.0147823
964.465	0.0145306
964.543	0.0145266
964.621	0.0147312
964.700	0.0145769
964.778	0.0145280
964.856	0.0146696
964.934	0.0147664
965.012	0.0146234
965.090	0.0144963
965.168	0.0145284
965.246	0.0145730
965.325	0.0145885
965.403	0.0144335
965.481	0.0145023
965.559	0.0146445
965.637	0.0147003
965.715	0.0147271
965.793	0.0147237
965.871	0.0146667
965.950	0.0147141
966.028	0.0146988
966.106	0.0147726
966.184	0.0145760
966.262	0.0147585
966.340	0.0146516
966.418	0.0145930
966.496	0.0147137
966.575	0.0147186
966.653	0.0146441
966.731	0.0147232
966.809	0.0147058
966.887	0.0146421
966.965	0.0146594
967.043	0.0147152
967.121	0.0145892
967.200	0.0147950
967.278	0.0146033
967.356	0.0148179
967.434	0.0146561
967.512	0.0147090
967.590	0.0145423
967.668	0.0146688
967.746	0.0147750
967.825	0.0147344
967.903	0.0146449
967.981	0.0145729
968.059	0.0146659
968.137	0.0146159
968.215	0.0146210
968.293	0.0145648
968.371	0.0146350
968.450	0.0145373
968.528	0.0144980
968.606	0.0144803
968.684	0.0144482
968.762	0.0146484
968.840	0.0145299
968.918	0.0145778
968.996	0.0146343
969.075	0.0146599
969.153	0.0147239
969.231	0.0146574
969.309	0.0145663
969.387	0.0144997
969.465	0.0147926
969.543	0.0146947
969.621	0.0146835
969.700	0.0146439
969.778	0.0146697
969.856	0.0146980
969.934	0.0146499
970.012	0.0147256
970.090	0.0144638
970.168	0.0146593
970.246	0.0145596
970.325	0.0146472
970.403	0.0146201
970.481	0.0144261
970.559	0.0145804
970.637	0.0144937
970.715	0.0145726
970.793	0.0146593
970.871	0.0145982
970.950	0.0146594
971.028	0.0145865
971.106	0.0146118
971.184	0.0145836
971.262	0.0145992
971.340	0.0147447
971.418	0.0147394
971.496	0.0146437
971.575	0.0145954
971.653	0.0146192
971.731	0.0147263
971.809	0.0147623
971.887	0.0146523
971.965	0.0147509
972.043	0.0147105
972.121	0.0147890
972.200	0.0147180
972.278	0.0146016
972.356	0.0146974
972.434	0.0145506
972.512	0.0146744
972.590	0.0147334
972.668	0.0146613
972.746	0.0147142
972.825	0.0146170
972.903	0.0147390
972.981	0.0147245
973.059	0.0146882
973.137	0.0147819
973.215	0.0146822
973.293	0.0148026
973.371	0.0148580
973.450	0.0148034
973.528	0.0149123
973.606	0.0146824
973.684	0.0148070
973.762	0.0148270
973.840	0.0148260
973.918	0.0148476
973.996	0.0147404
974.075	0.0147540
974.153	0.0146587
974.231	0.0147875
974.309	0.0147746
974.387	0.0146640
974.465	0.0146433
974.543	0.0146996
974.621	0.0147250
974.700	0.0147325
974.778	0.0147205
974.856	0.0147454
974.934	0.0147321
975.012	0.0147092
975.090	0.0147536
975.168	0.0148306
975.246	0.0147248
975.325	0.0148489
975.403	0.0148920
975.481	0.0149611
975.559	0.0148518
975.637	0.0148154
975.715	0.0147729
975.793	0.0147573
975.871	0.0147747
975.950	0.0148161
976.028	0.0149925
976.106	0.0147695
976.184	0.0147521
976.262	0.0147617
976.340	0.0148003
976.418	0.0147424
976.496	0.0146088
976.575	0.0145341
976.653	0.0146888
976.731	0.0146938
976.809	0.0147026
976.887	0.0146580
976.965	0.0146299
977.043	0.0146371
977.121	0.0146888
977.200	0.0147733
977.278	0.0147090
977.356	0.0148365
977.434	0.0147343
977.512	0.0147908
977.590	0.0147615
977.668	0.0146201
977.746	0.0148022
977.825	0.0148353
977.903	0.0148208
977.981	0.0146314
978.059	0.0147015
978.137	0.0147100
978.215	0.0148330
978.293	0.0149081
978.371	0.0149739
978.450	0.0147462
978.528	0.0147500
978.606	0.0145760
978.684	0.0146580
978.762	0.0145911
978.840	0.0145926
978.918	0.0147243
978.996	0.0146236
979.075	0.0147287
979.153	0.0146209
979.231	0.0145944
979.309	0.0147607
979.387	0.0146322
979.465	0.0147428
979.543	0.0146780
979.621	0.0145676
979.700	0.0146636
979.778	0.0146205
979.856	0.0146764
979.934	0.0147528
980.012	0.0147430
980.090	0.0148457
980.168	0.0146632
980.246	0.0147800
980.325	0.0147105
980.403	0.0146735
980.481	0.0147194
980.559	0.0146632
980.637	0.0146645
980.715	0.0146615
980.793	0.0146820
980.871	0.0146771
980.950	0.0146410
981.028	0.0146902
981.106	0.0145424
981.184	0.0144827
981.262	0.0146248
981.340	0.0145617
981.418	0.0145371
981.496	0.0145983
981.575	0.0145793
981.653	0.0144784
981.731	0.0144713
981.809	0.0146049
981.887	0.0145243
981.965	0.0146085
982.043	0.0146244
982.121	0.0145173
982.200	0.0148103
982.278	0.0147865
982.356	0.0147984
982.434	0.0146131
982.512	0.0146556
982.590	0.0147499
982.668	0.0146425
982.746	0.0148323
982.825	0.0147314
982.903	0.0146265
982.981	0.0147921
983.059	0.0147516
983.137	0.0145786
983.215	0.0147474
983.293	0.0146662
983.371	0.0145683
983.450	0.0145489
983.528	0.0147382
983.606	0.0147363
983.684	0.0144976
983.762	0.0145853
983.840	0.0146447
983.918	0.0145513
983.996	0.0146816
984.075	0.0146992
984.153	0.0146818
984.231	0.0147134
984.309	0.0145721
984.387	0.0145446
984.465	0.0146013
984.543	0.0144958
984.621	0.0147052
984.700	0.0145997
984.778	0.0146532
984.856	0.0147292
984.934	0.0147240
985.012	0.0147785
985.090	0.0147015
985.168	0.0146459
985.246	0.0147519
985.325	0.0146931
985.403	0.0147331
985.481	0.0146705
985.559	0.0146275
985.637	0.0147303
985.715	0.0147768
985.793	0.0145000
985.871	0.0146021
985.950	0.0146899
986.028	0.0144858
986.106	0.0145452
986.184	0.0147669
986.262	0.0145862
986.340	0.0145010
986.418	0.0146505
986.496	0.0146503
986.575	0.0145513
986.653	0.0145199
986.731	0.0145815
986.809	0.0145795
986.887	0.0146467
986.965	0.0146526
987.043	0.0145699
987.121	0.0146082
987.200	0.0145858
987.278	0.0145446
987.356	0.0146631
987.434	0.0146498
987.512	0.0145737
987.590	0.0146465
987.668	0.0146056
987.746	0.0146847
987.825	0.0148409
987.903	0.0146014
987.981	0.0145900
988.059	0.0147009
988.137	0.0146122
988.215	0.0146914
988.293	0.0147963
988.371	0.0145362
988.450	0.0146038
988.528	0.0146357
988.606	0.0146529
988.684	0.0147095
988.762	0.0146399
988.840	0.0146436
988.918	0.0146935
988.996	0.0147101
989.075	0.0146659
989.153	0.0146957
989.231	0.0146288
989.309	0.0147329
989.387	0.0148227
989.465	0.0147314
989.543	0.0146094
989.621	0.0147730
989.700	0.0147354
989.778	0.0147344
989.856	0.0147574
989.934	0.0146146
990.012	0.0147951
990.090	0.0148165
990.168	0.0145358
990.246	0.0145465
990.325	0.0146403
990.403	0.0146243
990.481	0.0146179
990.559	0.0145220
990.637	0.0145779
990.715	0.0146400
990.793	0.0144664
990.871	0.0146180
990.950	0.0146210
991.028	0.0145296
991.106	0.0146205
991.184	0.0145699
991.262	0.0146024
991.340	0.0146695
991.418	0.0146767
991.496	0.0146024
991.575	0.0146867
991.653	0.0147529
991.731	0.0145738
991.809	0.0146149
991.887	0.0147070
991.965	0.0146183
992.043	0.0145386
992.121	0.0145518
992.200	0.0146806
992.278	0.0147050
992.356	0.0146323
992.434	0.0146334
992.512	0.0147557
992.590	0.0145686
992.668	0.0145946
992.746	0.0146375
992.825	0.0144817
992.903	0.0145232
992.981	0.0144706
993.059	0.0144500
993.137	0.0145222
993.215	0.0146394
993.293	0.0145105
993.371	0.0144734
993.450	0.0144862
993.528	0.0146017
993.606	0.0142944
993.684	0.0145322
993.762	0.0146111
993.840	0.0145984
993.918	0.0146889
993.996	0.0147184
994.075	0.0145327
994.153	0.0145754
994.231	0.0148165
994.309	0.0146336
994.387	0.0146685
994.465	0.0146895
994.543	0.0147909
994.621	0.0147424
994.700	0.0145990
994.778	0.0147524
994.856	0.0147993
994.934	0.0146281
995.012	0.0147684
995.090	0.0146796
995.168	0.0147084
995.246	0.0146593
995.325	0.0145691
995.403	0.0146634
995.481	0.0147111
995.559	0.0146481
995.637	0.0146234
995.715	0.0146825
995.793	0.0146943
995.871	0.0146085
995.950	0.0144488
996.028	0.0146572
996.106	0.0146824
996.184	0.0145502
996.262	0.0146908
996.340	0.0145599
996.418	0.0145889
996.496	0.0148482
996.575	0.0146216
996.653	0.0146345
996.731	0.0146380
996.809	0.0146838
996.887	0.0146358
996.965	0.0147552
997.043	0.0146486
997.121	0.0147191
997.200	0.0148331
997.278	0.0147730
997.356	0.0146552
997.434	0.0146662
997.512	0.0148377
997.590	0.0147362
997.668	0.0146955
997.746	0.0146530
997.825	0.0149288
997.903	0.0148117
997.981	0.0147019
998.059	0.0148164
998.137	0.0149166
998.215	0.0149153
998.293	0.0148598
998.371	0.0148045
998.450	0.0147676
998.528	0.0148069
998.606	0.0147694
998.684	0.0148090
998.762	0.0149079
998.840	0.0148039
998.918	0.0147070
