05/04/2022	21:24:43	Ver.	4.1	UNKNOWN
Optical Delay	678.996401	Delta X		0.078125	Sweeps	1	Scan Rate	0/0
Coordinates	Axis 1	NaN	Axis 2	NaN	Axis 3	NaN	Axis 4	NaN	Axis 5	NaN	Axis 6	0.000000
TX Power	0.000000	RX Power	0.000000

678.996	0.0147370
679.075	0.0147029
679.153	0.0148380
679.231	0.0147811
679.309	0.0145985
679.387	0.0148305
679.465	0.0146096
679.543	0.0146365
679.621	0.0145446
679.700	0.0146159
679.778	0.0146081
679.856	0.0145784
679.934	0.0146018
680.012	0.0145433
680.090	0.0145549
680.168	0.0145577
680.246	0.0143475
680.325	0.0146329
680.403	0.0144928
680.481	0.0144777
680.559	0.0146189
680.637	0.0145424
680.715	0.0145525
680.793	0.0144941
680.871	0.0145373
680.950	0.0145949
681.028	0.0147445
681.106	0.0147391
681.184	0.0145937
681.262	0.0147500
681.340	0.0146841
681.418	0.0147450
681.496	0.0146339
681.575	0.0147524
681.653	0.0149116
681.731	0.0147062
681.809	0.0146873
681.887	0.0146603
681.965	0.0147139
682.043	0.0146653
682.121	0.0146733
682.200	0.0144943
682.278	0.0145579
682.356	0.0145111
682.434	0.0146319
682.512	0.0144454
682.590	0.0144976
682.668	0.0144975
682.746	0.0146557
682.825	0.0145061
682.903	0.0146133
682.981	0.0146942
683.059	0.0146117
683.137	0.0146498
683.215	0.0147628
683.293	0.0146471
683.371	0.0145648
683.450	0.0146383
683.528	0.0147365
683.606	0.0148611
683.684	0.0147118
683.762	0.0147829
683.840	0.0146877
683.918	0.0147860
683.996	0.0148186
684.075	0.0148582
684.153	0.0148537
684.231	0.0148250
684.309	0.0147395
684.387	0.0147513
684.465	0.0147889
684.543	0.0147588
684.621	0.0146278
684.700	0.0146626
684.778	0.0145960
684.856	0.0148294
684.934	0.0146628
685.012	0.0146361
685.090	0.0146056
685.168	0.0146304
685.246	0.0146092
685.325	0.0145820
685.403	0.0145726
685.481	0.0145412
685.559	0.0146158
685.637	0.0147312
685.715	0.0147086
685.793	0.0147886
685.871	0.0147775
685.950	0.0147160
686.028	0.0147182
686.106	0.0146647
686.184	0.0147392
686.262	0.0148020
686.340	0.0148808
686.418	0.0148357
686.496	0.0148645
686.575	0.0148442
686.653	0.0146286
686.731	0.0148192
686.809	0.0147982
686.887	0.0146518
686.965	0.0148553
687.043	0.0148380
687.121	0.0146980
687.200	0.0146827
687.278	0.0148047
687.356	0.0147838
687.434	0.0146185
687.512	0.0147702
687.590	0.0147121
687.668	0.0145811
687.746	0.0148341
687.825	0.0147810
687.903	0.0145921
687.981	0.0145796
688.059	0.0146981
688.137	0.0145679
688.215	0.0146870
688.293	0.0146978
688.371	0.0147394
688.450	0.0147581
688.528	0.0148699
688.606	0.0148228
688.684	0.0149087
688.762	0.0147352
688.840	0.0147712
688.918	0.0148508
688.996	0.0146869
689.075	0.0148646
689.153	0.0147483
689.231	0.0145849
689.309	0.0147613
689.387	0.0146819
689.465	0.0146786
689.543	0.0147175
689.621	0.0147927
689.700	0.0146187
689.778	0.0147110
689.856	0.0148117
689.934	0.0147217
690.012	0.0148454
690.090	0.0149358
690.168	0.0147042
690.246	0.0149548
690.325	0.0149153
690.403	0.0147641
690.481	0.0146254
690.559	0.0146701
690.637	0.0148450
690.715	0.0143861
690.793	0.0144196
690.871	0.0146436
690.950	0.0143694
691.028	0.0143606
691.106	0.0144669
691.184	0.0144173
691.262	0.0145168
691.340	0.0145025
691.418	0.0144686
691.496	0.0146379
691.575	0.0148846
691.653	0.0148882
691.731	0.0147283
691.809	0.0150388
691.887	0.0151953
691.965	0.0150690
692.043	0.0150066
692.121	0.0151411
692.200	0.0150169
692.278	0.0149252
692.356	0.0149320
692.434	0.0148677
692.512	0.0149233
692.590	0.0147482
692.668	0.0147977
692.746	0.0146825
692.825	0.0143170
692.903	0.0142721
692.981	0.0143409
693.059	0.0141859
693.137	0.0141399
693.215	0.0141833
693.293	0.0140710
693.371	0.0142184
693.450	0.0144537
693.528	0.0145777
693.606	0.0145763
693.684	0.0148221
693.762	0.0148691
693.840	0.0148640
693.918	0.0149755
693.996	0.0150488
694.075	0.0149485
694.153	0.0149966
694.231	0.0150526
694.309	0.0151275
694.387	0.0151005
694.465	0.0150811
694.543	0.0149520
694.621	0.0148502
694.700	0.0146154
694.778	0.0146542
694.856	0.0144749
694.934	0.0143938
695.012	0.0141605
695.090	0.0141862
695.168	0.0141685
695.246	0.0141374
695.325	0.0141758
695.403	0.0142142
695.481	0.0142455
695.559	0.0142966
695.637	0.0144700
695.715	0.0144737
695.793	0.0146089
695.871	0.0145092
695.950	0.0144492
696.028	0.0145274
696.106	0.0145216
696.184	0.0147466
696.262	0.0148189
696.340	0.0147701
696.418	0.0150446
696.496	0.0149689
696.575	0.0150281
696.653	0.0151177
696.731	0.0151396
696.809	0.0151450
696.887	0.0149820
696.965	0.0148179
697.043	0.0148090
697.121	0.0145504
697.200	0.0144617
697.278	0.0141669
697.356	0.0140468
697.434	0.0139822
697.512	0.0138515
697.590	0.0138936
697.668	0.0138464
697.746	0.0139323
697.825	0.0139537
697.903	0.0140763
697.981	0.0142992
698.059	0.0145688
698.137	0.0147465
698.215	0.0149004
698.293	0.0150368
698.371	0.0154897
698.450	0.0155811
698.528	0.0154773
698.606	0.0154030
698.684	0.0154020
698.762	0.0150915
698.840	0.0150113
698.918	0.0147897
698.996	0.0145235
699.075	0.0144037
699.153	0.0141289
699.231	0.0140067
699.309	0.0139906
699.387	0.0140490
699.465	0.0141805
699.543	0.0141081
699.621	0.0143546
699.700	0.0143552
699.778	0.0145280
699.856	0.0147789
699.934	0.0149467
700.012	0.0149458
700.090	0.0150340
700.168	0.0151515
700.246	0.0152489
700.325	0.0152908
700.403	0.0152563
700.481	0.0152157
700.559	0.0152140
700.637	0.0150685
700.715	0.0150380
700.793	0.0148817
700.871	0.0147713
700.950	0.0148195
701.028	0.0145705
701.106	0.0144387
701.184	0.0142064
701.262	0.0141279
701.340	0.0140768
701.418	0.0139648
701.496	0.0139098
701.575	0.0137335
701.653	0.0138536
701.731	0.0138148
701.809	0.0138548
701.887	0.0138467
701.965	0.0141446
702.043	0.0144129
702.121	0.0147663
702.200	0.0150162
702.278	0.0152828
702.356	0.0155878
702.434	0.0156231
702.512	0.0158382
702.590	0.0157207
702.668	0.0156799
702.746	0.0155816
702.825	0.0155643
702.903	0.0151605
702.981	0.0148357
703.059	0.0147300
703.137	0.0144250
703.215	0.0140882
703.293	0.0138177
703.371	0.0136306
703.450	0.0136044
703.528	0.0133812
703.606	0.0132953
703.684	0.0134988
703.762	0.0137963
703.840	0.0138687
703.918	0.0142651
703.996	0.0144944
704.075	0.0148436
704.153	0.0151799
704.231	0.0153790
704.309	0.0155648
704.387	0.0157533
704.465	0.0155925
704.543	0.0158945
704.621	0.0157833
704.700	0.0155566
704.778	0.0152585
704.856	0.0150938
704.934	0.0149435
705.012	0.0146596
705.090	0.0144418
705.168	0.0144884
705.246	0.0141988
705.325	0.0141130
705.403	0.0141292
705.481	0.0138913
705.559	0.0139544
705.637	0.0141376
705.715	0.0140404
705.793	0.0141454
705.871	0.0142306
705.950	0.0144900
706.028	0.0145068
706.106	0.0147094
706.184	0.0150269
706.262	0.0150715
706.340	0.0151962
706.418	0.0151971
706.496	0.0152951
706.575	0.0152193
706.653	0.0152006
706.731	0.0152000
706.809	0.0150873
706.887	0.0148569
706.965	0.0148837
707.043	0.0148499
707.121	0.0147663
707.200	0.0145461
707.278	0.0146809
707.356	0.0145892
707.434	0.0145773
707.512	0.0147209
707.590	0.0147104
707.668	0.0146340
707.746	0.0146803
707.825	0.0147134
707.903	0.0147900
707.981	0.0149191
708.059	0.0148800
708.137	0.0148929
708.215	0.0149207
708.293	0.0148713
708.371	0.0149961
708.450	0.0149916
708.528	0.0149506
708.606	0.0149239
708.684	0.0148656
708.762	0.0147793
708.840	0.0147034
708.918	0.0146366
708.996	0.0148963
709.075	0.0146918
709.153	0.0145390
709.231	0.0145715
709.309	0.0144394
709.387	0.0141850
709.465	0.0142218
709.543	0.0140530
709.621	0.0141581
709.700	0.0140163
709.778	0.0141360
709.856	0.0140519
709.934	0.0142247
710.012	0.0144037
710.090	0.0145592
710.168	0.0147282
710.246	0.0149503
710.325	0.0152493
710.403	0.0152848
710.481	0.0155447
710.559	0.0157433
710.637	0.0155793
710.715	0.0155976
710.793	0.0155116
710.871	0.0153795
710.950	0.0151206
711.028	0.0149292
711.106	0.0145068
711.184	0.0142831
711.262	0.0141692
711.340	0.0139706
711.418	0.0137149
711.496	0.0136615
711.575	0.0135363
711.653	0.0135542
711.731	0.0135523
711.809	0.0135995
711.887	0.0139323
711.965	0.0141389
712.043	0.0143121
712.121	0.0145527
712.200	0.0148156
712.278	0.0150214
712.356	0.0152682
712.434	0.0153369
712.512	0.0154015
712.590	0.0155061
712.668	0.0154525
712.746	0.0152902
712.825	0.0152570
712.903	0.0153028
712.981	0.0150399
713.059	0.0147959
713.137	0.0147641
713.215	0.0147916
713.293	0.0146841
713.371	0.0144977
713.450	0.0144028
713.528	0.0143692
713.606	0.0143631
713.684	0.0141640
713.762	0.0142218
713.840	0.0142360
713.918	0.0140282
713.996	0.0141512
714.075	0.0140854
714.153	0.0142712
714.231	0.0141965
714.309	0.0141617
714.387	0.0143100
714.465	0.0143330
714.543	0.0145247
714.621	0.0146077
714.700	0.0147980
714.778	0.0149280
714.856	0.0149583
714.934	0.0150364
715.012	0.0153703
715.090	0.0155376
715.168	0.0154647
715.246	0.0155542
715.325	0.0155422
715.403	0.0155045
715.481	0.0154213
715.559	0.0153545
715.637	0.0150932
715.715	0.0148381
715.793	0.0146396
715.871	0.0143962
715.950	0.0141532
716.028	0.0140469
716.106	0.0139661
716.184	0.0139037
716.262	0.0137476
716.340	0.0138210
716.418	0.0140079
716.496	0.0140592
716.575	0.0140306
716.653	0.0143333
716.731	0.0144907
716.809	0.0145516
716.887	0.0145520
716.965	0.0148620
717.043	0.0150526
717.121	0.0152228
717.200	0.0151108
717.278	0.0151665
717.356	0.0152555
717.434	0.0150155
717.512	0.0150439
717.590	0.0150298
717.668	0.0149053
717.746	0.0147017
717.825	0.0147678
717.903	0.0146111
717.981	0.0146201
718.059	0.0145877
718.137	0.0145310
718.215	0.0144781
718.293	0.0145697
718.371	0.0145148
718.450	0.0145763
718.528	0.0145026
718.606	0.0145709
718.684	0.0144794
718.762	0.0144341
718.840	0.0146060
718.918	0.0145905
718.996	0.0146439
719.075	0.0147837
719.153	0.0146395
719.231	0.0147225
719.309	0.0147652
719.387	0.0147079
719.465	0.0146483
719.543	0.0145809
719.621	0.0146494
719.700	0.0147475
719.778	0.0144653
719.856	0.0145022
719.934	0.0145638
720.012	0.0145770
720.090	0.0143959
720.168	0.0143985
720.246	0.0142749
720.325	0.0143193
720.403	0.0143516
720.481	0.0142658
720.559	0.0144823
720.637	0.0145791
720.715	0.0146262
720.793	0.0144389
720.871	0.0145718
720.950	0.0146474
721.028	0.0147153
721.106	0.0148272
721.184	0.0148357
721.262	0.0150239
721.340	0.0150827
721.418	0.0151283
721.496	0.0149653
721.575	0.0151025
721.653	0.0151044
721.731	0.0148521
721.809	0.0149516
721.887	0.0150124
721.965	0.0148724
722.043	0.0147811
722.121	0.0145903
722.200	0.0144717
722.278	0.0145599
722.356	0.0145206
722.434	0.0145712
722.512	0.0144446
722.590	0.0144863
722.668	0.0143832
722.746	0.0144093
722.825	0.0145450
722.903	0.0144373
722.981	0.0144556
723.059	0.0145981
723.137	0.0146562
723.215	0.0147031
723.293	0.0148479
723.371	0.0147180
723.450	0.0148232
723.528	0.0147208
723.606	0.0146918
723.684	0.0147802
723.762	0.0148231
723.840	0.0148022
723.918	0.0147438
723.996	0.0148004
724.075	0.0146368
724.153	0.0146446
724.231	0.0145944
724.309	0.0144830
724.387	0.0146454
724.465	0.0146683
724.543	0.0145299
724.621	0.0146384
724.700	0.0147485
724.778	0.0146748
724.856	0.0146700
724.934	0.0147514
725.012	0.0148820
725.090	0.0148877
725.168	0.0149334
725.246	0.0148245
725.325	0.0149002
725.403	0.0149459
725.481	0.0147884
725.559	0.0147233
725.637	0.0146929
725.715	0.0147988
725.793	0.0145130
725.871	0.0146460
725.950	0.0145074
726.028	0.0144733
726.106	0.0143678
726.184	0.0145171
726.262	0.0143435
726.340	0.0145668
726.418	0.0145929
726.496	0.0146318
726.575	0.0147395
726.653	0.0146944
726.731	0.0148303
726.809	0.0148003
726.887	0.0149257
726.965	0.0149496
727.043	0.0150565
727.121	0.0147077
727.200	0.0148923
727.278	0.0148702
727.356	0.0146971
727.434	0.0145712
727.512	0.0144703
727.590	0.0145007
727.668	0.0143436
727.746	0.0144178
727.825	0.0144605
727.903	0.0144444
727.981	0.0143669
728.059	0.0144547
728.137	0.0144511
728.215	0.0144449
728.293	0.0145438
728.371	0.0146818
728.450	0.0147995
728.528	0.0146770
728.606	0.0148196
728.684	0.0148814
728.762	0.0148529
728.840	0.0148949
728.918	0.0150497
728.996	0.0151061
729.075	0.0151685
729.153	0.0151063
729.231	0.0151795
729.309	0.0152306
729.387	0.0151286
729.465	0.0150600
729.543	0.0149369
729.621	0.0148767
729.700	0.0149577
729.778	0.0147789
729.856	0.0147794
729.934	0.0147262
730.012	0.0146409
730.090	0.0145445
730.168	0.0145648
730.246	0.0145462
730.325	0.0145450
730.403	0.0143911
730.481	0.0146146
730.559	0.0146053
730.637	0.0144637
730.715	0.0146896
730.793	0.0145686
730.871	0.0145640
730.950	0.0146455
731.028	0.0148823
731.106	0.0146561
731.184	0.0145717
731.262	0.0147279
731.340	0.0147190
731.418	0.0147947
731.496	0.0148812
731.575	0.0147217
731.653	0.0146771
731.731	0.0148219
731.809	0.0147847
731.887	0.0148412
731.965	0.0148203
732.043	0.0148367
732.121	0.0149057
732.200	0.0148732
732.278	0.0149514
732.356	0.0148466
732.434	0.0146092
732.512	0.0148816
732.590	0.0147968
732.668	0.0146135
732.746	0.0146718
732.825	0.0146194
732.903	0.0146513
732.981	0.0146429
733.059	0.0146945
733.137	0.0147188
733.215	0.0147327
733.293	0.0147403
733.371	0.0147308
733.450	0.0147849
733.528	0.0148240
733.606	0.0148688
733.684	0.0148145
733.762	0.0149339
733.840	0.0149207
733.918	0.0147161
733.996	0.0147771
734.075	0.0147812
734.153	0.0146213
734.231	0.0147478
734.309	0.0145969
734.387	0.0146824
734.465	0.0145703
734.543	0.0145217
734.621	0.0146402
734.700	0.0144366
734.778	0.0143181
734.856	0.0144594
734.934	0.0144187
735.012	0.0144009
735.090	0.0147416
735.168	0.0146259
735.246	0.0144671
735.325	0.0144412
735.403	0.0145527
735.481	0.0145602
735.559	0.0144921
735.637	0.0144117
735.715	0.0145885
735.793	0.0144899
735.871	0.0145713
735.950	0.0145917
736.028	0.0145756
736.106	0.0146252
736.184	0.0147418
736.262	0.0148050
736.340	0.0148059
736.418	0.0149389
736.496	0.0150340
736.575	0.0149612
736.653	0.0149367
736.731	0.0148306
736.809	0.0148952
736.887	0.0148183
736.965	0.0147882
737.043	0.0146294
737.121	0.0145107
737.200	0.0146113
737.278	0.0144077
737.356	0.0142999
737.434	0.0142157
737.512	0.0142976
737.590	0.0143149
737.668	0.0141606
737.746	0.0141495
737.825	0.0141252
737.903	0.0142383
737.981	0.0142793
738.059	0.0143598
738.137	0.0144614
738.215	0.0145921
738.293	0.0145905
738.371	0.0146076
738.450	0.0147333
738.528	0.0146832
738.606	0.0146412
738.684	0.0148094
738.762	0.0149329
738.840	0.0148505
738.918	0.0148027
738.996	0.0149020
739.075	0.0148080
739.153	0.0148815
739.231	0.0147979
739.309	0.0148980
739.387	0.0147769
739.465	0.0145064
739.543	0.0145049
739.621	0.0145472
739.700	0.0144725
739.778	0.0143119
739.856	0.0143697
739.934	0.0142950
740.012	0.0143689
740.090	0.0142591
740.168	0.0144250
740.246	0.0143002
740.325	0.0142796
740.403	0.0144869
740.481	0.0144350
740.559	0.0144846
740.637	0.0143702
740.715	0.0146068
740.793	0.0146655
740.871	0.0147760
740.950	0.0148874
741.028	0.0148460
741.106	0.0150809
741.184	0.0150377
741.262	0.0151225
741.340	0.0149899
741.418	0.0149660
741.496	0.0149875
741.575	0.0149722
741.653	0.0148904
741.731	0.0148792
741.809	0.0148015
741.887	0.0147937
741.965	0.0147376
742.043	0.0146572
742.121	0.0147232
742.200	0.0145158
742.278	0.0144866
742.356	0.0144720
742.434	0.0145515
742.512	0.0144753
742.590	0.0145681
742.668	0.0145532
742.746	0.0144965
742.825	0.0146216
742.903	0.0146811
742.981	0.0146854
743.059	0.0148317
743.137	0.0147766
743.215	0.0149030
743.293	0.0148325
743.371	0.0148936
743.450	0.0149438
743.528	0.0148674
743.606	0.0148656
743.684	0.0149841
743.762	0.0146876
743.840	0.0147845
743.918	0.0147576
743.996	0.0148727
744.075	0.0146829
744.153	0.0146904
744.231	0.0145581
744.309	0.0147451
744.387	0.0147497
744.465	0.0145789
744.543	0.0145597
744.621	0.0144572
744.700	0.0145300
744.778	0.0144519
744.856	0.0144570
744.934	0.0144080
745.012	0.0144785
745.090	0.0143980
745.168	0.0143697
745.246	0.0144152
745.325	0.0143978
745.403	0.0145771
745.481	0.0145159
745.559	0.0145904
745.637	0.0145131
745.715	0.0147129
745.793	0.0147030
745.871	0.0147463
745.950	0.0148725
746.028	0.0149641
746.106	0.0149940
746.184	0.0148809
746.262	0.0148865
746.340	0.0149323
746.418	0.0149399
746.496	0.0149760
746.575	0.0150367
746.653	0.0148988
746.731	0.0148154
746.809	0.0148501
746.887	0.0148239
746.965	0.0148915
747.043	0.0147552
747.121	0.0147325
747.200	0.0146030
747.278	0.0146385
747.356	0.0145827
747.434	0.0145876
747.512	0.0144652
747.590	0.0145309
747.668	0.0144977
747.746	0.0145847
747.825	0.0145999
747.903	0.0145023
747.981	0.0146227
748.059	0.0146029
748.137	0.0146511
748.215	0.0145757
748.293	0.0147176
748.371	0.0148120
748.450	0.0148512
748.528	0.0146807
748.606	0.0147552
748.684	0.0148092
748.762	0.0148685
748.840	0.0148403
748.918	0.0147700
748.996	0.0147988
749.075	0.0147972
749.153	0.0149378
749.231	0.0147761
749.309	0.0147821
749.387	0.0148769
749.465	0.0149837
749.543	0.0147572
749.621	0.0147823
749.700	0.0147060
749.778	0.0146902
749.856	0.0146260
749.934	0.0146090
750.012	0.0146214
750.090	0.0147530
750.168	0.0146379
750.246	0.0147292
750.325	0.0147933
750.403	0.0147986
750.481	0.0149021
750.559	0.0150405
750.637	0.0149895
750.715	0.0148948
750.793	0.0148772
750.871	0.0149024
750.950	0.0148613
751.028	0.0148402
751.106	0.0149176
751.184	0.0150415
751.262	0.0149456
751.340	0.0147630
751.418	0.0147966
751.496	0.0147778
751.575	0.0147083
751.653	0.0147510
751.731	0.0146907
751.809	0.0146912
751.887	0.0145838
751.965	0.0146009
752.043	0.0145848
752.121	0.0144931
752.200	0.0145773
752.278	0.0146114
752.356	0.0144793
752.434	0.0145181
752.512	0.0147678
752.590	0.0145402
752.668	0.0143984
752.746	0.0145728
752.825	0.0145901
752.903	0.0146704
752.981	0.0145860
753.059	0.0146172
753.137	0.0147484
753.215	0.0147371
753.293	0.0146873
753.371	0.0147519
753.450	0.0148634
753.528	0.0147408
753.606	0.0148489
753.684	0.0149610
753.762	0.0148106
753.840	0.0149548
753.918	0.0150307
753.996	0.0148111
754.075	0.0148115
754.153	0.0148817
754.231	0.0148315
754.309	0.0146449
754.387	0.0146915
754.465	0.0147540
754.543	0.0147592
754.621	0.0146436
754.700	0.0146742
754.778	0.0145991
754.856	0.0146732
754.934	0.0146609
755.012	0.0146246
755.090	0.0145232
755.168	0.0148196
755.246	0.0146751
755.325	0.0145359
755.403	0.0146163
755.481	0.0147593
755.559	0.0147083
755.637	0.0146093
755.715	0.0147163
755.793	0.0146669
755.871	0.0146661
755.950	0.0146941
756.028	0.0145908
756.106	0.0146049
756.184	0.0148273
756.262	0.0146787
756.340	0.0147476
756.418	0.0145584
756.496	0.0146532
756.575	0.0146437
756.653	0.0145523
756.731	0.0146165
756.809	0.0146567
756.887	0.0145580
756.965	0.0145955
757.043	0.0145322
757.121	0.0145744
757.200	0.0145396
757.278	0.0146210
757.356	0.0146428
757.434	0.0147010
757.512	0.0146057
757.590	0.0146122
757.668	0.0145639
757.746	0.0145867
757.825	0.0146185
757.903	0.0147426
757.981	0.0146341
758.059	0.0145952
758.137	0.0146411
758.215	0.0147289
758.293	0.0147272
758.371	0.0147029
758.450	0.0146295
758.528	0.0146394
758.606	0.0148112
758.684	0.0145761
758.762	0.0148533
758.840	0.0147201
758.918	0.0146102
758.996	0.0146895
759.075	0.0147549
759.153	0.0145762
759.231	0.0147062
759.309	0.0147339
759.387	0.0145477
759.465	0.0146509
759.543	0.0145486
759.621	0.0145663
759.700	0.0145871
759.778	0.0145316
759.856	0.0145011
759.934	0.0145604
760.012	0.0146206
760.090	0.0145934
760.168	0.0145512
760.246	0.0145009
760.325	0.0146114
760.403	0.0145550
760.481	0.0144151
760.559	0.0144761
760.637	0.0146259
760.715	0.0145628
760.793	0.0146294
760.871	0.0145609
760.950	0.0146643
761.028	0.0147339
761.106	0.0147806
761.184	0.0147100
761.262	0.0146401
761.340	0.0146928
761.418	0.0146883
761.496	0.0145864
761.575	0.0147697
761.653	0.0147201
761.731	0.0146894
761.809	0.0147650
761.887	0.0146712
761.965	0.0146181
762.043	0.0147859
762.121	0.0146497
762.200	0.0146745
762.278	0.0146094
762.356	0.0147572
762.434	0.0146465
762.512	0.0147636
762.590	0.0147481
762.668	0.0147295
762.746	0.0146769
762.825	0.0146584
762.903	0.0148050
762.981	0.0147662
763.059	0.0146803
763.137	0.0146601
763.215	0.0145903
763.293	0.0146680
763.371	0.0148012
763.450	0.0146500
763.528	0.0147902
763.606	0.0147457
763.684	0.0147163
763.762	0.0146165
763.840	0.0146837
763.918	0.0147383
763.996	0.0147747
764.075	0.0146629
764.153	0.0148135
764.231	0.0147072
764.309	0.0147353
764.387	0.0147586
764.465	0.0147160
764.543	0.0147942
764.621	0.0147700
764.700	0.0146495
764.778	0.0147093
764.856	0.0146156
764.934	0.0146664
765.012	0.0146175
765.090	0.0147181
765.168	0.0145622
765.246	0.0146823
765.325	0.0145867
765.403	0.0145061
765.481	0.0147301
765.559	0.0146035
765.637	0.0145873
765.715	0.0147634
765.793	0.0146517
765.871	0.0146759
765.950	0.0147137
766.028	0.0146370
766.106	0.0147012
766.184	0.0147444
766.262	0.0146457
766.340	0.0146871
766.418	0.0145956
766.496	0.0148330
766.575	0.0146741
766.653	0.0146896
766.731	0.0148466
766.809	0.0146590
766.887	0.0148079
766.965	0.0147956
767.043	0.0147566
767.121	0.0147741
767.200	0.0148508
767.278	0.0147941
767.356	0.0147029
767.434	0.0148640
767.512	0.0148389
767.590	0.0146490
767.668	0.0147050
767.746	0.0148215
767.825	0.0147578
767.903	0.0147014
767.981	0.0148232
768.059	0.0149069
768.137	0.0146260
768.215	0.0147920
768.293	0.0148378
768.371	0.0146931
768.450	0.0147780
768.528	0.0147561
768.606	0.0148345
768.684	0.0147292
768.762	0.0147638
768.840	0.0146139
768.918	0.0146326
768.996	0.0147382
769.075	0.0146336
769.153	0.0147175
769.231	0.0146433
769.309	0.0146359
769.387	0.0147177
769.465	0.0146748
769.543	0.0147035
769.621	0.0147919
769.700	0.0148212
769.778	0.0146679
769.856	0.0146158
769.934	0.0147977
770.012	0.0145631
770.090	0.0145969
770.168	0.0146918
770.246	0.0147490
770.325	0.0145846
770.403	0.0145863
770.481	0.0147771
770.559	0.0146885
770.637	0.0146201
770.715	0.0145284
770.793	0.0146665
770.871	0.0146047
770.950	0.0146672
771.028	0.0147971
771.106	0.0147287
771.184	0.0146814
771.262	0.0146675
771.340	0.0146822
771.418	0.0146165
771.496	0.0147425
771.575	0.0147890
771.653	0.0147179
771.731	0.0147207
771.809	0.0148508
771.887	0.0148384
771.965	0.0146920
772.043	0.0149623
772.121	0.0148208
772.200	0.0148537
772.278	0.0147839
772.356	0.0147790
772.434	0.0148241
772.512	0.0146420
772.590	0.0148343
772.668	0.0149886
772.746	0.0149577
772.825	0.0147001
772.903	0.0147469
772.981	0.0147696
773.059	0.0148565
773.137	0.0147736
773.215	0.0148888
773.293	0.0146590
773.371	0.0146338
773.450	0.0146166
773.528	0.0146028
773.606	0.0148023
773.684	0.0147205
773.762	0.0147900
773.840	0.0146068
773.918	0.0146632
773.996	0.0146751
774.075	0.0146011
774.153	0.0146381
774.231	0.0147720
774.309	0.0147691
774.387	0.0147324
774.465	0.0146519
774.543	0.0145992
774.621	0.0148132
774.700	0.0147431
774.778	0.0147047
774.856	0.0147414
774.934	0.0147121
775.012	0.0146651
775.090	0.0146620
775.168	0.0146932
775.246	0.0146408
775.325	0.0146081
775.403	0.0145669
775.481	0.0145663
775.559	0.0145104
775.637	0.0145045
775.715	0.0145233
775.793	0.0144949
775.871	0.0145663
775.950	0.0145453
776.028	0.0146822
776.106	0.0147238
776.184	0.0146217
776.262	0.0147411
776.340	0.0146837
776.418	0.0146771
776.496	0.0147269
776.575	0.0148863
776.653	0.0148516
776.731	0.0146478
776.809	0.0146709
776.887	0.0147423
776.965	0.0146514
777.043	0.0148466
777.121	0.0148179
777.200	0.0147060
777.278	0.0147261
777.356	0.0147787
777.434	0.0146943
777.512	0.0147157
777.590	0.0146572
777.668	0.0145743
777.746	0.0145534
777.825	0.0146563
777.903	0.0146867
777.981	0.0146930
778.059	0.0147758
778.137	0.0146204
778.215	0.0145433
778.293	0.0145540
778.371	0.0146246
778.450	0.0145843
778.528	0.0145724
778.606	0.0145383
778.684	0.0146535
778.762	0.0145742
778.840	0.0145626
778.918	0.0146834
778.996	0.0144943
779.075	0.0145272
779.153	0.0146185
779.231	0.0147259
779.309	0.0145158
779.387	0.0145753
779.465	0.0145477
779.543	0.0145678
779.621	0.0145253
779.700	0.0146315
779.778	0.0147162
779.856	0.0147857
779.934	0.0146661
780.012	0.0145191
780.090	0.0146856
780.168	0.0147217
780.246	0.0147588
780.325	0.0145903
780.403	0.0145499
780.481	0.0145570
780.559	0.0147034
780.637	0.0147722
780.715	0.0148042
780.793	0.0146917
780.871	0.0145613
780.950	0.0145523
781.028	0.0146570
781.106	0.0145815
781.184	0.0146970
781.262	0.0147016
781.340	0.0146355
781.418	0.0146368
781.496	0.0146793
781.575	0.0146557
781.653	0.0147234
781.731	0.0147237
781.809	0.0146696
781.887	0.0145815
781.965	0.0146281
782.043	0.0145958
782.121	0.0147234
782.200	0.0147347
782.278	0.0146951
782.356	0.0146483
782.434	0.0146925
782.512	0.0148115
782.590	0.0147209
782.668	0.0145628
782.746	0.0145950
782.825	0.0145514
782.903	0.0146558
782.981	0.0146868
783.059	0.0147701
783.137	0.0146445
783.215	0.0145290
783.293	0.0147333
783.371	0.0147849
783.450	0.0145564
783.528	0.0146278
783.606	0.0146735
783.684	0.0146045
783.762	0.0146969
783.840	0.0146384
783.918	0.0146774
783.996	0.0148387
784.075	0.0147107
784.153	0.0148322
784.231	0.0148992
784.309	0.0146885
784.387	0.0147469
784.465	0.0148123
784.543	0.0147633
784.621	0.0147537
784.700	0.0146663
784.778	0.0146931
784.856	0.0147016
784.934	0.0146938
785.012	0.0146757
785.090	0.0146613
785.168	0.0146655
785.246	0.0146110
785.325	0.0147338
785.403	0.0147999
785.481	0.0146527
785.559	0.0145223
785.637	0.0148515
785.715	0.0148068
785.793	0.0146375
785.871	0.0146351
785.950	0.0148125
786.028	0.0146301
786.106	0.0147184
786.184	0.0146925
786.262	0.0147604
786.340	0.0147765
786.418	0.0146356
786.496	0.0146490
786.575	0.0145667
786.653	0.0145364
786.731	0.0145690
786.809	0.0144697
786.887	0.0145931
786.965	0.0146019
787.043	0.0147252
787.121	0.0145718
787.200	0.0146126
787.278	0.0145771
787.356	0.0146056
787.434	0.0146175
787.512	0.0145969
787.590	0.0146638
787.668	0.0145234
787.746	0.0147276
787.825	0.0145795
787.903	0.0145112
787.981	0.0147096
788.059	0.0147142
788.137	0.0147853
788.215	0.0146529
788.293	0.0146433
788.371	0.0148161
788.450	0.0147281
788.528	0.0146933
788.606	0.0146587
788.684	0.0146217
788.762	0.0147471
788.840	0.0147153
788.918	0.0147046
788.996	0.0146783
789.075	0.0146303
789.153	0.0146564
789.231	0.0146656
789.309	0.0146952
789.387	0.0146445
789.465	0.0146957
789.543	0.0147704
789.621	0.0146867
789.700	0.0148955
789.778	0.0147829
789.856	0.0147630
789.934	0.0149609
790.012	0.0148283
790.090	0.0149075
790.168	0.0148274
790.246	0.0147924
790.325	0.0146906
790.403	0.0146268
790.481	0.0148066
790.559	0.0147398
790.637	0.0146814
790.715	0.0146165
790.793	0.0146205
790.871	0.0146111
790.950	0.0146336
791.028	0.0146640
791.106	0.0147176
791.184	0.0146943
791.262	0.0146883
791.340	0.0146677
791.418	0.0145618
791.496	0.0146262
791.575	0.0145743
791.653	0.0144950
791.731	0.0145893
791.809	0.0147688
791.887	0.0146368
791.965	0.0147223
792.043	0.0145133
792.121	0.0146559
792.200	0.0148022
792.278	0.0146917
792.356	0.0146784
792.434	0.0147853
792.512	0.0146714
792.590	0.0146854
792.668	0.0147455
792.746	0.0148531
792.825	0.0149799
792.903	0.0148190
792.981	0.0147887
793.059	0.0149094
793.137	0.0147539
793.215	0.0148877
793.293	0.0148566
793.371	0.0147108
793.450	0.0147713
793.528	0.0147134
793.606	0.0145596
793.684	0.0147598
793.762	0.0146706
793.840	0.0146514
793.918	0.0146935
793.996	0.0147250
794.075	0.0147344
794.153	0.0147073
794.231	0.0146675
794.309	0.0147259
794.387	0.0146386
794.465	0.0146676
794.543	0.0147519
794.621	0.0147797
794.700	0.0146547
794.778	0.0146929
794.856	0.0147900
794.934	0.0147898
795.012	0.0146387
795.090	0.0148523
795.168	0.0146826
795.246	0.0145840
795.325	0.0146726
795.403	0.0145580
795.481	0.0145215
795.559	0.0145743
795.637	0.0146743
795.715	0.0145947
795.793	0.0147301
795.871	0.0147035
795.950	0.0147301
796.028	0.0147511
796.106	0.0146858
796.184	0.0147066
796.262	0.0146368
796.340	0.0146244
796.418	0.0147811
796.496	0.0147332
796.575	0.0146974
796.653	0.0147408
796.731	0.0146514
796.809	0.0146715
796.887	0.0146027
796.965	0.0146972
797.043	0.0147281
797.121	0.0146173
797.200	0.0146337
797.278	0.0146984
797.356	0.0147041
797.434	0.0145425
797.512	0.0147847
797.590	0.0146728
797.668	0.0147228
797.746	0.0146629
797.825	0.0147282
797.903	0.0147522
797.981	0.0146761
798.059	0.0147418
798.137	0.0146519
798.215	0.0148203
798.293	0.0148027
798.371	0.0145044
798.450	0.0146562
798.528	0.0146938
798.606	0.0147004
798.684	0.0148659
798.762	0.0146803
798.840	0.0147318
798.918	0.0147684
798.996	0.0147224
799.075	0.0147120
799.153	0.0147299
799.231	0.0148483
799.309	0.0146495
799.387	0.0146548
799.465	0.0147683
799.543	0.0147463
799.621	0.0145824
799.700	0.0147041
799.778	0.0147258
799.856	0.0147251
799.934	0.0147675
800.012	0.0145605
800.090	0.0145993
800.168	0.0144874
800.246	0.0145677
800.325	0.0145234
800.403	0.0145053
800.481	0.0145161
800.559	0.0145602
800.637	0.0144871
800.715	0.0146660
800.793	0.0144685
800.871	0.0144677
800.950	0.0145412
801.028	0.0145237
801.106	0.0146076
801.184	0.0145707
801.262	0.0145080
801.340	0.0144375
801.418	0.0145155
801.496	0.0146762
801.575	0.0145068
801.653	0.0144167
801.731	0.0144618
801.809	0.0146464
801.887	0.0144893
801.965	0.0144974
802.043	0.0145126
802.121	0.0144265
802.200	0.0144099
802.278	0.0145368
802.356	0.0144794
802.434	0.0144022
802.512	0.0143700
802.590	0.0144704
802.668	0.0144337
802.746	0.0144597
802.825	0.0146687
802.903	0.0145081
802.981	0.0145882
803.059	0.0145854
803.137	0.0145605
803.215	0.0144660
803.293	0.0144264
803.371	0.0147662
803.450	0.0146384
803.528	0.0145569
803.606	0.0145847
803.684	0.0146236
803.762	0.0146808
803.840	0.0147079
803.918	0.0145560
803.996	0.0147201
804.075	0.0145936
804.153	0.0147341
804.231	0.0146944
804.309	0.0146652
804.387	0.0145815
804.465	0.0146893
804.543	0.0147620
804.621	0.0147372
804.700	0.0146664
804.778	0.0145496
804.856	0.0145452
804.934	0.0145330
805.012	0.0146270
805.090	0.0146879
805.168	0.0146784
805.246	0.0146195
805.325	0.0146314
805.403	0.0145947
805.481	0.0147366
805.559	0.0147223
805.637	0.0147432
805.715	0.0147820
805.793	0.0146648
805.871	0.0146703
805.950	0.0148124
806.028	0.0146923
806.106	0.0147757
806.184	0.0146482
806.262	0.0147086
806.340	0.0147475
806.418	0.0146810
806.496	0.0147524
806.575	0.0148401
806.653	0.0146191
806.731	0.0146943
806.809	0.0147108
806.887	0.0147142
806.965	0.0147576
807.043	0.0148476
807.121	0.0147590
807.200	0.0147708
807.278	0.0147115
807.356	0.0145836
807.434	0.0146966
807.512	0.0146888
807.590	0.0147081
807.668	0.0145869
807.746	0.0146136
807.825	0.0147336
807.903	0.0147186
807.981	0.0146424
808.059	0.0145501
808.137	0.0147083
808.215	0.0147475
808.293	0.0145007
808.371	0.0146507
808.450	0.0148183
808.528	0.0146622
808.606	0.0146802
808.684	0.0146060
808.762	0.0147395
808.840	0.0147124
808.918	0.0147221
808.996	0.0146418
809.075	0.0145834
809.153	0.0147092
809.231	0.0147997
809.309	0.0146854
809.387	0.0147346
809.465	0.0147692
809.543	0.0147580
809.621	0.0147944
809.700	0.0145431
809.778	0.0147974
809.856	0.0146374
809.934	0.0147717
810.012	0.0147958
810.090	0.0145630
810.168	0.0146988
810.246	0.0145282
810.325	0.0147009
810.403	0.0146777
810.481	0.0148164
810.559	0.0147845
810.637	0.0147226
810.715	0.0145330
810.793	0.0145987
810.871	0.0146069
810.950	0.0146173
811.028	0.0147810
811.106	0.0147833
811.184	0.0148125
811.262	0.0147593
811.340	0.0147270
811.418	0.0145341
811.496	0.0146027
811.575	0.0147460
811.653	0.0148585
811.731	0.0146761
811.809	0.0147373
811.887	0.0147776
811.965	0.0146128
812.043	0.0145733
812.121	0.0147295
812.200	0.0147128
812.278	0.0145120
812.356	0.0147055
812.434	0.0147366
812.512	0.0148588
812.590	0.0146414
812.668	0.0145872
812.746	0.0145985
812.825	0.0146281
812.903	0.0147173
812.981	0.0147186
813.059	0.0146551
813.137	0.0146439
813.215	0.0146027
813.293	0.0145775
813.371	0.0146751
813.450	0.0147025
813.528	0.0146498
813.606	0.0146632
813.684	0.0147496
813.762	0.0146761
813.840	0.0147920
813.918	0.0146428
813.996	0.0147089
814.075	0.0147604
814.153	0.0147559
814.231	0.0145953
814.309	0.0147388
814.387	0.0146885
814.465	0.0147327
814.543	0.0146198
814.621	0.0147359
814.700	0.0147100
814.778	0.0146564
814.856	0.0145982
814.934	0.0146066
815.012	0.0147292
815.090	0.0145550
815.168	0.0147297
815.246	0.0148450
815.325	0.0145795
815.403	0.0146130
815.481	0.0146655
815.559	0.0146682
815.637	0.0147676
815.715	0.0145901
815.793	0.0147066
815.871	0.0145927
815.950	0.0145974
816.028	0.0145067
816.106	0.0146806
816.184	0.0146938
816.262	0.0146491
816.340	0.0147103
816.418	0.0145963
816.496	0.0145801
816.575	0.0145563
816.653	0.0146040
816.731	0.0146970
816.809	0.0147088
816.887	0.0146494
816.965	0.0147659
817.043	0.0148115
817.121	0.0147623
817.200	0.0147311
817.278	0.0148159
817.356	0.0148097
817.434	0.0148473
817.512	0.0148116
817.590	0.0145599
817.668	0.0147449
817.746	0.0146484
817.825	0.0147354
817.903	0.0147222
817.981	0.0147329
818.059	0.0147443
818.137	0.0147502
818.215	0.0147302
818.293	0.0147591
818.371	0.0146390
818.450	0.0146185
818.528	0.0148801
818.606	0.0148183
818.684	0.0146974
818.762	0.0146834
818.840	0.0148920
818.918	0.0147670
818.996	0.0147247
819.075	0.0147661
819.153	0.0148342
819.231	0.0147027
819.309	0.0148101
819.387	0.0147530
819.465	0.0147148
819.543	0.0147869
819.621	0.0147907
819.700	0.0148079
819.778	0.0148486
819.856	0.0148727
819.934	0.0148133
820.012	0.0149505
820.090	0.0148249
820.168	0.0147440
820.246	0.0146500
820.325	0.0145985
820.403	0.0146307
820.481	0.0147771
820.559	0.0147974
820.637	0.0146842
820.715	0.0146716
820.793	0.0146741
820.871	0.0148330
820.950	0.0145927
821.028	0.0147157
821.106	0.0147335
821.184	0.0146779
821.262	0.0147591
821.340	0.0147606
821.418	0.0147634
821.496	0.0147336
821.575	0.0146829
821.653	0.0147317
821.731	0.0147539
821.809	0.0146437
821.887	0.0146264
821.965	0.0146950
822.043	0.0146568
822.121	0.0146471
822.200	0.0146835
822.278	0.0146060
822.356	0.0147805
822.434	0.0146795
822.512	0.0146386
822.590	0.0145903
822.668	0.0145632
822.746	0.0146795
822.825	0.0145776
822.903	0.0146208
822.981	0.0145708
823.059	0.0147293
823.137	0.0145065
823.215	0.0145578
823.293	0.0145914
823.371	0.0146378
823.450	0.0147453
823.528	0.0146937
823.606	0.0146762
823.684	0.0146223
823.762	0.0147803
823.840	0.0147619
823.918	0.0147416
823.996	0.0147110
824.075	0.0147321
824.153	0.0146528
824.231	0.0146382
824.309	0.0148511
824.387	0.0147308
824.465	0.0146657
824.543	0.0148534
824.621	0.0148093
824.700	0.0145805
824.778	0.0147256
824.856	0.0147746
824.934	0.0148088
825.012	0.0147411
825.090	0.0147715
825.168	0.0146767
825.246	0.0146819
825.325	0.0147350
825.403	0.0146999
825.481	0.0146387
825.559	0.0147938
825.637	0.0147599
825.715	0.0147558
825.793	0.0147500
825.871	0.0147305
825.950	0.0147129
826.028	0.0146265
826.106	0.0147060
826.184	0.0146722
826.262	0.0147218
826.340	0.0146780
826.418	0.0146642
826.496	0.0147488
826.575	0.0148054
826.653	0.0148305
826.731	0.0147435
826.809	0.0147374
826.887	0.0148795
826.965	0.0148734
827.043	0.0147411
827.121	0.0148887
827.200	0.0148598
827.278	0.0147639
827.356	0.0147266
827.434	0.0146620
827.512	0.0147459
827.590	0.0147318
827.668	0.0146365
827.746	0.0147680
827.825	0.0147568
827.903	0.0146650
827.981	0.0146250
828.059	0.0147274
828.137	0.0146951
828.215	0.0146610
828.293	0.0146414
828.371	0.0145973
828.450	0.0145971
828.528	0.0147232
828.606	0.0146349
828.684	0.0146335
828.762	0.0145166
828.840	0.0146663
828.918	0.0147957
828.996	0.0146815
829.075	0.0148395
829.153	0.0148753
829.231	0.0148528
829.309	0.0148740
829.387	0.0147379
829.465	0.0147564
829.543	0.0147196
829.621	0.0148886
829.700	0.0148878
829.778	0.0147543
829.856	0.0147991
829.934	0.0147903
830.012	0.0147128
830.090	0.0145892
830.168	0.0146999
830.246	0.0147080
830.325	0.0147450
830.403	0.0144898
830.481	0.0146946
830.559	0.0146795
830.637	0.0147164
830.715	0.0148149
830.793	0.0148384
830.871	0.0147117
830.950	0.0147549
831.028	0.0148767
831.106	0.0147402
831.184	0.0147572
831.262	0.0148043
831.340	0.0145752
831.418	0.0147443
831.496	0.0147736
831.575	0.0146691
831.653	0.0147915
831.731	0.0147202
831.809	0.0147012
831.887	0.0146586
831.965	0.0147591
832.043	0.0147733
832.121	0.0146124
832.200	0.0146306
832.278	0.0144934
832.356	0.0146363
832.434	0.0146183
832.512	0.0145450
832.590	0.0145753
832.668	0.0147020
832.746	0.0145528
832.825	0.0146523
832.903	0.0147131
832.981	0.0146970
833.059	0.0146848
833.137	0.0147547
833.215	0.0147512
833.293	0.0146735
833.371	0.0147198
833.450	0.0146479
833.528	0.0148291
833.606	0.0148103
833.684	0.0146336
833.762	0.0147221
833.840	0.0145715
833.918	0.0146566
833.996	0.0146440
834.075	0.0146013
834.153	0.0147059
834.231	0.0146129
834.309	0.0146518
834.387	0.0146313
834.465	0.0146729
834.543	0.0144680
834.621	0.0145741
834.700	0.0146136
834.778	0.0147253
834.856	0.0147012
834.934	0.0146396
835.012	0.0147185
835.090	0.0146656
835.168	0.0147261
835.246	0.0147121
835.325	0.0148486
835.403	0.0147260
835.481	0.0147506
835.559	0.0145731
835.637	0.0146519
835.715	0.0145753
835.793	0.0145309
835.871	0.0145856
835.950	0.0146005
836.028	0.0146893
836.106	0.0144759
836.184	0.0144966
836.262	0.0146249
836.340	0.0146098
836.418	0.0146367
836.496	0.0146385
836.575	0.0146109
836.653	0.0145660
836.731	0.0146389
836.809	0.0146155
836.887	0.0145792
836.965	0.0146593
837.043	0.0146085
837.121	0.0145161
837.200	0.0146239
837.278	0.0147187
837.356	0.0146738
837.434	0.0145703
837.512	0.0146801
837.590	0.0145300
837.668	0.0145725
837.746	0.0146439
837.825	0.0145214
837.903	0.0145031
837.981	0.0145792
838.059	0.0145207
838.137	0.0145253
838.215	0.0147079
838.293	0.0145067
838.371	0.0146494
838.450	0.0144810
838.528	0.0144633
838.606	0.0146519
838.684	0.0146929
838.762	0.0145263
838.840	0.0146131
838.918	0.0145901
838.996	0.0145730
839.075	0.0144410
839.153	0.0144930
839.231	0.0145532
839.309	0.0145990
839.387	0.0146128
839.465	0.0145451
839.543	0.0145857
839.621	0.0145765
839.700	0.0144324
839.778	0.0144809
839.856	0.0144839
839.934	0.0145248
840.012	0.0147032
840.090	0.0146628
840.168	0.0144301
840.246	0.0144726
840.325	0.0145071
840.403	0.0145901
840.481	0.0145780
840.559	0.0145261
840.637	0.0146998
840.715	0.0146671
840.793	0.0146087
840.871	0.0145490
840.950	0.0146095
841.028	0.0146014
841.106	0.0145859
841.184	0.0146549
841.262	0.0145898
841.340	0.0146683
841.418	0.0147028
841.496	0.0146597
841.575	0.0147052
841.653	0.0147343
841.731	0.0146889
841.809	0.0145470
841.887	0.0147475
841.965	0.0147005
842.043	0.0147813
842.121	0.0146947
842.200	0.0145544
842.278	0.0148038
842.356	0.0147471
842.434	0.0147372
842.512	0.0147121
842.590	0.0146957
842.668	0.0147545
842.746	0.0147963
842.825	0.0148696
842.903	0.0148381
842.981	0.0147314
843.059	0.0147122
843.137	0.0147713
843.215	0.0146372
843.293	0.0147254
843.371	0.0148454
843.450	0.0146073
843.528	0.0147451
843.606	0.0146758
843.684	0.0147341
843.762	0.0147643
843.840	0.0146732
843.918	0.0147166
843.996	0.0146505
844.075	0.0147015
844.153	0.0146095
844.231	0.0147098
844.309	0.0147867
844.387	0.0147368
844.465	0.0147910
844.543	0.0147610
844.621	0.0146423
844.700	0.0147265
844.778	0.0147955
844.856	0.0148347
844.934	0.0147552
845.012	0.0147197
845.090	0.0146893
845.168	0.0149033
845.246	0.0147802
845.325	0.0149021
845.403	0.0148744
845.481	0.0147092
845.559	0.0148950
845.637	0.0146864
845.715	0.0147034
845.793	0.0148640
845.871	0.0148155
845.950	0.0148756
846.028	0.0148183
846.106	0.0148118
846.184	0.0148036
846.262	0.0146922
846.340	0.0147952
846.418	0.0147351
846.496	0.0147603
846.575	0.0146714
846.653	0.0146916
846.731	0.0147102
846.809	0.0147483
846.887	0.0148038
846.965	0.0147839
847.043	0.0149001
847.121	0.0148648
847.200	0.0147703
847.278	0.0148486
847.356	0.0148101
847.434	0.0149437
847.512	0.0149277
847.590	0.0148581
847.668	0.0148076
847.746	0.0148052
847.825	0.0147556
847.903	0.0148850
847.981	0.0148575
848.059	0.0147430
848.137	0.0147512
848.215	0.0147367
848.293	0.0146712
848.371	0.0149122
848.450	0.0147845
848.528	0.0147807
848.606	0.0146667
848.684	0.0146800
848.762	0.0149007
848.840	0.0146667
848.918	0.0147256
848.996	0.0147813
849.075	0.0146062
849.153	0.0148032
849.231	0.0146727
849.309	0.0148141
849.387	0.0146999
849.465	0.0146561
849.543	0.0147011
849.621	0.0146881
849.700	0.0145478
849.778	0.0147736
849.856	0.0147325
849.934	0.0146795
850.012	0.0145525
850.090	0.0146626
850.168	0.0148437
850.246	0.0147742
850.325	0.0147491
850.403	0.0147847
850.481	0.0146824
850.559	0.0146725
850.637	0.0148870
850.715	0.0149648
850.793	0.0147729
850.871	0.0147093
850.950	0.0147269
851.028	0.0148332
851.106	0.0147677
851.184	0.0147419
851.262	0.0147500
851.340	0.0147858
851.418	0.0148613
851.496	0.0147525
851.575	0.0147535
851.653	0.0147218
851.731	0.0146420
851.809	0.0146542
851.887	0.0146603
851.965	0.0146028
852.043	0.0146754
852.121	0.0145436
852.200	0.0145573
852.278	0.0145429
852.356	0.0145682
852.434	0.0146922
852.512	0.0146251
852.590	0.0146883
852.668	0.0145850
852.746	0.0146656
852.825	0.0147507
852.903	0.0148296
852.981	0.0147892
853.059	0.0147126
853.137	0.0147549
853.215	0.0148747
853.293	0.0148437
853.371	0.0149063
853.450	0.0148962
853.528	0.0147547
853.606	0.0149794
853.684	0.0148038
853.762	0.0147363
853.840	0.0146849
853.918	0.0147826
853.996	0.0147596
854.075	0.0147652
854.153	0.0148098
854.231	0.0147153
854.309	0.0146913
854.387	0.0148190
854.465	0.0147358
854.543	0.0146564
854.621	0.0147042
854.700	0.0147607
854.778	0.0146869
854.856	0.0147495
854.934	0.0146547
855.012	0.0145863
855.090	0.0148399
855.168	0.0146652
855.246	0.0146474
855.325	0.0147702
855.403	0.0148470
855.481	0.0147223
855.559	0.0145663
855.637	0.0144970
855.715	0.0146251
855.793	0.0145655
855.871	0.0145980
855.950	0.0146599
856.028	0.0147062
856.106	0.0147275
856.184	0.0146359
856.262	0.0145286
856.340	0.0146355
856.418	0.0147840
856.496	0.0146783
856.575	0.0148219
856.653	0.0147411
856.731	0.0146811
856.809	0.0146645
856.887	0.0146147
856.965	0.0146809
857.043	0.0147173
857.121	0.0147305
857.200	0.0146324
857.278	0.0146819
857.356	0.0146860
857.434	0.0146880
857.512	0.0146754
857.590	0.0147329
857.668	0.0145901
857.746	0.0145125
857.825	0.0144417
857.903	0.0146827
857.981	0.0147333
858.059	0.0145502
858.137	0.0146381
858.215	0.0145993
858.293	0.0145819
858.371	0.0146026
858.450	0.0146313
858.528	0.0146333
858.606	0.0147044
858.684	0.0147181
858.762	0.0147045
858.840	0.0146676
858.918	0.0148689
858.996	0.0147863
859.075	0.0147099
859.153	0.0147714
859.231	0.0148359
859.309	0.0147746
859.387	0.0147334
859.465	0.0146970
859.543	0.0148062
859.621	0.0146210
859.700	0.0147088
859.778	0.0148037
859.856	0.0147610
859.934	0.0148227
860.012	0.0146926
860.090	0.0148267
860.168	0.0146954
860.246	0.0146787
860.325	0.0148119
860.403	0.0148447
860.481	0.0148134
860.559	0.0147713
860.637	0.0146309
860.715	0.0146896
860.793	0.0147495
860.871	0.0146917
860.950	0.0146819
861.028	0.0145953
861.106	0.0145300
861.184	0.0146384
861.262	0.0147773
861.340	0.0146828
861.418	0.0145532
861.496	0.0146696
861.575	0.0147215
861.653	0.0145892
861.731	0.0146128
861.809	0.0146725
861.887	0.0146990
861.965	0.0147243
862.043	0.0147501
862.121	0.0146162
862.200	0.0145936
862.278	0.0147023
862.356	0.0146568
862.434	0.0146984
862.512	0.0145794
862.590	0.0144903
862.668	0.0145419
862.746	0.0145938
862.825	0.0145680
862.903	0.0147086
862.981	0.0145844
863.059	0.0145893
863.137	0.0146487
863.215	0.0146725
863.293	0.0145418
863.371	0.0146564
863.450	0.0146458
863.528	0.0146536
863.606	0.0146721
863.684	0.0145600
863.762	0.0145748
863.840	0.0145194
863.918	0.0145918
863.996	0.0145773
864.075	0.0144997
864.153	0.0145870
864.231	0.0145875
864.309	0.0146129
864.387	0.0146018
864.465	0.0146876
864.543	0.0146437
864.621	0.0146304
864.700	0.0146809
864.778	0.0147894
864.856	0.0146638
864.934	0.0146788
865.012	0.0147002
865.090	0.0145683
865.168	0.0146794
865.246	0.0146457
865.325	0.0145729
865.403	0.0146170
865.481	0.0145855
865.559	0.0146048
865.637	0.0145043
865.715	0.0147215
865.793	0.0145219
865.871	0.0145223
865.950	0.0145612
866.028	0.0146398
866.106	0.0145770
866.184	0.0145416
866.262	0.0144740
866.340	0.0144731
866.418	0.0145567
866.496	0.0147079
866.575	0.0146904
866.653	0.0146423
866.731	0.0146116
866.809	0.0147239
866.887	0.0147381
866.965	0.0147283
867.043	0.0147565
867.121	0.0147391
867.200	0.0147107
867.278	0.0146780
867.356	0.0147082
867.434	0.0146986
867.512	0.0145428
867.590	0.0146696
867.668	0.0147234
867.746	0.0147488
867.825	0.0147974
867.903	0.0146891
867.981	0.0148655
868.059	0.0146818
868.137	0.0146488
868.215	0.0147372
868.293	0.0145835
868.371	0.0146835
868.450	0.0147726
868.528	0.0147183
868.606	0.0146716
868.684	0.0147826
868.762	0.0147878
868.840	0.0146027
868.918	0.0146522
868.996	0.0145795
869.075	0.0148141
869.153	0.0146341
869.231	0.0146435
869.309	0.0146023
869.387	0.0146568
869.465	0.0145553
869.543	0.0147136
869.621	0.0146164
869.700	0.0146010
869.778	0.0147305
869.856	0.0147082
869.934	0.0146352
870.012	0.0146946
870.090	0.0147697
870.168	0.0145751
870.246	0.0146928
870.325	0.0147647
870.403	0.0147611
870.481	0.0146822
870.559	0.0146666
870.637	0.0147205
870.715	0.0148121
870.793	0.0146801
870.871	0.0146857
870.950	0.0147068
871.028	0.0145813
871.106	0.0145212
871.184	0.0146822
871.262	0.0146170
871.340	0.0146897
871.418	0.0146886
871.496	0.0146676
871.575	0.0148027
871.653	0.0147117
871.731	0.0146066
871.809	0.0146143
871.887	0.0146582
871.965	0.0145607
872.043	0.0146841
872.121	0.0146419
872.200	0.0147462
872.278	0.0148872
872.356	0.0146181
872.434	0.0148393
872.512	0.0147700
872.590	0.0146368
872.668	0.0147744
872.746	0.0147267
872.825	0.0146613
872.903	0.0147146
872.981	0.0148675
873.059	0.0148528
873.137	0.0147452
873.215	0.0147658
873.293	0.0147655
873.371	0.0147189
873.450	0.0146908
873.528	0.0148230
873.606	0.0147935
873.684	0.0147495
873.762	0.0146926
873.840	0.0148248
873.918	0.0146454
873.996	0.0147833
874.075	0.0148317
874.153	0.0148226
874.231	0.0147543
874.309	0.0147927
874.387	0.0148147
874.465	0.0148172
874.543	0.0148544
874.621	0.0148873
874.700	0.0147547
874.778	0.0147607
874.856	0.0147775
874.934	0.0146682
875.012	0.0147935
875.090	0.0147518
875.168	0.0147124
875.246	0.0147550
875.325	0.0147243
875.403	0.0147237
875.481	0.0146593
875.559	0.0147257
875.637	0.0147395
875.715	0.0147369
875.793	0.0146257
875.871	0.0146323
875.950	0.0147195
876.028	0.0147710
876.106	0.0147279
876.184	0.0146711
876.262	0.0147965
876.340	0.0146042
876.418	0.0146127
876.496	0.0146379
876.575	0.0145715
876.653	0.0146911
876.731	0.0147585
876.809	0.0146310
876.887	0.0147887
876.965	0.0146527
877.043	0.0147138
877.121	0.0147699
877.200	0.0147571
877.278	0.0147778
877.356	0.0147120
877.434	0.0147074
877.512	0.0148029
877.590	0.0146570
877.668	0.0148107
877.746	0.0147357
877.825	0.0147385
877.903	0.0147514
877.981	0.0146528
878.059	0.0147921
878.137	0.0147744
878.215	0.0148290
878.293	0.0146831
878.371	0.0148055
878.450	0.0146665
878.528	0.0147531
878.606	0.0147688
878.684	0.0147634
878.762	0.0146266
878.840	0.0148626
878.918	0.0146716
878.996	0.0146266
879.075	0.0146690
879.153	0.0146015
879.231	0.0147555
879.309	0.0147041
879.387	0.0147733
879.465	0.0146262
879.543	0.0147175
879.621	0.0147004
879.700	0.0145963
879.778	0.0146267
879.856	0.0146288
879.934	0.0146346
880.012	0.0146288
880.090	0.0146431
880.168	0.0145983
880.246	0.0146409
880.325	0.0145956
880.403	0.0145911
880.481	0.0146198
880.559	0.0145660
880.637	0.0145321
880.715	0.0146207
880.793	0.0145078
880.871	0.0144775
880.950	0.0146659
881.028	0.0144839
881.106	0.0144533
881.184	0.0146478
881.262	0.0146233
881.340	0.0146737
881.418	0.0145531
881.496	0.0146074
881.575	0.0146210
881.653	0.0146039
881.731	0.0145509
881.809	0.0146129
881.887	0.0144925
881.965	0.0147606
882.043	0.0147610
882.121	0.0148183
882.200	0.0146123
882.278	0.0146473
882.356	0.0146906
882.434	0.0146251
882.512	0.0146118
882.590	0.0145612
882.668	0.0147120
882.746	0.0146193
882.825	0.0147192
882.903	0.0147993
882.981	0.0145856
883.059	0.0145695
883.137	0.0147614
883.215	0.0145866
883.293	0.0144933
883.371	0.0147486
883.450	0.0146741
883.528	0.0145885
883.606	0.0145924
883.684	0.0145947
883.762	0.0146981
883.840	0.0144168
883.918	0.0144774
883.996	0.0146933
884.075	0.0145470
884.153	0.0146122
884.231	0.0145711
884.309	0.0146784
884.387	0.0145534
884.465	0.0146513
884.543	0.0146011
884.621	0.0145215
884.700	0.0146296
884.778	0.0145302
884.856	0.0145280
884.934	0.0146985
885.012	0.0146548
885.090	0.0146082
885.168	0.0147046
885.246	0.0146549
885.325	0.0146800
885.403	0.0147243
885.481	0.0146057
885.559	0.0147227
885.637	0.0146820
885.715	0.0147427
885.793	0.0147822
885.871	0.0146668
885.950	0.0146657
886.028	0.0147540
886.106	0.0145561
886.184	0.0146997
886.262	0.0147523
886.340	0.0145972
886.418	0.0144939
886.496	0.0145554
886.575	0.0146120
886.653	0.0144581
886.731	0.0144172
886.809	0.0144359
886.887	0.0144935
886.965	0.0145055
887.043	0.0145049
887.121	0.0143008
887.200	0.0144341
887.278	0.0144862
887.356	0.0145174
887.434	0.0146753
887.512	0.0145801
887.590	0.0146941
887.668	0.0145510
887.746	0.0146826
887.825	0.0146930
887.903	0.0147202
887.981	0.0147016
888.059	0.0148721
888.137	0.0148710
888.215	0.0148244
888.293	0.0148651
888.371	0.0148070
888.450	0.0147935
888.528	0.0146792
888.606	0.0146495
888.684	0.0146477
888.762	0.0147159
888.840	0.0145910
888.918	0.0145495
888.996	0.0144799
889.075	0.0145377
889.153	0.0143993
889.231	0.0143939
889.309	0.0143906
889.387	0.0144815
889.465	0.0145827
889.543	0.0146104
889.621	0.0145794
889.700	0.0145324
889.778	0.0145585
889.856	0.0147742
889.934	0.0145985
890.012	0.0147076
890.090	0.0146779
890.168	0.0148237
890.246	0.0147992
890.325	0.0148930
890.403	0.0146898
890.481	0.0146576
890.559	0.0147164
890.637	0.0147088
890.715	0.0146069
890.793	0.0146307
890.871	0.0145963
890.950	0.0145207
891.028	0.0146079
891.106	0.0145945
891.184	0.0146012
891.262	0.0145499
891.340	0.0144830
891.418	0.0145411
891.496	0.0147921
891.575	0.0147545
891.653	0.0146478
891.731	0.0145940
891.809	0.0147199
891.887	0.0147266
891.965	0.0147315
892.043	0.0146451
892.121	0.0147858
892.200	0.0146822
892.278	0.0146352
892.356	0.0147906
892.434	0.0146454
892.512	0.0146527
892.590	0.0147417
892.668	0.0146484
892.746	0.0147536
892.825	0.0146574
892.903	0.0146227
892.981	0.0146748
893.059	0.0148183
893.137	0.0147891
893.215	0.0144601
893.293	0.0146439
893.371	0.0148125
893.450	0.0146633
893.528	0.0146513
893.606	0.0147121
893.684	0.0146358
893.762	0.0146935
893.840	0.0146500
893.918	0.0149189
893.996	0.0149142
894.075	0.0149143
894.153	0.0147629
894.231	0.0147648
894.309	0.0147240
894.387	0.0146185
894.465	0.0146864
894.543	0.0147415
894.621	0.0146845
894.700	0.0145971
894.778	0.0144376
894.856	0.0144788
894.934	0.0145859
895.012	0.0146678
895.090	0.0144830
895.168	0.0144558
895.246	0.0143762
895.325	0.0144382
895.403	0.0145171
895.481	0.0146101
895.559	0.0145066
895.637	0.0146808
895.715	0.0146262
895.793	0.0147196
895.871	0.0148164
895.950	0.0146950
896.028	0.0147138
896.106	0.0147575
896.184	0.0149023
896.262	0.0147336
896.340	0.0146623
896.418	0.0146908
896.496	0.0148313
896.575	0.0148615
896.653	0.0148599
896.731	0.0147575
896.809	0.0147446
896.887	0.0146280
896.965	0.0146108
897.043	0.0147567
897.121	0.0148019
897.200	0.0146915
897.278	0.0145408
897.356	0.0145116
897.434	0.0146796
897.512	0.0147120
897.590	0.0146307
897.668	0.0147600
897.746	0.0147072
897.825	0.0148789
897.903	0.0146998
897.981	0.0147277
898.059	0.0147478
898.137	0.0147672
898.215	0.0147902
898.293	0.0147224
898.371	0.0147542
898.450	0.0147790
898.528	0.0147721
898.606	0.0147091
898.684	0.0147324
898.762	0.0147312
898.840	0.0145592
898.918	0.0145722
898.996	0.0145738
899.075	0.0146834
899.153	0.0146978
899.231	0.0144902
899.309	0.0146136
899.387	0.0145026
899.465	0.0145641
899.543	0.0146507
899.621	0.0145730
899.700	0.0146178
899.778	0.0145119
899.856	0.0146464
899.934	0.0147586
900.012	0.0146534
900.090	0.0146182
900.168	0.0147249
900.246	0.0147605
900.325	0.0147077
900.403	0.0146702
900.481	0.0147816
900.559	0.0147957
900.637	0.0148514
900.715	0.0145498
900.793	0.0146780
900.871	0.0146443
900.950	0.0146820
901.028	0.0148586
901.106	0.0146990
901.184	0.0145355
901.262	0.0145863
901.340	0.0145589
901.418	0.0145174
901.496	0.0144218
901.575	0.0145612
901.653	0.0146756
901.731	0.0146883
901.809	0.0145929
901.887	0.0146550
901.965	0.0147605
902.043	0.0148293
902.121	0.0147214
902.200	0.0147461
902.278	0.0147585
902.356	0.0148862
902.434	0.0148135
902.512	0.0148325
902.590	0.0146579
902.668	0.0147375
902.746	0.0146654
902.825	0.0147896
902.903	0.0146263
902.981	0.0146271
903.059	0.0144772
903.137	0.0146504
903.215	0.0146383
903.293	0.0146124
903.371	0.0146625
903.450	0.0146246
903.528	0.0146078
903.606	0.0148046
903.684	0.0147305
903.762	0.0146775
903.840	0.0145364
903.918	0.0146983
903.996	0.0147210
904.075	0.0147552
904.153	0.0147477
904.231	0.0146821
904.309	0.0145950
904.387	0.0146800
904.465	0.0146381
904.543	0.0147977
904.621	0.0145895
904.700	0.0147442
904.778	0.0146304
904.856	0.0147121
904.934	0.0145818
905.012	0.0146825
905.090	0.0147195
905.168	0.0146806
905.246	0.0146889
905.325	0.0147306
905.403	0.0145221
905.481	0.0146041
905.559	0.0147675
905.637	0.0146629
905.715	0.0146151
905.793	0.0147650
905.871	0.0145614
905.950	0.0145096
906.028	0.0146310
906.106	0.0147424
906.184	0.0147442
906.262	0.0147929
906.340	0.0147097
906.418	0.0147567
906.496	0.0147076
906.575	0.0147140
906.653	0.0145900
906.731	0.0146240
906.809	0.0147713
906.887	0.0147479
906.965	0.0145672
907.043	0.0147505
907.121	0.0148065
907.200	0.0147342
907.278	0.0146358
907.356	0.0146410
907.434	0.0145409
907.512	0.0145388
907.590	0.0145370
907.668	0.0145905
907.746	0.0144921
907.825	0.0146011
907.903	0.0144552
907.981	0.0144842
908.059	0.0145832
908.137	0.0143977
908.215	0.0145194
908.293	0.0145727
908.371	0.0146059
908.450	0.0146468
908.528	0.0147231
908.606	0.0146734
908.684	0.0148308
908.762	0.0148347
908.840	0.0147113
908.918	0.0147015
908.996	0.0149131
909.075	0.0146075
909.153	0.0145957
909.231	0.0146053
909.309	0.0147202
909.387	0.0146815
909.465	0.0146744
909.543	0.0146386
909.621	0.0147424
909.700	0.0144220
909.778	0.0145619
909.856	0.0145710
909.934	0.0144978
910.012	0.0146106
910.090	0.0145865
910.168	0.0146570
910.246	0.0145878
910.325	0.0145433
910.403	0.0147528
910.481	0.0146788
910.559	0.0146935
910.637	0.0146819
910.715	0.0147031
910.793	0.0145760
910.871	0.0146664
910.950	0.0145959
911.028	0.0147386
911.106	0.0147502
911.184	0.0147330
911.262	0.0145419
911.340	0.0146379
911.418	0.0146068
911.496	0.0146294
911.575	0.0145004
911.653	0.0146812
911.731	0.0147474
911.809	0.0149026
911.887	0.0146949
911.965	0.0145475
912.043	0.0146136
912.121	0.0145607
912.200	0.0145567
912.278	0.0146819
912.356	0.0147670
912.434	0.0146120
912.512	0.0146886
912.590	0.0146471
912.668	0.0146130
912.746	0.0146497
912.825	0.0146105
912.903	0.0147450
912.981	0.0148367
913.059	0.0145468
913.137	0.0145940
913.215	0.0146061
913.293	0.0147909
913.371	0.0147414
913.450	0.0148013
913.528	0.0146767
913.606	0.0147049
913.684	0.0147168
913.762	0.0146097
913.840	0.0145550
913.918	0.0146368
913.996	0.0147090
914.075	0.0146622
914.153	0.0146562
914.231	0.0146473
914.309	0.0146956
914.387	0.0146382
914.465	0.0147427
914.543	0.0147457
914.621	0.0146442
914.700	0.0146833
914.778	0.0148166
914.856	0.0146689
914.934	0.0147021
915.012	0.0146391
915.090	0.0147328
915.168	0.0147313
915.246	0.0147279
915.325	0.0145867
915.403	0.0146268
915.481	0.0147520
915.559	0.0146344
915.637	0.0146225
915.715	0.0145385
915.793	0.0147274
915.871	0.0145232
915.950	0.0145477
916.028	0.0147386
916.106	0.0145856
916.184	0.0146179
916.262	0.0146836
916.340	0.0146339
916.418	0.0145472
916.496	0.0146765
916.575	0.0147493
916.653	0.0147924
916.731	0.0147524
916.809	0.0147789
916.887	0.0147579
916.965	0.0146254
917.043	0.0146878
917.121	0.0147742
917.200	0.0146510
917.278	0.0146774
917.356	0.0147661
917.434	0.0145159
917.512	0.0146776
917.590	0.0147023
917.668	0.0147193
917.746	0.0144993
917.825	0.0146270
917.903	0.0146004
917.981	0.0146517
918.059	0.0146822
918.137	0.0145808
918.215	0.0146078
918.293	0.0146745
918.371	0.0145339
918.450	0.0146451
918.528	0.0146591
918.606	0.0145812
918.684	0.0145616
918.762	0.0145868
918.840	0.0146522
918.918	0.0146717
918.996	0.0146279
919.075	0.0145252
919.153	0.0145290
919.231	0.0147931
919.309	0.0146693
919.387	0.0146687
919.465	0.0146984
919.543	0.0147396
919.621	0.0146309
919.700	0.0147308
919.778	0.0146761
919.856	0.0147631
919.934	0.0145514
920.012	0.0148083
920.090	0.0147025
920.168	0.0147786
920.246	0.0147598
920.325	0.0147456
920.403	0.0148029
920.481	0.0148222
920.559	0.0146399
920.637	0.0147240
920.715	0.0147307
920.793	0.0147595
920.871	0.0147263
920.950	0.0148425
921.028	0.0146207
921.106	0.0145797
921.184	0.0144902
921.262	0.0146545
921.340	0.0147430
921.418	0.0145925
921.496	0.0146310
921.575	0.0145695
921.653	0.0148135
921.731	0.0147092
921.809	0.0147094
921.887	0.0146346
921.965	0.0146278
922.043	0.0147930
922.121	0.0147525
922.200	0.0147826
922.278	0.0147176
922.356	0.0146774
922.434	0.0147039
922.512	0.0146332
922.590	0.0147984
922.668	0.0147609
922.746	0.0147361
922.825	0.0146692
922.903	0.0147388
922.981	0.0148193
923.059	0.0146828
923.137	0.0146903
923.215	0.0147095
923.293	0.0148096
923.371	0.0145164
923.450	0.0146858
923.528	0.0147920
923.606	0.0146202
923.684	0.0147001
923.762	0.0147353
923.840	0.0147944
923.918	0.0146645
923.996	0.0146144
924.075	0.0145983
924.153	0.0146317
924.231	0.0147527
924.309	0.0147742
924.387	0.0147380
924.465	0.0145831
924.543	0.0145492
924.621	0.0146711
924.700	0.0146915
924.778	0.0146195
924.856	0.0145377
924.934	0.0146669
925.012	0.0145521
925.090	0.0147501
925.168	0.0146955
925.246	0.0145695
925.325	0.0146029
925.403	0.0145284
925.481	0.0146017
925.559	0.0146457
925.637	0.0145584
925.715	0.0145970
925.793	0.0146673
925.871	0.0146577
925.950	0.0146913
926.028	0.0146037
926.106	0.0146823
926.184	0.0147768
926.262	0.0146996
926.340	0.0146951
926.418	0.0146506
926.496	0.0147295
926.575	0.0146930
926.653	0.0147723
926.731	0.0148399
926.809	0.0146153
926.887	0.0148068
926.965	0.0147078
927.043	0.0145914
927.121	0.0147108
927.200	0.0146156
927.278	0.0146901
927.356	0.0146729
927.434	0.0146403
927.512	0.0145171
927.590	0.0145686
927.668	0.0146577
927.746	0.0146100
927.825	0.0145535
927.903	0.0146268
927.981	0.0147589
928.059	0.0146854
928.137	0.0146835
928.215	0.0148323
928.293	0.0149069
928.371	0.0148695
928.450	0.0148300
928.528	0.0148338
928.606	0.0147718
928.684	0.0149168
928.762	0.0147866
928.840	0.0148419
928.918	0.0147839
928.996	0.0148327
929.075	0.0148260
929.153	0.0147922
929.231	0.0148166
929.309	0.0147214
929.387	0.0146627
929.465	0.0146972
929.543	0.0145461
929.621	0.0147832
929.700	0.0148462
929.778	0.0147379
929.856	0.0146310
929.934	0.0147985
930.012	0.0147260
930.090	0.0146358
930.168	0.0148178
930.246	0.0147934
930.325	0.0147398
930.403	0.0146591
930.481	0.0147144
930.559	0.0147459
930.637	0.0148613
930.715	0.0149597
930.793	0.0148513
930.871	0.0148512
930.950	0.0148424
931.028	0.0147964
931.106	0.0148231
931.184	0.0148542
931.262	0.0148245
931.340	0.0147404
931.418	0.0149023
931.496	0.0147836
931.575	0.0145889
931.653	0.0146977
931.731	0.0149097
931.809	0.0147421
931.887	0.0147481
931.965	0.0146889
932.043	0.0147781
932.121	0.0147997
932.200	0.0146479
932.278	0.0146828
932.356	0.0145613
932.434	0.0147768
932.512	0.0146506
932.590	0.0145693
932.668	0.0145473
932.746	0.0146857
932.825	0.0146978
932.903	0.0146178
932.981	0.0146899
933.059	0.0146507
933.137	0.0145898
933.215	0.0146185
933.293	0.0146482
933.371	0.0146456
933.450	0.0146531
933.528	0.0146334
933.606	0.0146727
933.684	0.0145953
933.762	0.0146239
933.840	0.0147883
933.918	0.0146068
933.996	0.0146077
934.075	0.0145862
934.153	0.0145944
934.231	0.0146228
934.309	0.0145014
934.387	0.0145727
934.465	0.0145937
934.543	0.0147658
934.621	0.0147704
934.700	0.0145864
934.778	0.0146223
934.856	0.0145873
934.934	0.0144205
935.012	0.0145908
935.090	0.0145637
935.168	0.0146397
935.246	0.0145678
935.325	0.0146968
935.403	0.0146641
935.481	0.0145228
935.559	0.0143581
935.637	0.0146059
935.715	0.0147536
935.793	0.0147140
935.871	0.0147505
935.950	0.0145860
936.028	0.0146310
936.106	0.0147771
936.184	0.0147865
936.262	0.0146545
936.340	0.0146684
936.418	0.0146582
936.496	0.0146207
936.575	0.0146162
936.653	0.0147404
936.731	0.0146195
936.809	0.0146555
936.887	0.0145432
936.965	0.0146400
937.043	0.0145731
937.121	0.0144963
937.200	0.0145508
937.278	0.0145956
937.356	0.0146571
937.434	0.0145675
937.512	0.0146703
937.590	0.0146426
937.668	0.0145786
937.746	0.0146458
937.825	0.0145686
937.903	0.0144871
937.981	0.0146893
938.059	0.0147819
938.137	0.0146913
938.215	0.0145943
938.293	0.0145343
938.371	0.0145679
938.450	0.0145415
938.528	0.0146501
938.606	0.0146306
938.684	0.0145975
938.762	0.0145942
938.840	0.0145773
938.918	0.0145255
938.996	0.0146335
939.075	0.0147141
939.153	0.0145778
939.231	0.0146729
939.309	0.0146935
939.387	0.0146160
939.465	0.0147620
939.543	0.0147064
939.621	0.0146394
939.700	0.0145944
939.778	0.0147665
939.856	0.0146895
939.934	0.0146595
940.012	0.0146212
940.090	0.0146906
940.168	0.0147016
940.246	0.0146065
940.325	0.0146676
940.403	0.0146739
940.481	0.0146997
940.559	0.0146457
940.637	0.0147736
940.715	0.0147321
940.793	0.0146393
940.871	0.0146918
940.950	0.0145970
941.028	0.0147651
941.106	0.0147150
941.184	0.0146142
941.262	0.0145689
941.340	0.0147491
941.418	0.0147665
941.496	0.0146062
941.575	0.0147088
941.653	0.0146048
941.731	0.0145918
941.809	0.0148269
941.887	0.0147852
941.965	0.0146645
942.043	0.0146028
942.121	0.0145975
942.200	0.0145383
942.278	0.0145924
942.356	0.0145780
942.434	0.0145502
942.512	0.0145882
942.590	0.0145512
942.668	0.0145581
942.746	0.0146275
942.825	0.0144805
942.903	0.0145186
942.981	0.0146436
943.059	0.0146316
943.137	0.0145640
943.215	0.0145606
943.293	0.0145546
943.371	0.0145810
943.450	0.0146066
943.528	0.0145830
943.606	0.0146611
943.684	0.0146224
943.762	0.0145537
943.840	0.0145084
943.918	0.0146601
943.996	0.0146227
944.075	0.0146832
944.153	0.0145342
944.231	0.0146346
944.309	0.0146634
944.387	0.0146255
944.465	0.0147183
944.543	0.0147382
944.621	0.0145806
944.700	0.0146761
944.778	0.0147037
944.856	0.0146833
944.934	0.0147279
945.012	0.0147470
945.090	0.0147661
945.168	0.0146768
945.246	0.0145707
945.325	0.0146831
945.403	0.0148569
945.481	0.0146468
945.559	0.0147511
945.637	0.0145903
945.715	0.0148064
945.793	0.0149174
945.871	0.0148117
945.950	0.0146996
946.028	0.0148181
946.106	0.0145775
946.184	0.0148110
946.262	0.0147918
946.340	0.0146634
946.418	0.0147526
946.496	0.0147543
946.575	0.0148392
946.653	0.0148502
946.731	0.0147617
946.809	0.0149044
946.887	0.0148324
946.965	0.0148551
947.043	0.0148648
947.121	0.0148960
947.200	0.0148833
947.278	0.0148906
947.356	0.0148347
947.434	0.0149399
947.512	0.0147627
947.590	0.0149066
947.668	0.0149174
947.746	0.0146897
947.825	0.0148079
947.903	0.0146147
947.981	0.0146984
948.059	0.0146611
948.137	0.0147203
948.215	0.0147942
948.293	0.0147388
948.371	0.0146764
948.450	0.0147358
948.528	0.0147540
948.606	0.0147166
948.684	0.0147159
948.762	0.0147572
948.840	0.0148376
948.918	0.0148474
948.996	0.0147278
949.075	0.0146803
949.153	0.0146400
949.231	0.0146267
949.309	0.0147299
949.387	0.0147863
949.465	0.0146899
949.543	0.0146309
949.621	0.0147805
949.700	0.0147324
949.778	0.0146819
949.856	0.0147923
949.934	0.0147489
950.012	0.0146906
950.090	0.0146900
950.168	0.0146431
950.246	0.0147379
950.325	0.0147091
950.403	0.0146752
950.481	0.0145629
950.559	0.0146803
950.637	0.0147308
950.715	0.0146722
950.793	0.0146774
950.871	0.0145670
950.950	0.0145885
951.028	0.0147133
951.106	0.0147844
951.184	0.0146375
951.262	0.0145448
951.340	0.0146533
951.418	0.0146648
951.496	0.0147006
951.575	0.0147954
951.653	0.0146436
951.731	0.0145910
951.809	0.0147157
951.887	0.0147595
951.965	0.0146852
952.043	0.0147447
952.121	0.0146872
952.200	0.0147362
952.278	0.0146469
952.356	0.0147642
952.434	0.0147151
952.512	0.0147159
952.590	0.0147048
952.668	0.0146133
952.746	0.0146239
952.825	0.0146918
952.903	0.0146725
952.981	0.0146323
953.059	0.0146532
953.137	0.0147324
953.215	0.0146820
953.293	0.0146287
953.371	0.0146535
953.450	0.0145866
953.528	0.0147219
953.606	0.0144911
953.684	0.0146076
953.762	0.0146579
953.840	0.0145619
953.918	0.0144374
953.996	0.0146858
954.075	0.0145862
954.153	0.0145774
954.231	0.0146584
954.309	0.0145565
954.387	0.0145884
954.465	0.0143873
954.543	0.0146223
954.621	0.0146741
954.700	0.0146486
954.778	0.0146840
954.856	0.0146487
954.934	0.0146827
955.012	0.0147227
955.090	0.0146593
955.168	0.0147038
955.246	0.0147290
955.325	0.0145865
955.403	0.0146329
955.481	0.0147885
955.559	0.0147982
955.637	0.0147320
955.715	0.0146159
955.793	0.0147195
955.871	0.0147546
955.950	0.0146851
956.028	0.0147256
956.106	0.0145954
956.184	0.0146609
956.262	0.0146783
956.340	0.0147493
956.418	0.0147367
956.496	0.0146056
956.575	0.0146029
956.653	0.0147298
956.731	0.0145941
956.809	0.0147024
956.887	0.0147488
956.965	0.0147331
957.043	0.0147325
957.121	0.0146888
957.200	0.0146809
957.278	0.0147868
957.356	0.0146172
957.434	0.0146181
957.512	0.0147831
957.590	0.0146296
957.668	0.0146750
957.746	0.0146673
957.825	0.0147305
957.903	0.0147340
957.981	0.0147539
958.059	0.0145660
958.137	0.0144968
958.215	0.0145948
958.293	0.0145687
958.371	0.0146326
958.450	0.0145410
958.528	0.0146481
958.606	0.0146160
958.684	0.0144621
958.762	0.0144530
958.840	0.0144393
958.918	0.0145073
958.996	0.0144657
959.075	0.0145006
959.153	0.0145557
959.231	0.0145512
959.309	0.0146539
959.387	0.0146784
959.465	0.0146451
959.543	0.0144188
959.621	0.0145935
959.700	0.0147114
959.778	0.0146371
959.856	0.0146774
959.934	0.0146281
960.012	0.0146954
960.090	0.0146478
960.168	0.0147297
960.246	0.0146349
960.325	0.0146074
960.403	0.0146505
960.481	0.0148043
960.559	0.0146188
960.637	0.0147433
960.715	0.0146366
960.793	0.0146385
960.871	0.0147795
960.950	0.0146841
961.028	0.0146420
961.106	0.0147069
961.184	0.0146178
961.262	0.0146745
961.340	0.0147415
961.418	0.0147838
961.496	0.0145668
961.575	0.0146143
961.653	0.0146801
961.731	0.0147688
961.809	0.0146347
961.887	0.0147091
961.965	0.0148794
962.043	0.0147859
962.121	0.0147495
962.200	0.0147251
962.278	0.0146417
962.356	0.0147593
962.434	0.0147124
962.512	0.0146832
962.590	0.0147366
962.668	0.0146024
962.746	0.0146171
962.825	0.0147872
962.903	0.0146735
962.981	0.0145383
963.059	0.0145714
963.137	0.0145130
963.215	0.0145422
963.293	0.0145191
963.371	0.0143425
963.450	0.0143557
963.528	0.0145267
963.606	0.0144691
963.684	0.0144809
963.762	0.0144772
963.840	0.0146266
963.918	0.0146342
963.996	0.0145778
964.075	0.0146861
964.153	0.0146538
964.231	0.0146605
964.309	0.0146632
964.387	0.0144576
964.465	0.0145465
964.543	0.0144864
964.621	0.0144388
964.700	0.0145526
964.778	0.0146131
964.856	0.0145515
964.934	0.0146944
965.012	0.0145875
965.090	0.0144530
965.168	0.0146956
965.246	0.0146191
965.325	0.0146322
965.403	0.0144841
965.481	0.0146998
965.559	0.0147195
965.637	0.0146119
965.715	0.0146719
965.793	0.0147445
965.871	0.0146597
965.950	0.0147310
966.028	0.0146695
966.106	0.0146016
966.184	0.0145658
966.262	0.0145259
966.340	0.0146216
966.418	0.0146465
966.496	0.0145012
966.575	0.0146317
966.653	0.0144467
966.731	0.0145777
966.809	0.0145229
966.887	0.0144458
966.965	0.0145392
967.043	0.0146690
967.121	0.0145602
967.200	0.0146980
967.278	0.0146331
967.356	0.0145170
967.434	0.0146009
967.512	0.0147106
967.590	0.0146355
967.668	0.0147382
967.746	0.0146567
967.825	0.0145699
967.903	0.0148296
967.981	0.0146858
968.059	0.0146521
968.137	0.0145649
968.215	0.0148094
968.293	0.0147315
968.371	0.0146770
968.450	0.0146165
968.528	0.0146315
968.606	0.0146566
968.684	0.0147334
968.762	0.0146553
968.840	0.0146145
968.918	0.0147229
968.996	0.0146771
969.075	0.0146480
969.153	0.0145441
969.231	0.0145762
969.309	0.0146068
969.387	0.0146611
969.465	0.0146212
969.543	0.0147846
969.621	0.0148073
969.700	0.0146581
969.778	0.0146999
969.856	0.0147469
969.934	0.0146903
970.012	0.0147670
970.090	0.0146815
970.168	0.0148219
970.246	0.0146004
970.325	0.0146182
970.403	0.0147290
970.481	0.0146732
970.559	0.0146929
970.637	0.0144763
970.715	0.0146782
970.793	0.0148058
970.871	0.0146104
970.950	0.0145895
971.028	0.0147854
971.106	0.0146774
971.184	0.0147734
971.262	0.0147986
971.340	0.0147859
971.418	0.0148679
971.496	0.0149800
971.575	0.0147080
971.653	0.0148454
971.731	0.0148019
971.809	0.0147752
971.887	0.0147179
971.965	0.0147810
972.043	0.0148404
972.121	0.0148000
972.200	0.0147778
972.278	0.0147969
972.356	0.0147093
972.434	0.0147726
972.512	0.0148403
972.590	0.0147288
972.668	0.0146536
972.746	0.0147950
972.825	0.0145802
972.903	0.0147251
972.981	0.0148898
973.059	0.0147224
973.137	0.0145430
973.215	0.0147707
973.293	0.0146763
973.371	0.0146984
973.450	0.0147894
973.528	0.0147896
973.606	0.0146599
973.684	0.0147391
973.762	0.0148891
973.840	0.0148012
973.918	0.0147372
973.996	0.0147533
974.075	0.0147452
974.153	0.0146449
974.231	0.0146929
974.309	0.0148576
974.387	0.0148380
974.465	0.0147330
974.543	0.0148076
974.621	0.0147971
974.700	0.0146803
974.778	0.0147697
974.856	0.0146837
974.934	0.0146584
975.012	0.0148024
975.090	0.0147559
975.168	0.0147231
975.246	0.0146906
975.325	0.0145749
975.403	0.0146880
975.481	0.0146580
975.559	0.0147450
975.637	0.0145881
975.715	0.0145515
975.793	0.0147098
975.871	0.0146836
975.950	0.0146573
976.028	0.0148265
976.106	0.0148049
976.184	0.0147322
976.262	0.0148244
976.340	0.0147532
976.418	0.0147598
976.496	0.0147015
976.575	0.0146570
976.653	0.0147199
976.731	0.0147327
976.809	0.0148431
976.887	0.0146056
976.965	0.0145064
977.043	0.0147963
977.121	0.0147352
977.200	0.0147446
977.278	0.0146552
977.356	0.0145203
977.434	0.0146646
977.512	0.0146033
977.590	0.0145311
977.668	0.0146027
977.746	0.0146058
977.825	0.0146283
977.903	0.0146025
977.981	0.0145139
978.059	0.0145201
978.137	0.0145087
978.215	0.0146767
978.293	0.0146499
978.371	0.0145380
978.450	0.0145779
978.528	0.0146802
978.606	0.0146768
978.684	0.0145796
978.762	0.0146782
978.840	0.0146216
978.918	0.0146030
978.996	0.0145639
979.075	0.0145744
979.153	0.0145295
979.231	0.0146275
979.309	0.0145071
979.387	0.0145756
979.465	0.0145581
979.543	0.0146292
979.621	0.0146368
979.700	0.0145373
979.778	0.0144748
979.856	0.0145855
979.934	0.0147321
980.012	0.0147438
980.090	0.0145120
980.168	0.0144808
980.246	0.0145659
980.325	0.0147179
980.403	0.0145743
980.481	0.0145545
980.559	0.0146724
980.637	0.0145852
980.715	0.0146655
980.793	0.0145834
980.871	0.0146410
980.950	0.0145932
981.028	0.0145155
981.106	0.0146376
981.184	0.0145473
981.262	0.0146731
981.340	0.0146281
981.418	0.0146284
981.496	0.0146906
981.575	0.0146670
981.653	0.0146179
981.731	0.0146021
981.809	0.0144547
981.887	0.0144691
981.965	0.0146088
982.043	0.0147036
982.121	0.0146188
982.200	0.0144946
982.278	0.0145572
982.356	0.0146157
982.434	0.0146350
982.512	0.0145179
982.590	0.0145421
982.668	0.0146297
982.746	0.0145633
982.825	0.0145174
982.903	0.0145795
982.981	0.0146482
983.059	0.0147083
983.137	0.0145493
983.215	0.0147185
983.293	0.0147154
983.371	0.0146880
983.450	0.0146722
983.528	0.0148026
983.606	0.0146759
983.684	0.0147457
983.762	0.0146556
983.840	0.0146512
983.918	0.0147368
983.996	0.0146910
984.075	0.0146335
984.153	0.0145665
984.231	0.0145612
984.309	0.0143835
984.387	0.0146628
984.465	0.0145316
984.543	0.0144788
984.621	0.0145310
984.700	0.0145545
984.778	0.0146461
984.856	0.0146526
984.934	0.0145431
985.012	0.0146327
985.090	0.0145078
985.168	0.0145211
985.246	0.0145018
985.325	0.0146478
985.403	0.0144220
985.481	0.0145721
985.559	0.0145428
985.637	0.0145983
985.715	0.0144509
985.793	0.0147078
985.871	0.0146739
985.950	0.0146709
986.028	0.0145869
986.106	0.0146621
986.184	0.0147572
986.262	0.0146732
986.340	0.0147471
986.418	0.0146794
986.496	0.0147926
986.575	0.0145533
986.653	0.0145387
986.731	0.0144718
986.809	0.0145434
986.887	0.0145596
986.965	0.0144112
987.043	0.0144537
987.121	0.0146407
987.200	0.0145716
987.278	0.0144753
987.356	0.0144827
987.434	0.0145283
987.512	0.0144820
987.590	0.0145455
987.668	0.0146519
987.746	0.0147227
987.825	0.0146571
987.903	0.0145885
987.981	0.0147713
988.059	0.0146519
988.137	0.0144588
988.215	0.0146867
988.293	0.0146993
988.371	0.0146149
988.450	0.0147992
988.528	0.0148507
988.606	0.0146552
988.684	0.0146707
988.762	0.0145708
988.840	0.0145380
988.918	0.0145744
988.996	0.0146777
989.075	0.0146126
989.153	0.0148018
989.231	0.0146373
989.309	0.0147242
989.387	0.0146416
989.465	0.0145242
989.543	0.0146412
989.621	0.0146858
989.700	0.0145490
989.778	0.0146263
989.856	0.0146010
989.934	0.0146693
990.012	0.0148403
990.090	0.0145788
990.168	0.0146366
990.246	0.0147502
990.325	0.0146314
990.403	0.0144975
990.481	0.0146266
990.559	0.0146410
990.637	0.0146650
990.715	0.0147397
990.793	0.0148489
990.871	0.0147173
990.950	0.0146295
991.028	0.0147398
991.106	0.0148077
991.184	0.0146621
991.262	0.0147061
991.340	0.0147828
991.418	0.0146994
991.496	0.0146275
991.575	0.0147047
991.653	0.0147385
991.731	0.0146114
991.809	0.0146800
991.887	0.0146254
991.965	0.0146427
992.043	0.0147292
992.121	0.0147343
992.200	0.0145731
992.278	0.0146345
992.356	0.0146584
992.434	0.0146715
992.512	0.0146443
992.590	0.0147273
992.668	0.0147843
992.746	0.0147190
992.825	0.0146461
992.903	0.0147528
992.981	0.0146855
993.059	0.0149123
993.137	0.0147986
993.215	0.0148362
993.293	0.0148154
993.371	0.0148595
993.450	0.0148164
993.528	0.0147907
993.606	0.0147699
993.684	0.0148980
993.762	0.0149101
993.840	0.0148626
993.918	0.0148937
993.996	0.0147619
994.075	0.0147897
994.153	0.0147347
994.231	0.0148312
994.309	0.0148665
994.387	0.0148197
994.465	0.0146830
994.543	0.0147181
994.621	0.0147149
994.700	0.0145528
994.778	0.0147891
994.856	0.0147856
994.934	0.0147791
995.012	0.0147565
995.090	0.0146612
995.168	0.0146832
995.246	0.0145968
995.325	0.0147364
995.403	0.0146893
995.481	0.0147278
995.559	0.0146920
995.637	0.0148268
995.715	0.0148473
995.793	0.0146419
995.871	0.0148512
995.950	0.0149368
996.028	0.0148016
996.106	0.0147518
996.184	0.0148681
996.262	0.0149590
996.340	0.0148257
996.418	0.0147544
996.496	0.0147600
996.575	0.0148775
996.653	0.0148335
996.731	0.0147520
996.809	0.0148467
996.887	0.0149091
996.965	0.0146765
997.043	0.0148093
997.121	0.0146503
997.200	0.0146729
997.278	0.0146645
997.356	0.0145893
997.434	0.0147201
997.512	0.0147325
997.590	0.0145834
997.668	0.0146252
997.746	0.0144876
997.825	0.0144827
997.903	0.0146244
997.981	0.0146032
998.059	0.0145036
998.137	0.0145643
998.215	0.0145757
998.293	0.0145210
998.371	0.0146668
998.450	0.0146704
998.528	0.0147826
998.606	0.0147318
998.684	0.0147503
998.762	0.0148177
998.840	0.0147589
998.918	0.0148454
