05/04/2022	21:25:33	Ver.	4.1	UNKNOWN
Optical Delay	678.996401	Delta X		0.078125	Sweeps	1	Scan Rate	0/0
Coordinates	Axis 1	NaN	Axis 2	NaN	Axis 3	NaN	Axis 4	NaN	Axis 5	NaN	Axis 6	0.000000
TX Power	0.000000	RX Power	0.000000

678.996	0.0144648
679.075	0.0143192
679.153	0.0144230
679.231	0.0145956
679.309	0.0144865
679.387	0.0143750
679.465	0.0144101
679.543	0.0145393
679.621	0.0144605
679.700	0.0145329
679.778	0.0142904
679.856	0.0144803
679.934	0.0144688
680.012	0.0144970
680.090	0.0145326
680.168	0.0145637
680.246	0.0145003
680.325	0.0143365
680.403	0.0144508
680.481	0.0145601
680.559	0.0145605
680.637	0.0145544
680.715	0.0146202
680.793	0.0145071
680.871	0.0145322
680.950	0.0143747
681.028	0.0144894
681.106	0.0146790
681.184	0.0146555
681.262	0.0145560
681.340	0.0145670
681.418	0.0145928
681.496	0.0144434
681.575	0.0145349
681.653	0.0144125
681.731	0.0143743
681.809	0.0144913
681.887	0.0144963
681.965	0.0144017
682.043	0.0144200
682.121	0.0144261
682.200	0.0143463
682.278	0.0142474
682.356	0.0142786
682.434	0.0143652
682.512	0.0141827
682.590	0.0141326
682.668	0.0143438
682.746	0.0144022
682.825	0.0143962
682.903	0.0144669
682.981	0.0144287
683.059	0.0143980
683.137	0.0144536
683.215	0.0145694
683.293	0.0144982
683.371	0.0144405
683.450	0.0144985
683.528	0.0144173
683.606	0.0144004
683.684	0.0143328
683.762	0.0144307
683.840	0.0144307
683.918	0.0143945
683.996	0.0144415
684.075	0.0145147
684.153	0.0145013
684.231	0.0144980
684.309	0.0144238
684.387	0.0143284
684.465	0.0144118
684.543	0.0144847
684.621	0.0144963
684.700	0.0144135
684.778	0.0144090
684.856	0.0144196
684.934	0.0144275
685.012	0.0142662
685.090	0.0143079
685.168	0.0143411
685.246	0.0143652
685.325	0.0142835
685.403	0.0142480
685.481	0.0143134
685.559	0.0144331
685.637	0.0143642
685.715	0.0142863
685.793	0.0144489
685.871	0.0143777
685.950	0.0145319
686.028	0.0145419
686.106	0.0144560
686.184	0.0145418
686.262	0.0144308
686.340	0.0145746
686.418	0.0146477
686.496	0.0145728
686.575	0.0145520
686.653	0.0145851
686.731	0.0145340
686.809	0.0146274
686.887	0.0145238
686.965	0.0144629
687.043	0.0142606
687.121	0.0144860
687.200	0.0144133
687.278	0.0143958
687.356	0.0145386
687.434	0.0142956
687.512	0.0142838
687.590	0.0144252
687.668	0.0145477
687.746	0.0143523
687.825	0.0143337
687.903	0.0144112
687.981	0.0144193
688.059	0.0144613
688.137	0.0143475
688.215	0.0143108
688.293	0.0144798
688.371	0.0144116
688.450	0.0143587
688.528	0.0144225
688.606	0.0144112
688.684	0.0145498
688.762	0.0145847
688.840	0.0145193
688.918	0.0146050
688.996	0.0147277
689.075	0.0146621
689.153	0.0144254
689.231	0.0145930
689.309	0.0145570
689.387	0.0145998
689.465	0.0146920
689.543	0.0145450
689.621	0.0143974
689.700	0.0143890
689.778	0.0143458
689.856	0.0141116
689.934	0.0141177
690.012	0.0140535
690.090	0.0139304
690.168	0.0141084
690.246	0.0141088
690.325	0.0142377
690.403	0.0142284
690.481	0.0142719
690.559	0.0145258
690.637	0.0145208
690.715	0.0143205
690.793	0.0146294
690.871	0.0145589
690.950	0.0146177
691.028	0.0146633
691.106	0.0146550
691.184	0.0145049
691.262	0.0147555
691.340	0.0145129
691.418	0.0145142
691.496	0.0145769
691.575	0.0143190
691.653	0.0144299
691.731	0.0143486
691.809	0.0142248
691.887	0.0142899
691.965	0.0140686
692.043	0.0140936
692.121	0.0140887
692.200	0.0139134
692.278	0.0138573
692.356	0.0139304
692.434	0.0140224
692.512	0.0140281
692.590	0.0141234
692.668	0.0144226
692.746	0.0144372
692.825	0.0146658
692.903	0.0146375
692.981	0.0147301
693.059	0.0147241
693.137	0.0148692
693.215	0.0147803
693.293	0.0147525
693.371	0.0148102
693.450	0.0149510
693.528	0.0148666
693.606	0.0148670
693.684	0.0147661
693.762	0.0146660
693.840	0.0145012
693.918	0.0145116
693.996	0.0143704
694.075	0.0142711
694.153	0.0141157
694.231	0.0138935
694.309	0.0139074
694.387	0.0139455
694.465	0.0141011
694.543	0.0140450
694.621	0.0140359
694.700	0.0142680
694.778	0.0142308
694.856	0.0143045
694.934	0.0144494
695.012	0.0144366
695.090	0.0145153
695.168	0.0145428
695.246	0.0147740
695.325	0.0149075
695.403	0.0149583
695.481	0.0150986
695.559	0.0153042
695.637	0.0152367
695.715	0.0152661
695.793	0.0153416
695.871	0.0151778
695.950	0.0150023
696.028	0.0148244
696.106	0.0148170
696.184	0.0146964
696.262	0.0144333
696.340	0.0142181
696.418	0.0139967
696.496	0.0138567
696.575	0.0138586
696.653	0.0138074
696.731	0.0136386
696.809	0.0136074
696.887	0.0136724
696.965	0.0137379
697.043	0.0139003
697.121	0.0143045
697.200	0.0144212
697.278	0.0147123
697.356	0.0149882
697.434	0.0152277
697.512	0.0154472
697.590	0.0155843
697.668	0.0156093
697.746	0.0154972
697.825	0.0154284
697.903	0.0151652
697.981	0.0149323
698.059	0.0146726
698.137	0.0142679
698.215	0.0141592
698.293	0.0139326
698.371	0.0138576
698.450	0.0138599
698.528	0.0138521
698.606	0.0138948
698.684	0.0141064
698.762	0.0141585
698.840	0.0143505
698.918	0.0143334
698.996	0.0144365
699.075	0.0146233
699.153	0.0146626
699.231	0.0146745
699.309	0.0147339
699.387	0.0148288
699.465	0.0148479
699.543	0.0148158
699.621	0.0148056
699.700	0.0149332
699.778	0.0148158
699.856	0.0146408
699.934	0.0145959
700.012	0.0145045
700.090	0.0143783
700.168	0.0143585
700.246	0.0143166
700.325	0.0141444
700.403	0.0141208
700.481	0.0141528
700.559	0.0140704
700.637	0.0140469
700.715	0.0138700
700.793	0.0138582
700.871	0.0137258
700.950	0.0136486
701.028	0.0138218
701.106	0.0137090
701.184	0.0137785
701.262	0.0140889
701.340	0.0143005
701.418	0.0144705
701.496	0.0149912
701.575	0.0150892
701.653	0.0154527
701.731	0.0155820
701.809	0.0156966
701.887	0.0155386
701.965	0.0152793
702.043	0.0152055
702.121	0.0149471
702.200	0.0147468
702.278	0.0146163
702.356	0.0143325
702.434	0.0140695
702.512	0.0138525
702.590	0.0137183
702.668	0.0137219
702.746	0.0135340
702.825	0.0135516
702.903	0.0136530
702.981	0.0137643
703.059	0.0140115
703.137	0.0140343
703.215	0.0142150
703.293	0.0144357
703.371	0.0146565
703.450	0.0148093
703.528	0.0150797
703.606	0.0150141
703.684	0.0151909
703.762	0.0151653
703.840	0.0151205
703.918	0.0150027
703.996	0.0148656
704.075	0.0146301
704.153	0.0144731
704.231	0.0143048
704.309	0.0142821
704.387	0.0142025
704.465	0.0140597
704.543	0.0140472
704.621	0.0139543
704.700	0.0140163
704.778	0.0140810
704.856	0.0141293
704.934	0.0143572
705.012	0.0145476
705.090	0.0144158
705.168	0.0145376
705.246	0.0143294
705.325	0.0146187
705.403	0.0146650
705.481	0.0145497
705.559	0.0146397
705.637	0.0146480
705.715	0.0146064
705.793	0.0147078
705.871	0.0147975
705.950	0.0147349
706.028	0.0146191
706.106	0.0145405
706.184	0.0144493
706.262	0.0144061
706.340	0.0143563
706.418	0.0141772
706.496	0.0141643
706.575	0.0142513
706.653	0.0139703
706.731	0.0139497
706.809	0.0142132
706.887	0.0142781
706.965	0.0142545
707.043	0.0144270
707.121	0.0144867
707.200	0.0146117
707.278	0.0147922
707.356	0.0147863
707.434	0.0146707
707.512	0.0148210
707.590	0.0147736
707.668	0.0148911
707.746	0.0148877
707.825	0.0147478
707.903	0.0148309
707.981	0.0147469
708.059	0.0146416
708.137	0.0143343
708.215	0.0143200
708.293	0.0142577
708.371	0.0142762
708.450	0.0139960
708.528	0.0138210
708.606	0.0137792
708.684	0.0136075
708.762	0.0135428
708.840	0.0134652
708.918	0.0133879
708.996	0.0135278
709.075	0.0136697
709.153	0.0138898
709.231	0.0140356
709.309	0.0140935
709.387	0.0144347
709.465	0.0147895
709.543	0.0150287
709.621	0.0152454
709.700	0.0155994
709.778	0.0157408
709.856	0.0158680
709.934	0.0157124
710.012	0.0157525
710.090	0.0157220
710.168	0.0155385
710.246	0.0152108
710.325	0.0149023
710.403	0.0145948
710.481	0.0143656
710.559	0.0139529
710.637	0.0137172
710.715	0.0136920
710.793	0.0133298
710.871	0.0131248
710.950	0.0130756
711.028	0.0131946
711.106	0.0132299
711.184	0.0133646
711.262	0.0137461
711.340	0.0139485
711.418	0.0141528
711.496	0.0143485
711.575	0.0145796
711.653	0.0148289
711.731	0.0151041
711.809	0.0150739
711.887	0.0151744
711.965	0.0152177
712.043	0.0154082
712.121	0.0152986
712.200	0.0152198
712.278	0.0150000
712.356	0.0149503
712.434	0.0148907
712.512	0.0147687
712.590	0.0146941
712.668	0.0143750
712.746	0.0144032
712.825	0.0141608
712.903	0.0141596
712.981	0.0140022
713.059	0.0140699
713.137	0.0139363
713.215	0.0138541
713.293	0.0136990
713.371	0.0136309
713.450	0.0136337
713.528	0.0139062
713.606	0.0138013
713.684	0.0138081
713.762	0.0138612
713.840	0.0140689
713.918	0.0142651
713.996	0.0143985
714.075	0.0146322
714.153	0.0147671
714.231	0.0149284
714.309	0.0149419
714.387	0.0151984
714.465	0.0150253
714.543	0.0151497
714.621	0.0149624
714.700	0.0150266
714.778	0.0149691
714.856	0.0148863
714.934	0.0147563
715.012	0.0145409
715.090	0.0143267
715.168	0.0142748
715.246	0.0140655
715.325	0.0139424
715.403	0.0139149
715.481	0.0138998
715.559	0.0139378
715.637	0.0139873
715.715	0.0140504
715.793	0.0140009
715.871	0.0141008
715.950	0.0143073
716.028	0.0143968
716.106	0.0145213
716.184	0.0145232
716.262	0.0145941
716.340	0.0146400
716.418	0.0147887
716.496	0.0148825
716.575	0.0148910
716.653	0.0150128
716.731	0.0148251
716.809	0.0146823
716.887	0.0146000
716.965	0.0146318
717.043	0.0146384
717.121	0.0143967
717.200	0.0142519
717.278	0.0143009
717.356	0.0143864
717.434	0.0143303
717.512	0.0142542
717.590	0.0143362
717.668	0.0143975
717.746	0.0145306
717.825	0.0147211
717.903	0.0146158
717.981	0.0147404
718.059	0.0147036
718.137	0.0148233
718.215	0.0147053
718.293	0.0146883
718.371	0.0146973
718.450	0.0147058
718.528	0.0145567
718.606	0.0147221
718.684	0.0145735
718.762	0.0145208
718.840	0.0144006
718.918	0.0145644
718.996	0.0144601
719.075	0.0143815
719.153	0.0142899
719.231	0.0144739
719.309	0.0143388
719.387	0.0143273
719.465	0.0142715
719.543	0.0143133
719.621	0.0143761
719.700	0.0143939
719.778	0.0143010
719.856	0.0143132
719.934	0.0143678
720.012	0.0144492
720.090	0.0144448
720.168	0.0145106
720.246	0.0147246
720.325	0.0147124
720.403	0.0146626
720.481	0.0145721
720.559	0.0147226
720.637	0.0148547
720.715	0.0147302
720.793	0.0148815
720.871	0.0147092
720.950	0.0147467
721.028	0.0148074
721.106	0.0147157
721.184	0.0146854
721.262	0.0147102
721.340	0.0146635
721.418	0.0146512
721.496	0.0145013
721.575	0.0143578
721.653	0.0144283
721.731	0.0143066
721.809	0.0144424
721.887	0.0144194
721.965	0.0144360
722.043	0.0143499
722.121	0.0143166
722.200	0.0144099
722.278	0.0144224
722.356	0.0143845
722.434	0.0145108
722.512	0.0144145
722.590	0.0143736
722.668	0.0144135
722.746	0.0143823
722.825	0.0143896
722.903	0.0142391
722.981	0.0142237
723.059	0.0143427
723.137	0.0143748
723.215	0.0141808
723.293	0.0142645
723.371	0.0143526
723.450	0.0143559
723.528	0.0144823
723.606	0.0145395
723.684	0.0146466
723.762	0.0145583
723.840	0.0145150
723.918	0.0147269
723.996	0.0147953
724.075	0.0147012
724.153	0.0147279
724.231	0.0147990
724.309	0.0146782
724.387	0.0145238
724.465	0.0146096
724.543	0.0147601
724.621	0.0145762
724.700	0.0145708
724.778	0.0146001
724.856	0.0145259
724.934	0.0142771
725.012	0.0143764
725.090	0.0143984
725.168	0.0142683
725.246	0.0141492
725.325	0.0140967
725.403	0.0138559
725.481	0.0139254
725.559	0.0140294
725.637	0.0138911
725.715	0.0139511
725.793	0.0140343
725.871	0.0140666
725.950	0.0141338
726.028	0.0141727
726.106	0.0143331
726.184	0.0143683
726.262	0.0146172
726.340	0.0145857
726.418	0.0146602
726.496	0.0146314
726.575	0.0145814
726.653	0.0146191
726.731	0.0146812
726.809	0.0144068
726.887	0.0144761
726.965	0.0141812
727.043	0.0141293
727.121	0.0142062
727.200	0.0141466
727.278	0.0139029
727.356	0.0140349
727.434	0.0141679
727.512	0.0141658
727.590	0.0140560
727.668	0.0141707
727.746	0.0142056
727.825	0.0140922
727.903	0.0142310
727.981	0.0144193
728.059	0.0143956
728.137	0.0144464
728.215	0.0146064
728.293	0.0146449
728.371	0.0145541
728.450	0.0145935
728.528	0.0147820
728.606	0.0146165
728.684	0.0146789
728.762	0.0147636
728.840	0.0145591
728.918	0.0145277
728.996	0.0148041
729.075	0.0145253
729.153	0.0146582
729.231	0.0144797
729.309	0.0143578
729.387	0.0143911
729.465	0.0144362
729.543	0.0143984
729.621	0.0141816
729.700	0.0141669
729.778	0.0142159
729.856	0.0141631
729.934	0.0141975
730.012	0.0141212
730.090	0.0140681
730.168	0.0141046
730.246	0.0140713
730.325	0.0141936
730.403	0.0141362
730.481	0.0142304
730.559	0.0143613
730.637	0.0143404
730.715	0.0142142
730.793	0.0141695
730.871	0.0142616
730.950	0.0143631
731.028	0.0144761
731.106	0.0144911
731.184	0.0144589
731.262	0.0144415
731.340	0.0145380
731.418	0.0145683
731.496	0.0145459
731.575	0.0146876
731.653	0.0147256
731.731	0.0146912
731.809	0.0146282
731.887	0.0145278
731.965	0.0145389
732.043	0.0146174
732.121	0.0146589
732.200	0.0145049
732.278	0.0145821
732.356	0.0146257
732.434	0.0145426
732.512	0.0142351
732.590	0.0143125
732.668	0.0144341
732.746	0.0146131
732.825	0.0144281
732.903	0.0143438
732.981	0.0144471
733.059	0.0145044
733.137	0.0145583
733.215	0.0144226
733.293	0.0144858
733.371	0.0144382
733.450	0.0144979
733.528	0.0146838
733.606	0.0144572
733.684	0.0145667
733.762	0.0143222
733.840	0.0145670
733.918	0.0144690
733.996	0.0145683
734.075	0.0144965
734.153	0.0144468
734.231	0.0144951
734.309	0.0143553
734.387	0.0143918
734.465	0.0144256
734.543	0.0143258
734.621	0.0143782
734.700	0.0142000
734.778	0.0142956
734.856	0.0142107
734.934	0.0141292
735.012	0.0142416
735.090	0.0143189
735.168	0.0143816
735.246	0.0141982
735.325	0.0143894
735.403	0.0143823
735.481	0.0145249
735.559	0.0145942
735.637	0.0146196
735.715	0.0145349
735.793	0.0146465
735.871	0.0148071
735.950	0.0148850
736.028	0.0147825
736.106	0.0147749
736.184	0.0148741
736.262	0.0148662
736.340	0.0148857
736.418	0.0147868
736.496	0.0148059
736.575	0.0146869
736.653	0.0145276
736.731	0.0143933
736.809	0.0144841
736.887	0.0142432
736.965	0.0142375
737.043	0.0142236
737.121	0.0142562
737.200	0.0141078
737.278	0.0140758
737.356	0.0140366
737.434	0.0142007
737.512	0.0142503
737.590	0.0142097
737.668	0.0141673
737.746	0.0143597
737.825	0.0144891
737.903	0.0145399
737.981	0.0145925
738.059	0.0146435
738.137	0.0147605
738.215	0.0147950
738.293	0.0147826
738.371	0.0149422
738.450	0.0148740
738.528	0.0148362
738.606	0.0148792
738.684	0.0147417
738.762	0.0148136
738.840	0.0147330
738.918	0.0147066
738.996	0.0144859
739.075	0.0145574
739.153	0.0143741
739.231	0.0144286
739.309	0.0143273
739.387	0.0144081
739.465	0.0143195
739.543	0.0142675
739.621	0.0142881
739.700	0.0141907
739.778	0.0141988
739.856	0.0143182
739.934	0.0143462
740.012	0.0143559
740.090	0.0143964
740.168	0.0144783
740.246	0.0145518
740.325	0.0147370
740.403	0.0147056
740.481	0.0146424
740.559	0.0148663
740.637	0.0148527
740.715	0.0147527
740.793	0.0148745
740.871	0.0147993
740.950	0.0148239
741.028	0.0148530
741.106	0.0148028
741.184	0.0146223
741.262	0.0146558
741.340	0.0147204
741.418	0.0145491
741.496	0.0144057
741.575	0.0145024
741.653	0.0143285
741.731	0.0143608
741.809	0.0142818
741.887	0.0143686
741.965	0.0144452
742.043	0.0144470
742.121	0.0143600
742.200	0.0144340
742.278	0.0143745
742.356	0.0142756
742.434	0.0143880
742.512	0.0143804
742.590	0.0144254
742.668	0.0145562
742.746	0.0144205
742.825	0.0145722
742.903	0.0145758
742.981	0.0145059
743.059	0.0144655
743.137	0.0147170
743.215	0.0145485
743.293	0.0144897
743.371	0.0145985
743.450	0.0145483
743.528	0.0145296
743.606	0.0145728
743.684	0.0147431
743.762	0.0144629
743.840	0.0144674
743.918	0.0145654
743.996	0.0144708
744.075	0.0143495
744.153	0.0143793
744.231	0.0145000
744.309	0.0143460
744.387	0.0142325
744.465	0.0142735
744.543	0.0141985
744.621	0.0142972
744.700	0.0144653
744.778	0.0142662
744.856	0.0142110
744.934	0.0141602
745.012	0.0143919
745.090	0.0144530
745.168	0.0144588
745.246	0.0145714
745.325	0.0145518
745.403	0.0144992
745.481	0.0145469
745.559	0.0146685
745.637	0.0146873
745.715	0.0147026
745.793	0.0148466
745.871	0.0147010
745.950	0.0146823
746.028	0.0146371
746.106	0.0146178
746.184	0.0146369
746.262	0.0145685
746.340	0.0145488
746.418	0.0142807
746.496	0.0144073
746.575	0.0143839
746.653	0.0141725
746.731	0.0142141
746.809	0.0142614
746.887	0.0142762
746.965	0.0143382
747.043	0.0141306
747.121	0.0141086
747.200	0.0142900
747.278	0.0141222
747.356	0.0141185
747.434	0.0141644
747.512	0.0142670
747.590	0.0143362
747.668	0.0142317
747.746	0.0143492
747.825	0.0145222
747.903	0.0143806
747.981	0.0145605
748.059	0.0145304
748.137	0.0144831
748.215	0.0146672
748.293	0.0145693
748.371	0.0146902
748.450	0.0146474
748.528	0.0145028
748.606	0.0145797
748.684	0.0144922
748.762	0.0144782
748.840	0.0145284
748.918	0.0144350
748.996	0.0144325
749.075	0.0143111
749.153	0.0143603
749.231	0.0143643
749.309	0.0144630
749.387	0.0142401
749.465	0.0142517
749.543	0.0142354
749.621	0.0142778
749.700	0.0142840
749.778	0.0144004
749.856	0.0142736
749.934	0.0143170
750.012	0.0144596
750.090	0.0144583
750.168	0.0144782
750.246	0.0144437
750.325	0.0146446
750.403	0.0145448
750.481	0.0145931
750.559	0.0144411
750.637	0.0146326
750.715	0.0146155
750.793	0.0145183
750.871	0.0144908
750.950	0.0144780
751.028	0.0144469
751.106	0.0144665
751.184	0.0146148
751.262	0.0144277
751.340	0.0143433
751.418	0.0143471
751.496	0.0143541
751.575	0.0143009
751.653	0.0142848
751.731	0.0142484
751.809	0.0141016
751.887	0.0141823
751.965	0.0142747
752.043	0.0142604
752.121	0.0143211
752.200	0.0143382
752.278	0.0143706
752.356	0.0144384
752.434	0.0144628
752.512	0.0144218
752.590	0.0144022
752.668	0.0145852
752.746	0.0145222
752.825	0.0145963
752.903	0.0146729
752.981	0.0146998
753.059	0.0146143
753.137	0.0146903
753.215	0.0146581
753.293	0.0146664
753.371	0.0147611
753.450	0.0144503
753.528	0.0146288
753.606	0.0145363
753.684	0.0145547
753.762	0.0144924
753.840	0.0143850
753.918	0.0145336
753.996	0.0144176
754.075	0.0143960
754.153	0.0144274
754.231	0.0144365
754.309	0.0144137
754.387	0.0144491
754.465	0.0144058
754.543	0.0144115
754.621	0.0145121
754.700	0.0145407
754.778	0.0144151
754.856	0.0143903
754.934	0.0145153
755.012	0.0143672
755.090	0.0144125
755.168	0.0145906
755.246	0.0144495
755.325	0.0144112
755.403	0.0145741
755.481	0.0144454
755.559	0.0145187
755.637	0.0143936
755.715	0.0144511
755.793	0.0146860
755.871	0.0145911
755.950	0.0144496
756.028	0.0145609
756.106	0.0146674
756.184	0.0145940
756.262	0.0145155
756.340	0.0144721
756.418	0.0145558
756.496	0.0146125
756.575	0.0145005
756.653	0.0144674
756.731	0.0144952
756.809	0.0144207
756.887	0.0144234
756.965	0.0144969
757.043	0.0145905
757.121	0.0146626
757.200	0.0144103
757.278	0.0144563
757.356	0.0144164
757.434	0.0144749
757.512	0.0145251
757.590	0.0145683
757.668	0.0146091
757.746	0.0146027
757.825	0.0146759
757.903	0.0145328
757.981	0.0145487
758.059	0.0145129
758.137	0.0147054
758.215	0.0146518
758.293	0.0147414
758.371	0.0144625
758.450	0.0145116
758.528	0.0146124
758.606	0.0147054
758.684	0.0146376
758.762	0.0144625
758.840	0.0144142
758.918	0.0145413
758.996	0.0144538
759.075	0.0144800
759.153	0.0145561
759.231	0.0144818
759.309	0.0143896
759.387	0.0144846
759.465	0.0142935
759.543	0.0143639
759.621	0.0142474
759.700	0.0144547
759.778	0.0145147
759.856	0.0144258
759.934	0.0145233
760.012	0.0143594
760.090	0.0144135
760.168	0.0145011
760.246	0.0144035
760.325	0.0146250
760.403	0.0144557
760.481	0.0145778
760.559	0.0146104
760.637	0.0144974
760.715	0.0145997
760.793	0.0144884
760.871	0.0144753
760.950	0.0146561
761.028	0.0145704
761.106	0.0145639
761.184	0.0145955
761.262	0.0146480
761.340	0.0147118
761.418	0.0146664
761.496	0.0146499
761.575	0.0146412
761.653	0.0145601
761.731	0.0145654
761.809	0.0146273
761.887	0.0145888
761.965	0.0146030
762.043	0.0146030
762.121	0.0145772
762.200	0.0144920
762.278	0.0145203
762.356	0.0145892
762.434	0.0145824
762.512	0.0145291
762.590	0.0144815
762.668	0.0144888
762.746	0.0144863
762.825	0.0144556
762.903	0.0146120
762.981	0.0144942
763.059	0.0145212
763.137	0.0145528
763.215	0.0144524
763.293	0.0145077
763.371	0.0145255
763.450	0.0145270
763.528	0.0145113
763.606	0.0145589
763.684	0.0144415
763.762	0.0144923
763.840	0.0144753
763.918	0.0145248
763.996	0.0144779
764.075	0.0144427
764.153	0.0145089
764.231	0.0144221
764.309	0.0145343
764.387	0.0145422
764.465	0.0143287
764.543	0.0144028
764.621	0.0143521
764.700	0.0144834
764.778	0.0143534
764.856	0.0143180
764.934	0.0144648
765.012	0.0142461
765.090	0.0143240
765.168	0.0142344
765.246	0.0144212
765.325	0.0143222
765.403	0.0142603
765.481	0.0142896
765.559	0.0144334
765.637	0.0143916
765.715	0.0142239
765.793	0.0142023
765.871	0.0143226
765.950	0.0146093
766.028	0.0144296
766.106	0.0144666
766.184	0.0144562
766.262	0.0146222
766.340	0.0145021
766.418	0.0144424
766.496	0.0145363
766.575	0.0144260
766.653	0.0146298
766.731	0.0145576
766.809	0.0145156
766.887	0.0145204
766.965	0.0145507
767.043	0.0143346
767.121	0.0145206
767.200	0.0145211
767.278	0.0145217
767.356	0.0143337
767.434	0.0145560
767.512	0.0144929
767.590	0.0145541
767.668	0.0144469
767.746	0.0143139
767.825	0.0144286
767.903	0.0142977
767.981	0.0143308
768.059	0.0143267
768.137	0.0142859
768.215	0.0144411
768.293	0.0144319
768.371	0.0144823
768.450	0.0143365
768.528	0.0145052
768.606	0.0144515
768.684	0.0145045
768.762	0.0143443
768.840	0.0143041
768.918	0.0144507
768.996	0.0143723
769.075	0.0143768
769.153	0.0144938
769.231	0.0144468
769.309	0.0143804
769.387	0.0144640
769.465	0.0144294
769.543	0.0144034
769.621	0.0144993
769.700	0.0142472
769.778	0.0143504
769.856	0.0143917
769.934	0.0143259
770.012	0.0143919
770.090	0.0144670
770.168	0.0143781
770.246	0.0144379
770.325	0.0143269
770.403	0.0143661
770.481	0.0144688
770.559	0.0144800
770.637	0.0143773
770.715	0.0143262
770.793	0.0143773
770.871	0.0143890
770.950	0.0144360
771.028	0.0144938
771.106	0.0143924
771.184	0.0145260
771.262	0.0145238
771.340	0.0144832
771.418	0.0145409
771.496	0.0145113
771.575	0.0145757
771.653	0.0147095
771.731	0.0144395
771.809	0.0144950
771.887	0.0145554
771.965	0.0146236
772.043	0.0146172
772.121	0.0146686
772.200	0.0145916
772.278	0.0143820
772.356	0.0143979
772.434	0.0145258
772.512	0.0143440
772.590	0.0143066
772.668	0.0143877
772.746	0.0144593
772.825	0.0144374
772.903	0.0142767
772.981	0.0143131
773.059	0.0144022
773.137	0.0144099
773.215	0.0142474
773.293	0.0144631
773.371	0.0142875
773.450	0.0144365
773.528	0.0144675
773.606	0.0144530
773.684	0.0144173
773.762	0.0143000
773.840	0.0143279
773.918	0.0144221
773.996	0.0144444
774.075	0.0145274
774.153	0.0145234
774.231	0.0144034
774.309	0.0144207
774.387	0.0143822
774.465	0.0144591
774.543	0.0145373
774.621	0.0144480
774.700	0.0144846
774.778	0.0144276
774.856	0.0143681
774.934	0.0145320
775.012	0.0145872
775.090	0.0144878
775.168	0.0144872
775.246	0.0145100
775.325	0.0145270
775.403	0.0144623
775.481	0.0144138
775.559	0.0145380
775.637	0.0144656
775.715	0.0144173
775.793	0.0143844
775.871	0.0143819
775.950	0.0144264
776.028	0.0143758
776.106	0.0145377
776.184	0.0145280
776.262	0.0145815
776.340	0.0144514
776.418	0.0145293
776.496	0.0145068
776.575	0.0144637
776.653	0.0146196
776.731	0.0144821
776.809	0.0144540
776.887	0.0144686
776.965	0.0145613
777.043	0.0144461
777.121	0.0144456
777.200	0.0144971
777.278	0.0144333
777.356	0.0146036
777.434	0.0145434
777.512	0.0144301
777.590	0.0145589
777.668	0.0144774
777.746	0.0144483
777.825	0.0145016
777.903	0.0144742
777.981	0.0144536
778.059	0.0144135
778.137	0.0143620
778.215	0.0145256
778.293	0.0143750
778.371	0.0144752
778.450	0.0145160
778.528	0.0143791
778.606	0.0143468
778.684	0.0143954
778.762	0.0143927
778.840	0.0144967
778.918	0.0145016
778.996	0.0145330
779.075	0.0146084
779.153	0.0144674
779.231	0.0145469
779.309	0.0144751
779.387	0.0145738
779.465	0.0145390
779.543	0.0145974
779.621	0.0145156
779.700	0.0145003
779.778	0.0145189
779.856	0.0145985
779.934	0.0145079
780.012	0.0144895
780.090	0.0144233
780.168	0.0144122
780.246	0.0146160
780.325	0.0144810
780.403	0.0143909
780.481	0.0145191
780.559	0.0144986
780.637	0.0144132
780.715	0.0144082
780.793	0.0146961
780.871	0.0146587
780.950	0.0145276
781.028	0.0144594
781.106	0.0145966
781.184	0.0144974
781.262	0.0143913
781.340	0.0146598
781.418	0.0145109
781.496	0.0145054
781.575	0.0144597
781.653	0.0144721
781.731	0.0144809
781.809	0.0143433
781.887	0.0144638
781.965	0.0145485
782.043	0.0144642
782.121	0.0144966
782.200	0.0145142
782.278	0.0142820
782.356	0.0144203
782.434	0.0144640
782.512	0.0144312
782.590	0.0143777
782.668	0.0143874
782.746	0.0145486
782.825	0.0144890
782.903	0.0143233
782.981	0.0144186
783.059	0.0144949
783.137	0.0143177
783.215	0.0144522
783.293	0.0145120
783.371	0.0144642
783.450	0.0145115
783.528	0.0144714
783.606	0.0144474
783.684	0.0144817
783.762	0.0145085
783.840	0.0145282
783.918	0.0144676
783.996	0.0146267
784.075	0.0145571
784.153	0.0143969
784.231	0.0145388
784.309	0.0146180
784.387	0.0145188
784.465	0.0146227
784.543	0.0146690
784.621	0.0145354
784.700	0.0146076
784.778	0.0145271
784.856	0.0145129
784.934	0.0145314
785.012	0.0145532
785.090	0.0146035
785.168	0.0146365
785.246	0.0146851
785.325	0.0145438
785.403	0.0146934
785.481	0.0145856
785.559	0.0145460
785.637	0.0144797
785.715	0.0145670
785.793	0.0145479
785.871	0.0144443
785.950	0.0144697
786.028	0.0145406
786.106	0.0146080
786.184	0.0145975
786.262	0.0144554
786.340	0.0143858
786.418	0.0145667
786.496	0.0145372
786.575	0.0145342
786.653	0.0145285
786.731	0.0146314
786.809	0.0145087
786.887	0.0144926
786.965	0.0146758
787.043	0.0145519
787.121	0.0148240
787.200	0.0145127
787.278	0.0145005
787.356	0.0146023
787.434	0.0145070
787.512	0.0145426
787.590	0.0146520
787.668	0.0145447
787.746	0.0144894
787.825	0.0146075
787.903	0.0145522
787.981	0.0144858
788.059	0.0145266
788.137	0.0145991
788.215	0.0144896
788.293	0.0144495
788.371	0.0145612
788.450	0.0145905
788.528	0.0144866
788.606	0.0147594
788.684	0.0144826
788.762	0.0143668
788.840	0.0144405
788.918	0.0146125
788.996	0.0144879
789.075	0.0145139
789.153	0.0145663
789.231	0.0145943
789.309	0.0145052
789.387	0.0145864
789.465	0.0144746
789.543	0.0144021
789.621	0.0143860
789.700	0.0145339
789.778	0.0144496
789.856	0.0143650
789.934	0.0145846
790.012	0.0143451
790.090	0.0142897
790.168	0.0144039
790.246	0.0143546
790.325	0.0143227
790.403	0.0143550
790.481	0.0142593
790.559	0.0143140
790.637	0.0143323
790.715	0.0142735
790.793	0.0142522
790.871	0.0142539
790.950	0.0141293
791.028	0.0142393
791.106	0.0141119
791.184	0.0141614
791.262	0.0143822
791.340	0.0143568
791.418	0.0143311
791.496	0.0143661
791.575	0.0143700
791.653	0.0143928
791.731	0.0144122
791.809	0.0144680
791.887	0.0144193
791.965	0.0144235
792.043	0.0144461
792.121	0.0145232
792.200	0.0144154
792.278	0.0144534
792.356	0.0144849
792.434	0.0144230
792.512	0.0144269
792.590	0.0144429
792.668	0.0145111
792.746	0.0143002
792.825	0.0144643
792.903	0.0144248
792.981	0.0143625
793.059	0.0143871
793.137	0.0144953
793.215	0.0144724
793.293	0.0144479
793.371	0.0144976
793.450	0.0145215
793.528	0.0145266
793.606	0.0146464
793.684	0.0144871
793.762	0.0146684
793.840	0.0146387
793.918	0.0145457
793.996	0.0145235
794.075	0.0145425
794.153	0.0145177
794.231	0.0145811
794.309	0.0145027
794.387	0.0145207
794.465	0.0144976
794.543	0.0144829
794.621	0.0145390
794.700	0.0144232
794.778	0.0145980
794.856	0.0146113
794.934	0.0144944
795.012	0.0145218
795.090	0.0144511
795.168	0.0145200
795.246	0.0144463
795.325	0.0145253
795.403	0.0144055
795.481	0.0143118
795.559	0.0144321
795.637	0.0145081
795.715	0.0145539
795.793	0.0143720
795.871	0.0144760
795.950	0.0146164
796.028	0.0146155
796.106	0.0145406
796.184	0.0145932
796.262	0.0145025
796.340	0.0146427
796.418	0.0145258
796.496	0.0144556
796.575	0.0144231
796.653	0.0144155
796.731	0.0145642
796.809	0.0144614
796.887	0.0143710
796.965	0.0144596
797.043	0.0144839
797.121	0.0144257
797.200	0.0144833
797.278	0.0144162
797.356	0.0144521
797.434	0.0144471
797.512	0.0144630
797.590	0.0144567
797.668	0.0145328
797.746	0.0146665
797.825	0.0144578
797.903	0.0144253
797.981	0.0147029
798.059	0.0146375
798.137	0.0145580
798.215	0.0146372
798.293	0.0145017
798.371	0.0145145
798.450	0.0146281
798.528	0.0146421
798.606	0.0146186
798.684	0.0145480
798.762	0.0145481
798.840	0.0145099
798.918	0.0145771
798.996	0.0143671
799.075	0.0145576
799.153	0.0145422
799.231	0.0145253
799.309	0.0145462
799.387	0.0145577
799.465	0.0145248
799.543	0.0144440
799.621	0.0145065
799.700	0.0144409
799.778	0.0143977
799.856	0.0144532
799.934	0.0143295
800.012	0.0144525
800.090	0.0145689
800.168	0.0144423
800.246	0.0144865
800.325	0.0144991
800.403	0.0145152
800.481	0.0145614
800.559	0.0144945
800.637	0.0145309
800.715	0.0145668
800.793	0.0146092
800.871	0.0144883
800.950	0.0143787
801.028	0.0145827
801.106	0.0145649
801.184	0.0145943
801.262	0.0146477
801.340	0.0144988
801.418	0.0144727
801.496	0.0145766
801.575	0.0144888
801.653	0.0145332
801.731	0.0145242
801.809	0.0144624
801.887	0.0145200
801.965	0.0144322
802.043	0.0145021
802.121	0.0144452
802.200	0.0144527
802.278	0.0144435
802.356	0.0144296
802.434	0.0145689
802.512	0.0145037
802.590	0.0144447
802.668	0.0145353
802.746	0.0144460
802.825	0.0145076
802.903	0.0146150
802.981	0.0145686
803.059	0.0144355
803.137	0.0144834
803.215	0.0144687
803.293	0.0144689
803.371	0.0143745
803.450	0.0143679
803.528	0.0144699
803.606	0.0144353
803.684	0.0144453
803.762	0.0145188
803.840	0.0144366
803.918	0.0144097
803.996	0.0144619
804.075	0.0145422
804.153	0.0144649
804.231	0.0143613
804.309	0.0144347
804.387	0.0144757
804.465	0.0144557
804.543	0.0144548
804.621	0.0143204
804.700	0.0144194
804.778	0.0144038
804.856	0.0144668
804.934	0.0144244
805.012	0.0142775
805.090	0.0144440
805.168	0.0145355
805.246	0.0145056
805.325	0.0146519
805.403	0.0145100
805.481	0.0143233
805.559	0.0145750
805.637	0.0144762
805.715	0.0145322
805.793	0.0144297
805.871	0.0145685
805.950	0.0146259
806.028	0.0145129
806.106	0.0145451
806.184	0.0146783
806.262	0.0145842
806.340	0.0144166
806.418	0.0144102
806.496	0.0145950
806.575	0.0144543
806.653	0.0144694
806.731	0.0145038
806.809	0.0145045
806.887	0.0145440
806.965	0.0146806
807.043	0.0144981
807.121	0.0146800
807.200	0.0146680
807.278	0.0144646
807.356	0.0145311
807.434	0.0146572
807.512	0.0145100
807.590	0.0145380
807.668	0.0145441
807.746	0.0144863
807.825	0.0146552
807.903	0.0146099
807.981	0.0143586
808.059	0.0144474
808.137	0.0145802
808.215	0.0147516
808.293	0.0147142
808.371	0.0144658
808.450	0.0146523
808.528	0.0146053
808.606	0.0146231
808.684	0.0145882
808.762	0.0145013
808.840	0.0147900
808.918	0.0145625
808.996	0.0144256
809.075	0.0146565
809.153	0.0147387
809.231	0.0145651
809.309	0.0145745
809.387	0.0146383
809.465	0.0143969
809.543	0.0145178
809.621	0.0145321
809.700	0.0144240
809.778	0.0145120
809.856	0.0145950
809.934	0.0145348
810.012	0.0144740
810.090	0.0145221
810.168	0.0146260
810.246	0.0145979
810.325	0.0145383
810.403	0.0145975
810.481	0.0145195
810.559	0.0146210
810.637	0.0145474
810.715	0.0143877
810.793	0.0146235
810.871	0.0145342
810.950	0.0146055
811.028	0.0145069
811.106	0.0144861
811.184	0.0145318
811.262	0.0145730
811.340	0.0145637
811.418	0.0144390
811.496	0.0145867
811.575	0.0143317
811.653	0.0144471
811.731	0.0144820
811.809	0.0145822
811.887	0.0146127
811.965	0.0144981
812.043	0.0145085
812.121	0.0145388
812.200	0.0144859
812.278	0.0143625
812.356	0.0144511
812.434	0.0145638
812.512	0.0145062
812.590	0.0144788
812.668	0.0144711
812.746	0.0145419
812.825	0.0144144
812.903	0.0143966
812.981	0.0144577
813.059	0.0144624
813.137	0.0144672
813.215	0.0145258
813.293	0.0145071
813.371	0.0144801
813.450	0.0145573
813.528	0.0145315
813.606	0.0145128
813.684	0.0144815
813.762	0.0146389
813.840	0.0146735
813.918	0.0144507
813.996	0.0145874
814.075	0.0145821
814.153	0.0145084
814.231	0.0145695
814.309	0.0145966
814.387	0.0146129
814.465	0.0146540
814.543	0.0145197
814.621	0.0144550
814.700	0.0144555
814.778	0.0145940
814.856	0.0144899
814.934	0.0145143
815.012	0.0145327
815.090	0.0145428
815.168	0.0144586
815.246	0.0144032
815.325	0.0144315
815.403	0.0144655
815.481	0.0144318
815.559	0.0143896
815.637	0.0144662
815.715	0.0144498
815.793	0.0144182
815.871	0.0144838
815.950	0.0146036
816.028	0.0145493
816.106	0.0146063
816.184	0.0145316
816.262	0.0146250
816.340	0.0147538
816.418	0.0146939
816.496	0.0144754
816.575	0.0146082
816.653	0.0145052
816.731	0.0145926
816.809	0.0145837
816.887	0.0145419
816.965	0.0145143
817.043	0.0144827
817.121	0.0143890
817.200	0.0143859
817.278	0.0144150
817.356	0.0144626
817.434	0.0143770
817.512	0.0144772
817.590	0.0144173
817.668	0.0145322
817.746	0.0144437
817.825	0.0145490
817.903	0.0144017
817.981	0.0144402
818.059	0.0145387
818.137	0.0145141
818.215	0.0143316
818.293	0.0143189
818.371	0.0143304
818.450	0.0144936
818.528	0.0143875
818.606	0.0144767
818.684	0.0145557
818.762	0.0144738
818.840	0.0145116
818.918	0.0146146
818.996	0.0146795
819.075	0.0146015
819.153	0.0145708
819.231	0.0143895
819.309	0.0145405
819.387	0.0145899
819.465	0.0145871
819.543	0.0146671
819.621	0.0145240
819.700	0.0146207
819.778	0.0145504
819.856	0.0145454
819.934	0.0144112
820.012	0.0145067
820.090	0.0145660
820.168	0.0145691
820.246	0.0144723
820.325	0.0146046
820.403	0.0145867
820.481	0.0144323
820.559	0.0145544
820.637	0.0144985
820.715	0.0144846
820.793	0.0145906
820.871	0.0145441
820.950	0.0144538
821.028	0.0145074
821.106	0.0145328
821.184	0.0144769
821.262	0.0144244
821.340	0.0145897
821.418	0.0145449
821.496	0.0145856
821.575	0.0143940
821.653	0.0144316
821.731	0.0143650
821.809	0.0144255
821.887	0.0144236
821.965	0.0143798
822.043	0.0144658
822.121	0.0145148
822.200	0.0144114
822.278	0.0144258
822.356	0.0143645
822.434	0.0144262
822.512	0.0143958
822.590	0.0144794
822.668	0.0144778
822.746	0.0142326
822.825	0.0143790
822.903	0.0144497
822.981	0.0145442
823.059	0.0145468
823.137	0.0144606
823.215	0.0144682
823.293	0.0143208
823.371	0.0144561
823.450	0.0145547
823.528	0.0145208
823.606	0.0146220
823.684	0.0145979
823.762	0.0143842
823.840	0.0143924
823.918	0.0144855
823.996	0.0145319
824.075	0.0143881
824.153	0.0145358
824.231	0.0143813
824.309	0.0144111
824.387	0.0145364
824.465	0.0145226
824.543	0.0146269
824.621	0.0145162
824.700	0.0144080
824.778	0.0144200
824.856	0.0145071
824.934	0.0144335
825.012	0.0145939
825.090	0.0145374
825.168	0.0145118
825.246	0.0142963
825.325	0.0142394
825.403	0.0142635
825.481	0.0144263
825.559	0.0144023
825.637	0.0144370
825.715	0.0142976
825.793	0.0144863
825.871	0.0144466
825.950	0.0144010
826.028	0.0143284
826.106	0.0144968
826.184	0.0145078
826.262	0.0142959
826.340	0.0144815
826.418	0.0144284
826.496	0.0145090
826.575	0.0143934
826.653	0.0143704
826.731	0.0144070
826.809	0.0144860
826.887	0.0144971
826.965	0.0143269
827.043	0.0144415
827.121	0.0144511
827.200	0.0144049
827.278	0.0144248
827.356	0.0143260
827.434	0.0143733
827.512	0.0144294
827.590	0.0143565
827.668	0.0142365
827.746	0.0143823
827.825	0.0144611
827.903	0.0143681
827.981	0.0142235
828.059	0.0143217
828.137	0.0144934
828.215	0.0144447
828.293	0.0144231
828.371	0.0145630
828.450	0.0145495
828.528	0.0145706
828.606	0.0145694
828.684	0.0145633
828.762	0.0144611
828.840	0.0145650
828.918	0.0145967
828.996	0.0145235
829.075	0.0145309
829.153	0.0146048
829.231	0.0144101
829.309	0.0144786
829.387	0.0143846
829.465	0.0144141
829.543	0.0144482
829.621	0.0144328
829.700	0.0145408
829.778	0.0144426
829.856	0.0144011
829.934	0.0142796
830.012	0.0143410
830.090	0.0143947
830.168	0.0144374
830.246	0.0144742
830.325	0.0144836
830.403	0.0144720
830.481	0.0144347
830.559	0.0143722
830.637	0.0145253
830.715	0.0145454
830.793	0.0143787
830.871	0.0144602
830.950	0.0145524
831.028	0.0146093
831.106	0.0145332
831.184	0.0145323
831.262	0.0144963
831.340	0.0145090
831.418	0.0144904
831.496	0.0145225
831.575	0.0145656
831.653	0.0143835
831.731	0.0145147
831.809	0.0144077
831.887	0.0145460
831.965	0.0146229
832.043	0.0144974
832.121	0.0145161
832.200	0.0144753
832.278	0.0144250
832.356	0.0145052
832.434	0.0145296
832.512	0.0144534
832.590	0.0145364
832.668	0.0146384
832.746	0.0145099
832.825	0.0145003
832.903	0.0146008
832.981	0.0146193
833.059	0.0144723
833.137	0.0146048
833.215	0.0144513
833.293	0.0145779
833.371	0.0145683
833.450	0.0146650
833.528	0.0146951
833.606	0.0145456
833.684	0.0144678
833.762	0.0145934
833.840	0.0144488
833.918	0.0144794
833.996	0.0144563
834.075	0.0145458
834.153	0.0145277
834.231	0.0145973
834.309	0.0144757
834.387	0.0145589
834.465	0.0144798
834.543	0.0145036
834.621	0.0146141
834.700	0.0145034
834.778	0.0145649
834.856	0.0146264
834.934	0.0145985
835.012	0.0145538
835.090	0.0144357
835.168	0.0147027
835.246	0.0145528
835.325	0.0145233
835.403	0.0146957
835.481	0.0144757
835.559	0.0145162
835.637	0.0145667
835.715	0.0145454
835.793	0.0145187
835.871	0.0146366
835.950	0.0146991
836.028	0.0146434
836.106	0.0145449
836.184	0.0145536
836.262	0.0146648
836.340	0.0145210
836.418	0.0145605
836.496	0.0145376
836.575	0.0145682
836.653	0.0146442
836.731	0.0146413
836.809	0.0145778
836.887	0.0145958
836.965	0.0146700
837.043	0.0145451
837.121	0.0144718
837.200	0.0145387
837.278	0.0146512
837.356	0.0144698
837.434	0.0143430
837.512	0.0144431
837.590	0.0145584
837.668	0.0145526
837.746	0.0143974
837.825	0.0144112
837.903	0.0144199
837.981	0.0144486
838.059	0.0145208
838.137	0.0145201
838.215	0.0144880
838.293	0.0144674
838.371	0.0146955
838.450	0.0145102
838.528	0.0146316
838.606	0.0145591
838.684	0.0145684
838.762	0.0146153
838.840	0.0144861
838.918	0.0145993
838.996	0.0145120
839.075	0.0145526
839.153	0.0146052
839.231	0.0144289
839.309	0.0145005
839.387	0.0145425
839.465	0.0145271
839.543	0.0144645
839.621	0.0146013
839.700	0.0145660
839.778	0.0145667
839.856	0.0144795
839.934	0.0146002
840.012	0.0146307
840.090	0.0145280
840.168	0.0145818
840.246	0.0146297
840.325	0.0145229
840.403	0.0145635
840.481	0.0146158
840.559	0.0146113
840.637	0.0145889
840.715	0.0146148
840.793	0.0145168
840.871	0.0145383
840.950	0.0145176
841.028	0.0145646
841.106	0.0144441
841.184	0.0144427
841.262	0.0145444
841.340	0.0145292
841.418	0.0145792
841.496	0.0145250
841.575	0.0145424
841.653	0.0145214
841.731	0.0144864
841.809	0.0146279
841.887	0.0145473
841.965	0.0144594
842.043	0.0144705
842.121	0.0146436
842.200	0.0146893
842.278	0.0145182
842.356	0.0145656
842.434	0.0146182
842.512	0.0146432
842.590	0.0145867
842.668	0.0145911
842.746	0.0145974
842.825	0.0146130
842.903	0.0144885
842.981	0.0145174
843.059	0.0146712
843.137	0.0146597
843.215	0.0145956
843.293	0.0145977
843.371	0.0146261
843.450	0.0145892
843.528	0.0145993
843.606	0.0146104
843.684	0.0145703
843.762	0.0144986
843.840	0.0145826
843.918	0.0144234
843.996	0.0145004
844.075	0.0144792
844.153	0.0143741
844.231	0.0144889
844.309	0.0145040
844.387	0.0145895
844.465	0.0145084
844.543	0.0145229
844.621	0.0146745
844.700	0.0144812
844.778	0.0145079
844.856	0.0144821
844.934	0.0145271
845.012	0.0145398
845.090	0.0145378
845.168	0.0145592
845.246	0.0144256
845.325	0.0143371
845.403	0.0145407
845.481	0.0144992
845.559	0.0144497
845.637	0.0145385
845.715	0.0144910
845.793	0.0144254
845.871	0.0145562
845.950	0.0144612
846.028	0.0146275
846.106	0.0144617
846.184	0.0144110
846.262	0.0144910
846.340	0.0144461
846.418	0.0144133
846.496	0.0143410
846.575	0.0143817
846.653	0.0143478
846.731	0.0144965
846.809	0.0144671
846.887	0.0142229
846.965	0.0141722
847.043	0.0142704
847.121	0.0143161
847.200	0.0144333
847.278	0.0144928
847.356	0.0143459
847.434	0.0144180
847.512	0.0145100
847.590	0.0145134
847.668	0.0143993
847.746	0.0143821
847.825	0.0144837
847.903	0.0145168
847.981	0.0146201
848.059	0.0146281
848.137	0.0144447
848.215	0.0146024
848.293	0.0145736
848.371	0.0144772
848.450	0.0145729
848.528	0.0144187
848.606	0.0144855
848.684	0.0145249
848.762	0.0145506
848.840	0.0144191
848.918	0.0145509
848.996	0.0144820
849.075	0.0143635
849.153	0.0144987
849.231	0.0144977
849.309	0.0143255
849.387	0.0143858
849.465	0.0143654
849.543	0.0144527
849.621	0.0144586
849.700	0.0145576
849.778	0.0145251
849.856	0.0145589
849.934	0.0144444
850.012	0.0144403
850.090	0.0145231
850.168	0.0146120
850.246	0.0145981
850.325	0.0145391
850.403	0.0145763
850.481	0.0147288
850.559	0.0145457
850.637	0.0146004
850.715	0.0145992
850.793	0.0145311
850.871	0.0143997
850.950	0.0144179
851.028	0.0144178
851.106	0.0145249
851.184	0.0144028
851.262	0.0143399
851.340	0.0144159
851.418	0.0144627
851.496	0.0143250
851.575	0.0142966
851.653	0.0143272
851.731	0.0143316
851.809	0.0143615
851.887	0.0143513
851.965	0.0144086
852.043	0.0144689
852.121	0.0144597
852.200	0.0144220
852.278	0.0144264
852.356	0.0143971
852.434	0.0143359
852.512	0.0143645
852.590	0.0142711
852.668	0.0143590
852.746	0.0144022
852.825	0.0144453
852.903	0.0143411
852.981	0.0143296
853.059	0.0143061
853.137	0.0142620
853.215	0.0143683
853.293	0.0144947
853.371	0.0144022
853.450	0.0143391
853.528	0.0142743
853.606	0.0144919
853.684	0.0144444
853.762	0.0142964
853.840	0.0144930
853.918	0.0145235
853.996	0.0144543
854.075	0.0146050
854.153	0.0144474
854.231	0.0142491
854.309	0.0143665
854.387	0.0143316
854.465	0.0141987
854.543	0.0144917
854.621	0.0143679
854.700	0.0143740
854.778	0.0143504
854.856	0.0143710
854.934	0.0143480
855.012	0.0145248
855.090	0.0142458
855.168	0.0144390
855.246	0.0144877
855.325	0.0142966
855.403	0.0142313
855.481	0.0144209
855.559	0.0144574
855.637	0.0144820
855.715	0.0145119
855.793	0.0145010
855.871	0.0145529
855.950	0.0146893
856.028	0.0146125
856.106	0.0144900
856.184	0.0144813
856.262	0.0145377
856.340	0.0144695
856.418	0.0145466
856.496	0.0146656
856.575	0.0145007
856.653	0.0144763
856.731	0.0145872
856.809	0.0145433
856.887	0.0145399
856.965	0.0145202
857.043	0.0145058
857.121	0.0145258
857.200	0.0145594
857.278	0.0144043
857.356	0.0143560
857.434	0.0145070
857.512	0.0144547
857.590	0.0144581
857.668	0.0144491
857.746	0.0143072
857.825	0.0143346
857.903	0.0145408
857.981	0.0144629
858.059	0.0143669
858.137	0.0145258
858.215	0.0145701
858.293	0.0145090
858.371	0.0144797
858.450	0.0145097
858.528	0.0144074
858.606	0.0145198
858.684	0.0145538
858.762	0.0144489
858.840	0.0144567
858.918	0.0145005
858.996	0.0145577
859.075	0.0145355
859.153	0.0145586
859.231	0.0145518
859.309	0.0143906
859.387	0.0143591
859.465	0.0144980
859.543	0.0145885
859.621	0.0146230
859.700	0.0145332
859.778	0.0145731
859.856	0.0144633
859.934	0.0144004
860.012	0.0145388
860.090	0.0144950
860.168	0.0144559
860.246	0.0144261
860.325	0.0145374
860.403	0.0145324
860.481	0.0146219
860.559	0.0145784
860.637	0.0144987
860.715	0.0146052
860.793	0.0144386
860.871	0.0144989
860.950	0.0146120
861.028	0.0145517
861.106	0.0145678
861.184	0.0145335
861.262	0.0147000
861.340	0.0146082
861.418	0.0145939
861.496	0.0145900
861.575	0.0145315
861.653	0.0144844
861.731	0.0144759
861.809	0.0145773
861.887	0.0145197
861.965	0.0145353
862.043	0.0145839
862.121	0.0145031
862.200	0.0144789
862.278	0.0144063
862.356	0.0145113
862.434	0.0145754
862.512	0.0145504
862.590	0.0146041
862.668	0.0145074
862.746	0.0145724
862.825	0.0145258
862.903	0.0143694
862.981	0.0146129
863.059	0.0146568
863.137	0.0145541
863.215	0.0145536
863.293	0.0145771
863.371	0.0146880
863.450	0.0145535
863.528	0.0146731
863.606	0.0145420
863.684	0.0145579
863.762	0.0146115
863.840	0.0146296
863.918	0.0147244
863.996	0.0147260
864.075	0.0146732
864.153	0.0145832
864.231	0.0145241
864.309	0.0146176
864.387	0.0145914
864.465	0.0147408
864.543	0.0147256
864.621	0.0145787
864.700	0.0144804
864.778	0.0144868
864.856	0.0144491
864.934	0.0145353
865.012	0.0145304
865.090	0.0145621
865.168	0.0144888
865.246	0.0145732
865.325	0.0144614
865.403	0.0145032
865.481	0.0143846
865.559	0.0145045
865.637	0.0145969
865.715	0.0145195
865.793	0.0145912
865.871	0.0146581
865.950	0.0145402
866.028	0.0146030
866.106	0.0145100
866.184	0.0145636
866.262	0.0145030
866.340	0.0146232
866.418	0.0145322
866.496	0.0145847
866.575	0.0146851
866.653	0.0145473
866.731	0.0147236
866.809	0.0147455
866.887	0.0145177
866.965	0.0145254
867.043	0.0146371
867.121	0.0145547
867.200	0.0146403
867.278	0.0145584
867.356	0.0145809
867.434	0.0146279
867.512	0.0145799
867.590	0.0145814
867.668	0.0145200
867.746	0.0146527
867.825	0.0144994
867.903	0.0143762
867.981	0.0144733
868.059	0.0144280
868.137	0.0143979
868.215	0.0144477
868.293	0.0143269
868.371	0.0144050
868.450	0.0145935
868.528	0.0145563
868.606	0.0145803
868.684	0.0145045
868.762	0.0144536
868.840	0.0145612
868.918	0.0145409
868.996	0.0145040
869.075	0.0145100
869.153	0.0144787
869.231	0.0143739
869.309	0.0143964
869.387	0.0144004
869.465	0.0145197
869.543	0.0144147
869.621	0.0144327
869.700	0.0144472
869.778	0.0144673
869.856	0.0145380
869.934	0.0145434
870.012	0.0144320
870.090	0.0145156
870.168	0.0144431
870.246	0.0145686
870.325	0.0144704
870.403	0.0143560
870.481	0.0145095
870.559	0.0145446
870.637	0.0145389
870.715	0.0144286
870.793	0.0146172
870.871	0.0144637
870.950	0.0144250
871.028	0.0142175
871.106	0.0143108
871.184	0.0145304
871.262	0.0144185
871.340	0.0144498
871.418	0.0145474
871.496	0.0144301
871.575	0.0144994
871.653	0.0144616
871.731	0.0144849
871.809	0.0144514
871.887	0.0145776
871.965	0.0143679
872.043	0.0145355
872.121	0.0143864
872.200	0.0144597
872.278	0.0145098
872.356	0.0144065
872.434	0.0145082
872.512	0.0144411
872.590	0.0144581
872.668	0.0143948
872.746	0.0143650
872.825	0.0145183
872.903	0.0143040
872.981	0.0144090
873.059	0.0145491
873.137	0.0145097
873.215	0.0144077
873.293	0.0145622
873.371	0.0144941
873.450	0.0144467
873.528	0.0144045
873.606	0.0143523
873.684	0.0143977
873.762	0.0144155
873.840	0.0144850
873.918	0.0143843
873.996	0.0144646
874.075	0.0144830
874.153	0.0144324
874.231	0.0145193
874.309	0.0144151
874.387	0.0142912
874.465	0.0144199
874.543	0.0144434
874.621	0.0144347
874.700	0.0145023
874.778	0.0143477
874.856	0.0143664
874.934	0.0144191
875.012	0.0144698
875.090	0.0144232
875.168	0.0143953
875.246	0.0143499
875.325	0.0144792
875.403	0.0143951
875.481	0.0145308
875.559	0.0143494
875.637	0.0142152
875.715	0.0145616
875.793	0.0144221
875.871	0.0142542
875.950	0.0143633
876.028	0.0144410
876.106	0.0144117
876.184	0.0143900
876.262	0.0143661
876.340	0.0143388
876.418	0.0144391
876.496	0.0144562
876.575	0.0144895
876.653	0.0144660
876.731	0.0144762
876.809	0.0144953
876.887	0.0144941
876.965	0.0145628
877.043	0.0143520
877.121	0.0145054
877.200	0.0144572
877.278	0.0144202
877.356	0.0143525
877.434	0.0144579
877.512	0.0144476
877.590	0.0144576
877.668	0.0144239
877.746	0.0143981
877.825	0.0142957
877.903	0.0144141
877.981	0.0143961
878.059	0.0143507
878.137	0.0143275
878.215	0.0144454
878.293	0.0145721
878.371	0.0143407
878.450	0.0143292
878.528	0.0143825
878.606	0.0142857
878.684	0.0143665
878.762	0.0144695
878.840	0.0143539
878.918	0.0143102
878.996	0.0144014
879.075	0.0144423
879.153	0.0144457
879.231	0.0144575
879.309	0.0144034
879.387	0.0146695
879.465	0.0144949
879.543	0.0143761
879.621	0.0145531
879.700	0.0145009
879.778	0.0145216
879.856	0.0143862
879.934	0.0144318
880.012	0.0145060
880.090	0.0144080
880.168	0.0143704
880.246	0.0143427
880.325	0.0143929
880.403	0.0143935
880.481	0.0144263
880.559	0.0144278
880.637	0.0144038
880.715	0.0144281
880.793	0.0144073
880.871	0.0142918
880.950	0.0142924
881.028	0.0144717
881.106	0.0143517
881.184	0.0143925
881.262	0.0145573
881.340	0.0144283
881.418	0.0145062
881.496	0.0144974
881.575	0.0145871
881.653	0.0146131
881.731	0.0146125
881.809	0.0145683
881.887	0.0145524
881.965	0.0145245
882.043	0.0146294
882.121	0.0145841
882.200	0.0145368
882.278	0.0147198
882.356	0.0147337
882.434	0.0145766
882.512	0.0145129
882.590	0.0144928
882.668	0.0147425
882.746	0.0145285
882.825	0.0145413
882.903	0.0146124
882.981	0.0145773
883.059	0.0145241
883.137	0.0145492
883.215	0.0146099
883.293	0.0144529
883.371	0.0145187
883.450	0.0145011
883.528	0.0145071
883.606	0.0144616
883.684	0.0145303
883.762	0.0145322
883.840	0.0143880
883.918	0.0144711
883.996	0.0144935
884.075	0.0144166
884.153	0.0144826
884.231	0.0143703
884.309	0.0144072
884.387	0.0143806
884.465	0.0145579
884.543	0.0145140
884.621	0.0144591
884.700	0.0146588
884.778	0.0144350
884.856	0.0145332
884.934	0.0146189
885.012	0.0146733
885.090	0.0146902
885.168	0.0146398
885.246	0.0145925
885.325	0.0146400
885.403	0.0145534
885.481	0.0145145
885.559	0.0145406
885.637	0.0144965
885.715	0.0144703
885.793	0.0144190
885.871	0.0145241
885.950	0.0145267
886.028	0.0144062
886.106	0.0142886
886.184	0.0142820
886.262	0.0145621
886.340	0.0144852
886.418	0.0144259
886.496	0.0144857
886.575	0.0145225
886.653	0.0144647
886.731	0.0145374
886.809	0.0145152
886.887	0.0144602
886.965	0.0143552
887.043	0.0145106
887.121	0.0146366
887.200	0.0145916
887.278	0.0146247
887.356	0.0146742
887.434	0.0147581
887.512	0.0147147
887.590	0.0146622
887.668	0.0145126
887.746	0.0145907
887.825	0.0145770
887.903	0.0143954
887.981	0.0145302
888.059	0.0144570
888.137	0.0142704
888.215	0.0145214
888.293	0.0144724
888.371	0.0144207
888.450	0.0143782
888.528	0.0143420
888.606	0.0143755
888.684	0.0144312
888.762	0.0145439
888.840	0.0144005
888.918	0.0146716
888.996	0.0146037
889.075	0.0145649
889.153	0.0146742
889.231	0.0144586
889.309	0.0145265
889.387	0.0145325
889.465	0.0146808
889.543	0.0146251
889.621	0.0145615
889.700	0.0143943
889.778	0.0145250
889.856	0.0144160
889.934	0.0143861
890.012	0.0143604
890.090	0.0144597
890.168	0.0143845
890.246	0.0143052
890.325	0.0144530
890.403	0.0145023
890.481	0.0144569
890.559	0.0144781
890.637	0.0145413
890.715	0.0144757
890.793	0.0145702
890.871	0.0144621
890.950	0.0145551
891.028	0.0144709
891.106	0.0145913
891.184	0.0144866
891.262	0.0144576
891.340	0.0144286
891.418	0.0145403
891.496	0.0144569
891.575	0.0146714
891.653	0.0146738
891.731	0.0145218
891.809	0.0146178
891.887	0.0145979
891.965	0.0145265
892.043	0.0145708
892.121	0.0144461
892.200	0.0146026
892.278	0.0144229
892.356	0.0142878
892.434	0.0143925
892.512	0.0144016
892.590	0.0144775
892.668	0.0143963
892.746	0.0142253
892.825	0.0144221
892.903	0.0145102
892.981	0.0144019
893.059	0.0143773
893.137	0.0144027
893.215	0.0146436
893.293	0.0145547
893.371	0.0146201
893.450	0.0145917
893.528	0.0146155
893.606	0.0145389
893.684	0.0145979
893.762	0.0146692
893.840	0.0146381
893.918	0.0144812
893.996	0.0143615
894.075	0.0143843
894.153	0.0143202
894.231	0.0143810
894.309	0.0142973
894.387	0.0143458
894.465	0.0143431
894.543	0.0143729
894.621	0.0143298
894.700	0.0144633
894.778	0.0144299
894.856	0.0144245
894.934	0.0144501
895.012	0.0144228
895.090	0.0145361
895.168	0.0144521
895.246	0.0144675
895.325	0.0145615
895.403	0.0144975
895.481	0.0145721
895.559	0.0144737
895.637	0.0145557
895.715	0.0145016
895.793	0.0143420
895.871	0.0144277
895.950	0.0144793
896.028	0.0145134
896.106	0.0144781
896.184	0.0144985
896.262	0.0143123
896.340	0.0145184
896.418	0.0143932
896.496	0.0143270
896.575	0.0144643
896.653	0.0144306
896.731	0.0144649
896.809	0.0145756
896.887	0.0143702
896.965	0.0145581
897.043	0.0146182
897.121	0.0145592
897.200	0.0144059
897.278	0.0145770
897.356	0.0146393
897.434	0.0145403
897.512	0.0145703
897.590	0.0145680
897.668	0.0145866
897.746	0.0144957
897.825	0.0144944
897.903	0.0145472
897.981	0.0146105
898.059	0.0144592
898.137	0.0143637
898.215	0.0144973
898.293	0.0145168
898.371	0.0144773
898.450	0.0144574
898.528	0.0143211
898.606	0.0143330
898.684	0.0143764
898.762	0.0143725
898.840	0.0143356
898.918	0.0143839
898.996	0.0145193
899.075	0.0145006
899.153	0.0143987
899.231	0.0144552
899.309	0.0144696
899.387	0.0144815
899.465	0.0144640
899.543	0.0145020
899.621	0.0144974
899.700	0.0144621
899.778	0.0144003
899.856	0.0143803
899.934	0.0144897
900.012	0.0145481
900.090	0.0143356
900.168	0.0144359
900.246	0.0143633
900.325	0.0144205
900.403	0.0143745
900.481	0.0144814
900.559	0.0144613
900.637	0.0144418
900.715	0.0144523
900.793	0.0143421
900.871	0.0143649
900.950	0.0143833
901.028	0.0145258
901.106	0.0145140
901.184	0.0146123
901.262	0.0145489
901.340	0.0146252
901.418	0.0144679
901.496	0.0145922
901.575	0.0145776
901.653	0.0147768
901.731	0.0145991
901.809	0.0146729
901.887	0.0145932
901.965	0.0144859
902.043	0.0144895
902.121	0.0144405
902.200	0.0143583
902.278	0.0145061
902.356	0.0142815
902.434	0.0143311
902.512	0.0144256
902.590	0.0145623
902.668	0.0143719
902.746	0.0143824
902.825	0.0145708
902.903	0.0144045
902.981	0.0145661
903.059	0.0145524
903.137	0.0145290
903.215	0.0144987
903.293	0.0144340
903.371	0.0146809
903.450	0.0145662
903.528	0.0144637
903.606	0.0145487
903.684	0.0145426
903.762	0.0144311
903.840	0.0146371
903.918	0.0144843
903.996	0.0144540
904.075	0.0145881
904.153	0.0144118
904.231	0.0144069
904.309	0.0145687
904.387	0.0145412
904.465	0.0145116
904.543	0.0144989
904.621	0.0144124
904.700	0.0143280
904.778	0.0143562
904.856	0.0144439
904.934	0.0143691
905.012	0.0142828
905.090	0.0143417
905.168	0.0143529
905.246	0.0144874
905.325	0.0144767
905.403	0.0143039
905.481	0.0144384
905.559	0.0146192
905.637	0.0147218
905.715	0.0145760
905.793	0.0146232
905.871	0.0145779
905.950	0.0146214
906.028	0.0146806
906.106	0.0146523
906.184	0.0146174
906.262	0.0145007
906.340	0.0144885
906.418	0.0144840
906.496	0.0143676
906.575	0.0142850
906.653	0.0141849
906.731	0.0145029
906.809	0.0143349
906.887	0.0143116
906.965	0.0142805
907.043	0.0143818
907.121	0.0143564
907.200	0.0143705
907.278	0.0143507
907.356	0.0143053
907.434	0.0144324
907.512	0.0144899
907.590	0.0144054
907.668	0.0144884
907.746	0.0144331
907.825	0.0144723
907.903	0.0146020
907.981	0.0145515
908.059	0.0146651
908.137	0.0147115
908.215	0.0146743
908.293	0.0145142
908.371	0.0145410
908.450	0.0144691
908.528	0.0146608
908.606	0.0145123
908.684	0.0145382
908.762	0.0143783
908.840	0.0144048
908.918	0.0144110
908.996	0.0145377
909.075	0.0145161
909.153	0.0145804
909.231	0.0144022
909.309	0.0144460
909.387	0.0145486
909.465	0.0144058
909.543	0.0142416
909.621	0.0143570
909.700	0.0144988
909.778	0.0144019
909.856	0.0143456
909.934	0.0143677
910.012	0.0144451
910.090	0.0144815
910.168	0.0145522
910.246	0.0145056
910.325	0.0144559
910.403	0.0144820
910.481	0.0146198
910.559	0.0144862
910.637	0.0144852
910.715	0.0145473
910.793	0.0144373
910.871	0.0145068
910.950	0.0144936
911.028	0.0145213
911.106	0.0145412
911.184	0.0145168
911.262	0.0145066
911.340	0.0145598
911.418	0.0143409
911.496	0.0144091
911.575	0.0144624
911.653	0.0143609
911.731	0.0145654
911.809	0.0145526
911.887	0.0144788
911.965	0.0143849
912.043	0.0144033
912.121	0.0143645
912.200	0.0145126
912.278	0.0144118
912.356	0.0144085
912.434	0.0144572
912.512	0.0142753
912.590	0.0144581
912.668	0.0143405
912.746	0.0143874
912.825	0.0143394
912.903	0.0143848
912.981	0.0142654
913.059	0.0144561
913.137	0.0143300
913.215	0.0144500
913.293	0.0143753
913.371	0.0144144
913.450	0.0145255
913.528	0.0145901
913.606	0.0145007
913.684	0.0143195
913.762	0.0146033
913.840	0.0144973
913.918	0.0145831
913.996	0.0144540
914.075	0.0144874
914.153	0.0145171
914.231	0.0143439
914.309	0.0145002
914.387	0.0144817
914.465	0.0143484
914.543	0.0143685
914.621	0.0143665
914.700	0.0143829
914.778	0.0143459
914.856	0.0144288
914.934	0.0143454
915.012	0.0141715
915.090	0.0143676
915.168	0.0143922
915.246	0.0143789
915.325	0.0144641
915.403	0.0143654
915.481	0.0143395
915.559	0.0143781
915.637	0.0143958
915.715	0.0144946
915.793	0.0142896
915.871	0.0144022
915.950	0.0145523
916.028	0.0145329
916.106	0.0146160
916.184	0.0144722
916.262	0.0145644
916.340	0.0145384
916.418	0.0146208
916.496	0.0144907
916.575	0.0146976
916.653	0.0145924
916.731	0.0145813
916.809	0.0145970
916.887	0.0145213
916.965	0.0144090
917.043	0.0146201
917.121	0.0145396
917.200	0.0145265
917.278	0.0144527
917.356	0.0144315
917.434	0.0144813
917.512	0.0145091
917.590	0.0145686
917.668	0.0145121
917.746	0.0144589
917.825	0.0143486
917.903	0.0146059
917.981	0.0145098
918.059	0.0146568
918.137	0.0145660
918.215	0.0145139
918.293	0.0145402
918.371	0.0144280
918.450	0.0146214
918.528	0.0145298
918.606	0.0145639
918.684	0.0144475
918.762	0.0146634
918.840	0.0146199
918.918	0.0145179
918.996	0.0144928
919.075	0.0145515
919.153	0.0146749
919.231	0.0144754
919.309	0.0145139
919.387	0.0146022
919.465	0.0146597
919.543	0.0145825
919.621	0.0145238
919.700	0.0145274
919.778	0.0145600
919.856	0.0145323
919.934	0.0146096
920.012	0.0146270
920.090	0.0145089
920.168	0.0145732
920.246	0.0145813
920.325	0.0144647
920.403	0.0145070
920.481	0.0145068
920.559	0.0145469
920.637	0.0146241
920.715	0.0146004
920.793	0.0146152
920.871	0.0146236
920.950	0.0144965
921.028	0.0144659
921.106	0.0145333
921.184	0.0146027
921.262	0.0146611
921.340	0.0144724
921.418	0.0145393
921.496	0.0145174
921.575	0.0145252
921.653	0.0145742
921.731	0.0144291
921.809	0.0144432
921.887	0.0145263
921.965	0.0143894
922.043	0.0144623
922.121	0.0144807
922.200	0.0144924
922.278	0.0146179
922.356	0.0145237
922.434	0.0144354
922.512	0.0143710
922.590	0.0144926
922.668	0.0143957
922.746	0.0143959
922.825	0.0144321
922.903	0.0145074
922.981	0.0145235
923.059	0.0146064
923.137	0.0145016
923.215	0.0144746
923.293	0.0145010
923.371	0.0144473
923.450	0.0145611
923.528	0.0145006
923.606	0.0144646
923.684	0.0144527
923.762	0.0145129
923.840	0.0144234
923.918	0.0144924
923.996	0.0144276
924.075	0.0143929
924.153	0.0144263
924.231	0.0144541
924.309	0.0143875
924.387	0.0143408
924.465	0.0141709
924.543	0.0143002
924.621	0.0143130
924.700	0.0144769
924.778	0.0144356
924.856	0.0142968
924.934	0.0142927
925.012	0.0143948
925.090	0.0145335
925.168	0.0144312
925.246	0.0144376
925.325	0.0145419
925.403	0.0144816
925.481	0.0144833
925.559	0.0146573
925.637	0.0145474
925.715	0.0144051
925.793	0.0145314
925.871	0.0144611
925.950	0.0145973
926.028	0.0144992
926.106	0.0143585
926.184	0.0145599
926.262	0.0145347
926.340	0.0144089
926.418	0.0143948
926.496	0.0143539
926.575	0.0142754
926.653	0.0142059
926.731	0.0143358
926.809	0.0143827
926.887	0.0143452
926.965	0.0144323
927.043	0.0143191
927.121	0.0144162
927.200	0.0144572
927.278	0.0143134
927.356	0.0143964
927.434	0.0146765
927.512	0.0144935
927.590	0.0144558
927.668	0.0145651
927.746	0.0146445
927.825	0.0145126
927.903	0.0145012
927.981	0.0144296
928.059	0.0145876
928.137	0.0145719
928.215	0.0147535
928.293	0.0145658
928.371	0.0145786
928.450	0.0144221
928.528	0.0145486
928.606	0.0144309
928.684	0.0144368
928.762	0.0145557
928.840	0.0144019
928.918	0.0144078
928.996	0.0143660
929.075	0.0144793
929.153	0.0143787
929.231	0.0144051
929.309	0.0145213
929.387	0.0143516
929.465	0.0144171
929.543	0.0143874
929.621	0.0144460
929.700	0.0144856
929.778	0.0144847
929.856	0.0144579
929.934	0.0144600
930.012	0.0145042
930.090	0.0145370
930.168	0.0143784
930.246	0.0144299
930.325	0.0143885
930.403	0.0143963
930.481	0.0144772
930.559	0.0144587
930.637	0.0143613
930.715	0.0144236
930.793	0.0145256
930.871	0.0144620
930.950	0.0144048
931.028	0.0143080
931.106	0.0144231
931.184	0.0145110
931.262	0.0144291
931.340	0.0144403
931.418	0.0145078
931.496	0.0144320
931.575	0.0143921
931.653	0.0143976
931.731	0.0143481
931.809	0.0144511
931.887	0.0145418
931.965	0.0143933
932.043	0.0144453
932.121	0.0144095
932.200	0.0144965
932.278	0.0145112
932.356	0.0144044
932.434	0.0144164
932.512	0.0144952
932.590	0.0143324
932.668	0.0144984
932.746	0.0146058
932.825	0.0145293
932.903	0.0144872
932.981	0.0145957
933.059	0.0144276
933.137	0.0144357
933.215	0.0144139
933.293	0.0144470
933.371	0.0145257
933.450	0.0145657
933.528	0.0145715
933.606	0.0145134
933.684	0.0143481
933.762	0.0145011
933.840	0.0143991
933.918	0.0144972
933.996	0.0143435
934.075	0.0143392
934.153	0.0143827
934.231	0.0143479
934.309	0.0145367
934.387	0.0143333
934.465	0.0143452
934.543	0.0144590
934.621	0.0143107
934.700	0.0143356
934.778	0.0144752
934.856	0.0145672
934.934	0.0144514
935.012	0.0145844
935.090	0.0147737
935.168	0.0146243
935.246	0.0143430
935.325	0.0143771
935.403	0.0144934
935.481	0.0145061
935.559	0.0145060
935.637	0.0146105
935.715	0.0144037
935.793	0.0145116
935.871	0.0145780
935.950	0.0144900
936.028	0.0145937
936.106	0.0147523
936.184	0.0145116
936.262	0.0145948
936.340	0.0146793
936.418	0.0145474
936.496	0.0146307
936.575	0.0146622
936.653	0.0145153
936.731	0.0145112
936.809	0.0146056
936.887	0.0146151
936.965	0.0144930
937.043	0.0145494
937.121	0.0145181
937.200	0.0145521
937.278	0.0145362
937.356	0.0145901
937.434	0.0146850
937.512	0.0146082
937.590	0.0144394
937.668	0.0144198
937.746	0.0144033
937.825	0.0145691
937.903	0.0145363
937.981	0.0145392
938.059	0.0145193
938.137	0.0146071
938.215	0.0144631
938.293	0.0146391
938.371	0.0144830
938.450	0.0144798
938.528	0.0144846
938.606	0.0145544
938.684	0.0145322
938.762	0.0144405
938.840	0.0144711
938.918	0.0144749
938.996	0.0145908
939.075	0.0145221
939.153	0.0144927
939.231	0.0144584
939.309	0.0145901
939.387	0.0146354
939.465	0.0144292
939.543	0.0144726
939.621	0.0145618
939.700	0.0144334
939.778	0.0144079
939.856	0.0144632
939.934	0.0144675
940.012	0.0145519
940.090	0.0145167
940.168	0.0145619
940.246	0.0145791
940.325	0.0145686
940.403	0.0144889
940.481	0.0144277
940.559	0.0143801
940.637	0.0144775
940.715	0.0145615
940.793	0.0145786
940.871	0.0145947
940.950	0.0143888
941.028	0.0144503
941.106	0.0144116
941.184	0.0143973
941.262	0.0144391
941.340	0.0145642
941.418	0.0145227
941.496	0.0142848
941.575	0.0143624
941.653	0.0145837
941.731	0.0144599
941.809	0.0144434
941.887	0.0144466
941.965	0.0144731
942.043	0.0145926
942.121	0.0145203
942.200	0.0146083
942.278	0.0144042
942.356	0.0144064
942.434	0.0143993
942.512	0.0143676
942.590	0.0144147
942.668	0.0143180
942.746	0.0143784
942.825	0.0144503
942.903	0.0143789
942.981	0.0144682
943.059	0.0144756
943.137	0.0143885
943.215	0.0143361
943.293	0.0144842
943.371	0.0143675
943.450	0.0143826
943.528	0.0143853
943.606	0.0144241
943.684	0.0144632
943.762	0.0144516
943.840	0.0143243
943.918	0.0144569
943.996	0.0145340
944.075	0.0145540
944.153	0.0143953
944.231	0.0144349
944.309	0.0144570
944.387	0.0145652
944.465	0.0145165
944.543	0.0145669
944.621	0.0144749
944.700	0.0144576
944.778	0.0145075
944.856	0.0144714
944.934	0.0144415
945.012	0.0145223
945.090	0.0145316
945.168	0.0144894
945.246	0.0145267
945.325	0.0145298
945.403	0.0144051
945.481	0.0142967
945.559	0.0143643
945.637	0.0144637
945.715	0.0144431
945.793	0.0144680
945.871	0.0145177
945.950	0.0144643
946.028	0.0143916
946.106	0.0144166
946.184	0.0145809
946.262	0.0145364
946.340	0.0144841
946.418	0.0146378
946.496	0.0146312
946.575	0.0145461
946.653	0.0143416
946.731	0.0142862
946.809	0.0144996
946.887	0.0146015
946.965	0.0144752
947.043	0.0144566
947.121	0.0144887
947.200	0.0143638
947.278	0.0143944
947.356	0.0143972
947.434	0.0144255
947.512	0.0144790
947.590	0.0142808
947.668	0.0143240
947.746	0.0144447
947.825	0.0145356
947.903	0.0144685
947.981	0.0144258
948.059	0.0143445
948.137	0.0143005
948.215	0.0143633
948.293	0.0144816
948.371	0.0143006
948.450	0.0144334
948.528	0.0143955
948.606	0.0144531
948.684	0.0143777
948.762	0.0144852
948.840	0.0144404
948.918	0.0144848
948.996	0.0144659
949.075	0.0145818
949.153	0.0144379
949.231	0.0144604
949.309	0.0143244
949.387	0.0144756
949.465	0.0144783
949.543	0.0144719
949.621	0.0144534
949.700	0.0145353
949.778	0.0145940
949.856	0.0144582
949.934	0.0146017
950.012	0.0145464
950.090	0.0144146
950.168	0.0144226
950.246	0.0145509
950.325	0.0145364
950.403	0.0145514
950.481	0.0145019
950.559	0.0143539
950.637	0.0144556
950.715	0.0145787
950.793	0.0145018
950.871	0.0144557
950.950	0.0145021
951.028	0.0144418
951.106	0.0144509
951.184	0.0146226
951.262	0.0144657
951.340	0.0144577
951.418	0.0144913
951.496	0.0143386
951.575	0.0143957
951.653	0.0146034
951.731	0.0143794
951.809	0.0145014
951.887	0.0146389
951.965	0.0145245
952.043	0.0144930
952.121	0.0145240
952.200	0.0145958
952.278	0.0144449
952.356	0.0145000
952.434	0.0144635
952.512	0.0144241
952.590	0.0144597
952.668	0.0143393
952.746	0.0143940
952.825	0.0144940
952.903	0.0143835
952.981	0.0143110
953.059	0.0143996
953.137	0.0143635
953.215	0.0144191
953.293	0.0142337
953.371	0.0142026
953.450	0.0143819
953.528	0.0144678
953.606	0.0144389
953.684	0.0143216
953.762	0.0142442
953.840	0.0141250
953.918	0.0143531
953.996	0.0143683
954.075	0.0143665
954.153	0.0143901
954.231	0.0143778
954.309	0.0144597
954.387	0.0144800
954.465	0.0145400
954.543	0.0144347
954.621	0.0144256
954.700	0.0143921
954.778	0.0144056
954.856	0.0144701
954.934	0.0144149
955.012	0.0144077
955.090	0.0144238
955.168	0.0144389
955.246	0.0142684
955.325	0.0143993
955.403	0.0143555
955.481	0.0143229
955.559	0.0145080
955.637	0.0144525
955.715	0.0142931
955.793	0.0143839
955.871	0.0142555
955.950	0.0144057
956.028	0.0143954
956.106	0.0141933
956.184	0.0142500
956.262	0.0144964
956.340	0.0144261
956.418	0.0143880
956.496	0.0145278
956.575	0.0144309
956.653	0.0145681
956.731	0.0144528
956.809	0.0145645
956.887	0.0145178
956.965	0.0144929
957.043	0.0146342
957.121	0.0145626
957.200	0.0144651
957.278	0.0145063
957.356	0.0145403
957.434	0.0144709
957.512	0.0144656
957.590	0.0143856
957.668	0.0144473
957.746	0.0143836
957.825	0.0145264
957.903	0.0144190
957.981	0.0145187
958.059	0.0144686
958.137	0.0144072
958.215	0.0143762
958.293	0.0143294
958.371	0.0144830
958.450	0.0144786
958.528	0.0144146
958.606	0.0144401
958.684	0.0144814
958.762	0.0146133
958.840	0.0144609
958.918	0.0145457
958.996	0.0145267
959.075	0.0144693
959.153	0.0146160
959.231	0.0145667
959.309	0.0144649
959.387	0.0146091
959.465	0.0145288
959.543	0.0146320
959.621	0.0147440
959.700	0.0145615
959.778	0.0144054
959.856	0.0144471
959.934	0.0145548
960.012	0.0145566
960.090	0.0145482
960.168	0.0144589
960.246	0.0145554
960.325	0.0144599
960.403	0.0142932
960.481	0.0144160
960.559	0.0146339
960.637	0.0146174
960.715	0.0144598
960.793	0.0145574
960.871	0.0144510
960.950	0.0144913
961.028	0.0145789
961.106	0.0146343
961.184	0.0146209
961.262	0.0145431
961.340	0.0144737
961.418	0.0144424
961.496	0.0144690
961.575	0.0144856
961.653	0.0145444
961.731	0.0144749
961.809	0.0145020
961.887	0.0143903
961.965	0.0146198
962.043	0.0145447
962.121	0.0143630
962.200	0.0144220
962.278	0.0144860
962.356	0.0145011
962.434	0.0144096
962.512	0.0144222
962.590	0.0144209
962.668	0.0143758
962.746	0.0145535
962.825	0.0144632
962.903	0.0144472
962.981	0.0144302
963.059	0.0145789
963.137	0.0145010
963.215	0.0144903
963.293	0.0144405
963.371	0.0145768
963.450	0.0144387
963.528	0.0144859
963.606	0.0144524
963.684	0.0142718
963.762	0.0144959
963.840	0.0146844
963.918	0.0142516
963.996	0.0144476
964.075	0.0145180
964.153	0.0145350
964.231	0.0144665
964.309	0.0144279
964.387	0.0144666
964.465	0.0144601
964.543	0.0144884
964.621	0.0145533
964.700	0.0145033
964.778	0.0146653
964.856	0.0143983
964.934	0.0144654
965.012	0.0145393
965.090	0.0146018
965.168	0.0146375
965.246	0.0145790
965.325	0.0144527
965.403	0.0144795
965.481	0.0143848
965.559	0.0145765
965.637	0.0145192
965.715	0.0143411
965.793	0.0143410
965.871	0.0143241
965.950	0.0144379
966.028	0.0143376
966.106	0.0143860
966.184	0.0144315
966.262	0.0143855
966.340	0.0144156
966.418	0.0145457
966.496	0.0143684
966.575	0.0143758
966.653	0.0144278
966.731	0.0144650
966.809	0.0143797
966.887	0.0145546
966.965	0.0145005
967.043	0.0145150
967.121	0.0145242
967.200	0.0143291
967.278	0.0145456
967.356	0.0144574
967.434	0.0143465
967.512	0.0142808
967.590	0.0144049
967.668	0.0143577
967.746	0.0145461
967.825	0.0144209
967.903	0.0143111
967.981	0.0144629
968.059	0.0144056
968.137	0.0144919
968.215	0.0144152
968.293	0.0143609
968.371	0.0145284
968.450	0.0145009
968.528	0.0144460
968.606	0.0145904
968.684	0.0145455
968.762	0.0144276
968.840	0.0144389
968.918	0.0145499
968.996	0.0144125
969.075	0.0145533
969.153	0.0144016
969.231	0.0145695
969.309	0.0144328
969.387	0.0143896
969.465	0.0143703
969.543	0.0143824
969.621	0.0142903
969.700	0.0143457
969.778	0.0144315
969.856	0.0143623
969.934	0.0142052
970.012	0.0143758
970.090	0.0144428
970.168	0.0144350
970.246	0.0145100
970.325	0.0143681
970.403	0.0143683
970.481	0.0144250
970.559	0.0145589
970.637	0.0145728
970.715	0.0144933
970.793	0.0145787
970.871	0.0143562
970.950	0.0145837
971.028	0.0144962
971.106	0.0144461
971.184	0.0144897
971.262	0.0144020
971.340	0.0144845
971.418	0.0146004
971.496	0.0144038
971.575	0.0145428
971.653	0.0145435
971.731	0.0144541
971.809	0.0145018
971.887	0.0144145
971.965	0.0143420
972.043	0.0144141
972.121	0.0144447
972.200	0.0144799
972.278	0.0144350
972.356	0.0145258
972.434	0.0143987
972.512	0.0143047
972.590	0.0142451
972.668	0.0144250
972.746	0.0143874
972.825	0.0143184
972.903	0.0144293
972.981	0.0143005
973.059	0.0145438
973.137	0.0144590
973.215	0.0144936
973.293	0.0142059
973.371	0.0144899
973.450	0.0145298
973.528	0.0143889
973.606	0.0144640
973.684	0.0144144
973.762	0.0144338
973.840	0.0143886
973.918	0.0144397
973.996	0.0144024
974.075	0.0144643
974.153	0.0144146
974.231	0.0144594
974.309	0.0143991
974.387	0.0143217
974.465	0.0142410
974.543	0.0143197
974.621	0.0144389
974.700	0.0141825
974.778	0.0143326
974.856	0.0143587
974.934	0.0144168
975.012	0.0144211
975.090	0.0144547
975.168	0.0144846
975.246	0.0143981
975.325	0.0144633
975.403	0.0146008
975.481	0.0144391
975.559	0.0143909
975.637	0.0143110
975.715	0.0144872
975.793	0.0143963
975.871	0.0144653
975.950	0.0143678
976.028	0.0144506
976.106	0.0144101
976.184	0.0143877
976.262	0.0144086
976.340	0.0143949
976.418	0.0144697
976.496	0.0141547
976.575	0.0142236
976.653	0.0142888
976.731	0.0143958
976.809	0.0142621
976.887	0.0142430
976.965	0.0142346
977.043	0.0143516
977.121	0.0142623
977.200	0.0142500
977.278	0.0143848
977.356	0.0142806
977.434	0.0142998
977.512	0.0144717
977.590	0.0144682
977.668	0.0144020
977.746	0.0145151
977.825	0.0144451
977.903	0.0143840
977.981	0.0144117
978.059	0.0143513
978.137	0.0144805
978.215	0.0144873
978.293	0.0144353
978.371	0.0144902
978.450	0.0145341
978.528	0.0144949
978.606	0.0145699
978.684	0.0143613
978.762	0.0142467
978.840	0.0143497
978.918	0.0145057
978.996	0.0143642
979.075	0.0144006
979.153	0.0143767
979.231	0.0144099
979.309	0.0144905
979.387	0.0144574
979.465	0.0142477
979.543	0.0142887
979.621	0.0143396
979.700	0.0144840
979.778	0.0143474
979.856	0.0143574
979.934	0.0142613
980.012	0.0145570
980.090	0.0144516
980.168	0.0144286
980.246	0.0145226
980.325	0.0145051
980.403	0.0146326
980.481	0.0145997
980.559	0.0144862
980.637	0.0144629
980.715	0.0145813
980.793	0.0145636
980.871	0.0145364
980.950	0.0145511
981.028	0.0143999
981.106	0.0145218
981.184	0.0145081
981.262	0.0144781
981.340	0.0144669
981.418	0.0145335
981.496	0.0145301
981.575	0.0145449
981.653	0.0146306
981.731	0.0145898
981.809	0.0144867
981.887	0.0146159
981.965	0.0146817
982.043	0.0145190
982.121	0.0146110
982.200	0.0147030
982.278	0.0146975
982.356	0.0145566
982.434	0.0145524
982.512	0.0146365
982.590	0.0145504
982.668	0.0146483
982.746	0.0145459
982.825	0.0145377
982.903	0.0146149
982.981	0.0145872
983.059	0.0147698
983.137	0.0147027
983.215	0.0145948
983.293	0.0145477
983.371	0.0145262
983.450	0.0145813
983.528	0.0146996
983.606	0.0145421
983.684	0.0145544
983.762	0.0144510
983.840	0.0144576
983.918	0.0145930
983.996	0.0145327
984.075	0.0143846
984.153	0.0145132
984.231	0.0145558
984.309	0.0145339
984.387	0.0145651
984.465	0.0145156
984.543	0.0145309
984.621	0.0144678
984.700	0.0146131
984.778	0.0145004
984.856	0.0145048
984.934	0.0145141
985.012	0.0145460
985.090	0.0146555
985.168	0.0144605
985.246	0.0144637
985.325	0.0145924
985.403	0.0147162
985.481	0.0145053
985.559	0.0145314
985.637	0.0146259
985.715	0.0145124
985.793	0.0146797
985.871	0.0145494
985.950	0.0144400
986.028	0.0147160
986.106	0.0145457
986.184	0.0146684
986.262	0.0145457
986.340	0.0145185
986.418	0.0144579
986.496	0.0145724
986.575	0.0145143
986.653	0.0144289
986.731	0.0144244
986.809	0.0143835
986.887	0.0144728
986.965	0.0144962
987.043	0.0144671
987.121	0.0143279
987.200	0.0144990
987.278	0.0145992
987.356	0.0144778
987.434	0.0143726
987.512	0.0144469
987.590	0.0145553
987.668	0.0145381
987.746	0.0144659
987.825	0.0143942
987.903	0.0143532
987.981	0.0145796
988.059	0.0144357
988.137	0.0144244
988.215	0.0143572
988.293	0.0144054
988.371	0.0144563
988.450	0.0143105
988.528	0.0145319
988.606	0.0143422
988.684	0.0143030
988.762	0.0143832
988.840	0.0144720
988.918	0.0143908
988.996	0.0142891
989.075	0.0143394
989.153	0.0142397
989.231	0.0144691
989.309	0.0141747
989.387	0.0142463
989.465	0.0144025
989.543	0.0142519
989.621	0.0142745
989.700	0.0144437
989.778	0.0143429
989.856	0.0144097
989.934	0.0144088
990.012	0.0143986
990.090	0.0145679
990.168	0.0144652
990.246	0.0143980
990.325	0.0143137
990.403	0.0145045
990.481	0.0145383
990.559	0.0144804
990.637	0.0145805
990.715	0.0144160
990.793	0.0143608
990.871	0.0143361
990.950	0.0144534
991.028	0.0144453
991.106	0.0143536
991.184	0.0143628
991.262	0.0145058
991.340	0.0143923
991.418	0.0143177
991.496	0.0144418
991.575	0.0144143
991.653	0.0144166
991.731	0.0144787
991.809	0.0144228
991.887	0.0143916
991.965	0.0143776
992.043	0.0144231
992.121	0.0142369
992.200	0.0143540
992.278	0.0143491
992.356	0.0144397
992.434	0.0145778
992.512	0.0144465
992.590	0.0145120
992.668	0.0144351
992.746	0.0145538
992.825	0.0145011
992.903	0.0146331
992.981	0.0145975
993.059	0.0145186
993.137	0.0146158
993.215	0.0145717
993.293	0.0146257
993.371	0.0145863
993.450	0.0144997
993.528	0.0144337
993.606	0.0144261
993.684	0.0144407
993.762	0.0145552
993.840	0.0144763
993.918	0.0143594
993.996	0.0145946
994.075	0.0145994
994.153	0.0145968
994.231	0.0144453
994.309	0.0144244
994.387	0.0144091
994.465	0.0143829
994.543	0.0144791
994.621	0.0142330
994.700	0.0143289
994.778	0.0143189
994.856	0.0142374
994.934	0.0142006
995.012	0.0142513
995.090	0.0144105
995.168	0.0143538
995.246	0.0143715
995.325	0.0144469
995.403	0.0144369
995.481	0.0145127
995.559	0.0145570
995.637	0.0146294
995.715	0.0147130
995.793	0.0147134
995.871	0.0146586
995.950	0.0147121
996.028	0.0148418
996.106	0.0147710
996.184	0.0146931
996.262	0.0147100
996.340	0.0147244
996.418	0.0146436
996.496	0.0146057
996.575	0.0147952
996.653	0.0147102
996.731	0.0145807
996.809	0.0144321
996.887	0.0144444
996.965	0.0144207
997.043	0.0144257
997.121	0.0144557
997.200	0.0143311
997.278	0.0142546
997.356	0.0142796
997.434	0.0143018
997.512	0.0142735
997.590	0.0143248
997.668	0.0143010
997.746	0.0144783
997.825	0.0143817
997.903	0.0144439
997.981	0.0144456
998.059	0.0142490
998.137	0.0143362
998.215	0.0143235
998.293	0.0144400
998.371	0.0144724
998.450	0.0145318
998.528	0.0144754
998.606	0.0144853
998.684	0.0145618
998.762	0.0145960
998.840	0.0145719
998.918	0.0146431
