05/04/2022	21:26:53	Ver.	4.1	UNKNOWN
Optical Delay	678.996401	Delta X		0.078125	Sweeps	1	Scan Rate	0/0
Coordinates	Axis 1	NaN	Axis 2	NaN	Axis 3	NaN	Axis 4	NaN	Axis 5	NaN	Axis 6	0.000000
TX Power	0.000000	RX Power	0.000000

678.996	0.0139814
679.075	0.0139938
679.153	0.0139379
679.231	0.0137958
679.309	0.0137312
679.387	0.0136864
679.465	0.0139864
679.543	0.0139419
679.621	0.0138686
679.700	0.0138602
679.778	0.0138137
679.856	0.0139460
679.934	0.0138697
680.012	0.0139317
680.090	0.0140524
680.168	0.0140208
680.246	0.0139117
680.325	0.0139859
680.403	0.0140254
680.481	0.0140057
680.559	0.0140083
680.637	0.0139123
680.715	0.0141824
680.793	0.0140424
680.871	0.0140489
680.950	0.0141576
681.028	0.0139751
681.106	0.0139481
681.184	0.0140789
681.262	0.0140259
681.340	0.0139845
681.418	0.0139984
681.496	0.0138648
681.575	0.0139825
681.653	0.0140131
681.731	0.0139727
681.809	0.0138643
681.887	0.0139124
681.965	0.0139571
682.043	0.0138592
682.121	0.0139590
682.200	0.0138815
682.278	0.0137318
682.356	0.0139109
682.434	0.0140633
682.512	0.0139931
682.590	0.0139070
682.668	0.0141102
682.746	0.0139805
682.825	0.0140512
682.903	0.0139787
682.981	0.0139975
683.059	0.0140763
683.137	0.0140841
683.215	0.0139619
683.293	0.0139622
683.371	0.0139988
683.450	0.0139754
683.528	0.0139862
683.606	0.0139462
683.684	0.0140242
683.762	0.0139386
683.840	0.0139877
683.918	0.0140131
683.996	0.0140955
684.075	0.0139568
684.153	0.0139676
684.231	0.0140530
684.309	0.0138793
684.387	0.0140336
684.465	0.0140077
684.543	0.0138597
684.621	0.0140103
684.700	0.0139186
684.778	0.0139464
684.856	0.0138680
684.934	0.0138314
685.012	0.0140517
685.090	0.0140907
685.168	0.0139802
685.246	0.0138784
685.325	0.0139233
685.403	0.0138268
685.481	0.0141128
685.559	0.0140071
685.637	0.0137847
685.715	0.0139186
685.793	0.0139779
685.871	0.0138621
685.950	0.0140351
686.028	0.0139569
686.106	0.0137624
686.184	0.0138921
686.262	0.0140092
686.340	0.0138657
686.418	0.0139278
686.496	0.0139134
686.575	0.0138899
686.653	0.0140253
686.731	0.0139388
686.809	0.0139874
686.887	0.0139382
686.965	0.0140416
687.043	0.0140289
687.121	0.0140945
687.200	0.0140543
687.278	0.0141237
687.356	0.0141553
687.434	0.0139342
687.512	0.0141754
687.590	0.0140860
687.668	0.0139667
687.746	0.0138594
687.825	0.0139838
687.903	0.0139138
687.981	0.0137955
688.059	0.0138484
688.137	0.0138673
688.215	0.0139164
688.293	0.0138509
688.371	0.0138621
688.450	0.0138460
688.528	0.0139681
688.606	0.0140034
688.684	0.0140718
688.762	0.0140028
688.840	0.0140233
688.918	0.0141184
688.996	0.0141524
689.075	0.0140844
689.153	0.0140122
689.231	0.0141320
689.309	0.0142672
689.387	0.0140392
689.465	0.0141500
689.543	0.0141396
689.621	0.0140051
689.700	0.0140630
689.778	0.0141527
689.856	0.0140715
689.934	0.0139967
690.012	0.0139458
690.090	0.0139676
690.168	0.0136578
690.246	0.0137232
690.325	0.0136319
690.403	0.0136178
690.481	0.0136065
690.559	0.0136427
690.637	0.0134843
690.715	0.0136067
690.793	0.0137340
690.871	0.0137495
690.950	0.0137823
691.028	0.0139210
691.106	0.0139838
691.184	0.0140823
691.262	0.0141074
691.340	0.0142450
691.418	0.0144405
691.496	0.0145100
691.575	0.0144780
691.653	0.0144461
691.731	0.0142934
691.809	0.0144179
691.887	0.0144627
691.965	0.0143696
692.043	0.0143716
692.121	0.0141335
692.200	0.0140886
692.278	0.0140895
692.356	0.0137457
692.434	0.0137858
692.512	0.0136008
692.590	0.0134164
692.668	0.0133775
692.746	0.0134566
692.825	0.0133662
692.903	0.0133592
692.981	0.0132894
693.059	0.0133108
693.137	0.0134527
693.215	0.0135750
693.293	0.0137373
693.371	0.0138540
693.450	0.0139017
693.528	0.0139641
693.606	0.0140858
693.684	0.0143715
693.762	0.0144559
693.840	0.0145889
693.918	0.0147657
693.996	0.0147932
694.075	0.0148982
694.153	0.0149850
694.231	0.0147481
694.309	0.0147009
694.387	0.0145432
694.465	0.0141798
694.543	0.0139638
694.621	0.0137049
694.700	0.0135052
694.778	0.0134138
694.856	0.0133495
694.934	0.0133030
695.012	0.0132343
695.090	0.0131868
695.168	0.0132240
695.246	0.0134188
695.325	0.0133459
695.403	0.0134373
695.481	0.0136524
695.559	0.0136393
695.637	0.0138131
695.715	0.0139614
695.793	0.0140097
695.871	0.0143903
695.950	0.0143149
696.028	0.0144955
696.106	0.0145048
696.184	0.0147165
696.262	0.0145375
696.340	0.0146082
696.418	0.0147063
696.496	0.0146362
696.575	0.0145313
696.653	0.0145109
696.731	0.0143016
696.809	0.0143125
696.887	0.0142262
696.965	0.0139922
697.043	0.0139351
697.121	0.0138744
697.200	0.0136467
697.278	0.0135158
697.356	0.0134054
697.434	0.0132916
697.512	0.0135398
697.590	0.0135849
697.668	0.0134641
697.746	0.0136267
697.825	0.0137637
697.903	0.0138085
697.981	0.0139272
698.059	0.0141036
698.137	0.0141735
698.215	0.0142089
698.293	0.0144457
698.371	0.0143742
698.450	0.0144666
698.528	0.0144054
698.606	0.0144156
698.684	0.0143903
698.762	0.0141872
698.840	0.0142284
698.918	0.0141099
698.996	0.0140188
699.075	0.0139194
699.153	0.0140447
699.231	0.0139755
699.309	0.0139758
699.387	0.0139651
699.465	0.0138172
699.543	0.0139714
699.621	0.0139297
699.700	0.0139542
699.778	0.0138306
699.856	0.0137242
699.934	0.0138816
700.012	0.0139381
700.090	0.0137317
700.168	0.0137798
700.246	0.0138995
700.325	0.0137276
700.403	0.0138595
700.481	0.0138853
700.559	0.0138686
700.637	0.0140520
700.715	0.0140280
700.793	0.0139457
700.871	0.0141592
700.950	0.0141753
701.028	0.0141325
701.106	0.0141662
701.184	0.0141637
701.262	0.0140910
701.340	0.0139540
701.418	0.0141069
701.496	0.0139347
701.575	0.0140165
701.653	0.0139504
701.731	0.0141197
701.809	0.0139772
701.887	0.0141299
701.965	0.0139971
702.043	0.0138895
702.121	0.0139674
702.200	0.0140820
702.278	0.0139979
702.356	0.0138605
702.434	0.0136275
702.512	0.0136595
702.590	0.0137835
702.668	0.0135387
702.746	0.0134187
702.825	0.0133622
702.903	0.0135335
702.981	0.0136766
703.059	0.0137300
703.137	0.0136927
703.215	0.0137533
703.293	0.0138678
703.371	0.0140290
703.450	0.0139171
703.528	0.0141569
703.606	0.0143303
703.684	0.0143481
703.762	0.0143053
703.840	0.0143176
703.918	0.0142709
703.996	0.0141943
704.075	0.0140916
704.153	0.0141495
704.231	0.0140482
704.309	0.0142142
704.387	0.0140987
704.465	0.0141120
704.543	0.0141377
704.621	0.0141586
704.700	0.0141002
704.778	0.0141206
704.856	0.0139606
704.934	0.0138876
705.012	0.0140125
705.090	0.0138433
705.168	0.0136566
705.246	0.0134319
705.325	0.0135171
705.403	0.0133453
705.481	0.0132156
705.559	0.0131876
705.637	0.0133910
705.715	0.0131950
705.793	0.0132774
705.871	0.0134407
705.950	0.0136404
706.028	0.0139467
706.106	0.0140094
706.184	0.0144389
706.262	0.0146586
706.340	0.0146980
706.418	0.0147525
706.496	0.0148431
706.575	0.0148224
706.653	0.0147237
706.731	0.0147188
706.809	0.0144980
706.887	0.0143147
706.965	0.0140124
707.043	0.0137343
707.121	0.0135439
707.200	0.0133737
707.278	0.0132566
707.356	0.0129800
707.434	0.0130548
707.512	0.0131585
707.590	0.0131896
707.668	0.0132226
707.746	0.0132364
707.825	0.0133550
707.903	0.0136565
707.981	0.0139548
708.059	0.0140335
708.137	0.0142602
708.215	0.0144294
708.293	0.0147045
708.371	0.0147218
708.450	0.0147201
708.528	0.0147310
708.606	0.0146701
708.684	0.0146347
708.762	0.0145448
708.840	0.0142439
708.918	0.0142013
708.996	0.0141611
709.075	0.0139422
709.153	0.0139137
709.231	0.0137817
709.309	0.0136615
709.387	0.0137578
709.465	0.0135616
709.543	0.0135579
709.621	0.0136160
709.700	0.0136234
709.778	0.0137276
709.856	0.0137850
709.934	0.0136741
710.012	0.0136774
710.090	0.0137120
710.168	0.0137843
710.246	0.0137950
710.325	0.0138656
710.403	0.0137633
710.481	0.0137990
710.559	0.0140653
710.637	0.0138969
710.715	0.0138378
710.793	0.0140513
710.871	0.0142520
710.950	0.0141309
711.028	0.0143879
711.106	0.0142451
711.184	0.0141288
711.262	0.0142485
711.340	0.0142213
711.418	0.0143315
711.496	0.0140629
711.575	0.0141855
711.653	0.0140935
711.731	0.0140730
711.809	0.0138992
711.887	0.0138199
711.965	0.0137291
712.043	0.0137194
712.121	0.0136321
712.200	0.0136848
712.278	0.0137526
712.356	0.0135754
712.434	0.0136102
712.512	0.0135992
712.590	0.0137289
712.668	0.0140411
712.746	0.0141491
712.825	0.0141787
712.903	0.0144471
712.981	0.0144299
713.059	0.0144666
713.137	0.0145367
713.215	0.0144509
713.293	0.0143956
713.371	0.0143767
713.450	0.0141950
713.528	0.0141652
713.606	0.0141113
713.684	0.0139060
713.762	0.0137307
713.840	0.0136774
713.918	0.0135564
713.996	0.0133447
714.075	0.0133823
714.153	0.0132764
714.231	0.0133313
714.309	0.0133868
714.387	0.0135362
714.465	0.0136859
714.543	0.0139229
714.621	0.0140440
714.700	0.0142505
714.778	0.0144051
714.856	0.0145865
714.934	0.0146452
715.012	0.0146239
715.090	0.0147435
715.168	0.0145588
715.246	0.0144733
715.325	0.0146571
715.403	0.0144122
715.481	0.0142574
715.559	0.0141384
715.637	0.0139412
715.715	0.0138288
715.793	0.0136823
715.871	0.0135916
715.950	0.0136337
716.028	0.0137055
716.106	0.0135426
716.184	0.0137962
716.262	0.0138493
716.340	0.0138856
716.418	0.0138004
716.496	0.0138129
716.575	0.0139668
716.653	0.0139702
716.731	0.0139690
716.809	0.0138825
716.887	0.0141822
716.965	0.0141998
717.043	0.0141977
717.121	0.0143567
717.200	0.0142294
717.278	0.0142593
717.356	0.0143253
717.434	0.0144132
717.512	0.0143989
717.590	0.0141220
717.668	0.0142578
717.746	0.0143018
717.825	0.0143791
717.903	0.0143145
717.981	0.0142136
718.059	0.0140320
718.137	0.0140144
718.215	0.0140115
718.293	0.0139400
718.371	0.0139613
718.450	0.0138262
718.528	0.0136861
718.606	0.0136135
718.684	0.0136840
718.762	0.0135828
718.840	0.0134431
718.918	0.0135652
718.996	0.0136400
719.075	0.0135945
719.153	0.0138139
719.231	0.0137688
719.309	0.0139988
719.387	0.0139401
719.465	0.0139835
719.543	0.0142222
719.621	0.0142626
719.700	0.0142824
719.778	0.0144379
719.856	0.0142734
719.934	0.0144800
720.012	0.0143165
720.090	0.0144366
720.168	0.0144204
720.246	0.0143603
720.325	0.0142516
720.403	0.0143144
720.481	0.0141885
720.559	0.0140644
720.637	0.0142294
720.715	0.0140813
720.793	0.0140401
720.871	0.0142314
720.950	0.0141021
721.028	0.0139668
721.106	0.0140511
721.184	0.0139317
721.262	0.0139548
721.340	0.0138985
721.418	0.0137873
721.496	0.0137887
721.575	0.0137402
721.653	0.0138504
721.731	0.0137451
721.809	0.0137184
721.887	0.0138986
721.965	0.0136675
722.043	0.0137700
722.121	0.0139433
722.200	0.0139638
722.278	0.0139931
722.356	0.0139995
722.434	0.0141537
722.512	0.0140549
722.590	0.0142339
722.668	0.0142917
722.746	0.0142533
722.825	0.0142856
722.903	0.0142091
722.981	0.0141302
723.059	0.0142505
723.137	0.0142841
723.215	0.0142784
723.293	0.0140489
723.371	0.0141620
723.450	0.0140350
723.528	0.0141743
723.606	0.0140794
723.684	0.0140559
723.762	0.0140549
723.840	0.0138391
723.918	0.0136759
723.996	0.0138090
724.075	0.0137461
724.153	0.0136843
724.231	0.0136008
724.309	0.0136531
724.387	0.0136413
724.465	0.0136850
724.543	0.0136707
724.621	0.0135827
724.700	0.0136597
724.778	0.0136891
724.856	0.0139235
724.934	0.0139042
725.012	0.0140628
725.090	0.0140805
725.168	0.0142119
725.246	0.0142137
725.325	0.0141391
725.403	0.0142458
725.481	0.0141757
725.559	0.0141169
725.637	0.0141271
725.715	0.0140572
725.793	0.0139444
725.871	0.0138431
725.950	0.0139827
726.028	0.0138178
726.106	0.0138197
726.184	0.0135983
726.262	0.0137074
726.340	0.0136762
726.418	0.0136272
726.496	0.0137322
726.575	0.0136402
726.653	0.0137737
726.731	0.0136497
726.809	0.0137842
726.887	0.0137440
726.965	0.0139240
727.043	0.0138578
727.121	0.0139666
727.200	0.0139634
727.278	0.0141080
727.356	0.0140060
727.434	0.0140954
727.512	0.0140233
727.590	0.0140947
727.668	0.0140707
727.746	0.0140189
727.825	0.0142381
727.903	0.0142230
727.981	0.0141906
728.059	0.0141302
728.137	0.0140934
728.215	0.0141385
728.293	0.0140781
728.371	0.0140193
728.450	0.0139851
728.528	0.0139753
728.606	0.0138346
728.684	0.0137346
728.762	0.0138054
728.840	0.0137292
728.918	0.0137038
728.996	0.0136403
729.075	0.0137080
729.153	0.0136627
729.231	0.0137383
729.309	0.0135840
729.387	0.0136875
729.465	0.0137608
729.543	0.0137643
729.621	0.0137691
729.700	0.0137418
729.778	0.0139863
729.856	0.0140440
729.934	0.0140700
730.012	0.0140840
730.090	0.0140604
730.168	0.0142338
730.246	0.0141349
730.325	0.0142285
730.403	0.0141428
730.481	0.0142453
730.559	0.0142229
730.637	0.0140965
730.715	0.0140997
730.793	0.0140674
730.871	0.0140343
730.950	0.0140791
731.028	0.0139782
731.106	0.0138318
731.184	0.0138685
731.262	0.0140244
731.340	0.0137360
731.418	0.0138936
731.496	0.0138891
731.575	0.0137665
731.653	0.0139540
731.731	0.0139403
731.809	0.0138689
731.887	0.0139494
731.965	0.0140091
732.043	0.0140880
732.121	0.0141548
732.200	0.0141470
732.278	0.0142193
732.356	0.0141183
732.434	0.0141171
732.512	0.0142764
732.590	0.0141703
732.668	0.0142177
732.746	0.0140708
732.825	0.0140084
732.903	0.0141125
732.981	0.0142294
733.059	0.0140086
733.137	0.0140867
733.215	0.0139321
733.293	0.0139233
733.371	0.0138641
733.450	0.0138216
733.528	0.0136922
733.606	0.0137096
733.684	0.0136961
733.762	0.0136761
733.840	0.0136331
733.918	0.0137309
733.996	0.0138129
734.075	0.0136836
734.153	0.0137959
734.231	0.0138898
734.309	0.0139420
734.387	0.0141171
734.465	0.0141111
734.543	0.0143281
734.621	0.0142436
734.700	0.0143212
734.778	0.0144720
734.856	0.0143864
734.934	0.0142837
735.012	0.0145209
735.090	0.0143510
735.168	0.0143657
735.246	0.0144041
735.325	0.0142855
735.403	0.0140804
735.481	0.0141200
735.559	0.0140951
735.637	0.0139374
735.715	0.0139958
735.793	0.0137941
735.871	0.0138197
735.950	0.0138754
736.028	0.0137539
736.106	0.0137833
736.184	0.0136633
736.262	0.0136050
736.340	0.0135364
736.418	0.0135980
736.496	0.0138131
736.575	0.0137328
736.653	0.0137639
736.731	0.0137389
736.809	0.0138853
736.887	0.0139986
736.965	0.0139952
737.043	0.0139041
737.121	0.0141566
737.200	0.0141921
737.278	0.0142680
737.356	0.0143015
737.434	0.0143053
737.512	0.0142433
737.590	0.0141977
737.668	0.0143371
737.746	0.0141908
737.825	0.0142712
737.903	0.0142062
737.981	0.0141757
738.059	0.0141252
738.137	0.0141032
738.215	0.0141083
738.293	0.0139780
738.371	0.0138193
738.450	0.0138366
738.528	0.0138346
738.606	0.0138448
738.684	0.0139284
738.762	0.0138126
738.840	0.0137486
738.918	0.0139224
738.996	0.0138488
739.075	0.0138869
739.153	0.0138787
739.231	0.0138567
739.309	0.0139211
739.387	0.0140502
739.465	0.0140627
739.543	0.0142095
739.621	0.0142185
739.700	0.0142222
739.778	0.0142804
739.856	0.0141882
739.934	0.0144291
740.012	0.0141884
740.090	0.0142715
740.168	0.0142087
740.246	0.0140702
740.325	0.0139539
740.403	0.0141598
740.481	0.0139880
740.559	0.0140244
740.637	0.0139734
740.715	0.0138592
740.793	0.0139008
740.871	0.0137403
740.950	0.0140023
741.028	0.0139037
741.106	0.0136466
741.184	0.0138841
741.262	0.0137767
741.340	0.0138400
741.418	0.0138132
741.496	0.0137070
741.575	0.0138730
741.653	0.0140231
741.731	0.0140265
741.809	0.0138485
741.887	0.0138834
741.965	0.0139833
742.043	0.0140617
742.121	0.0141040
742.200	0.0141750
742.278	0.0141411
742.356	0.0140158
742.434	0.0140498
742.512	0.0142014
742.590	0.0139639
742.668	0.0140033
742.746	0.0141158
742.825	0.0141412
742.903	0.0141250
742.981	0.0139803
743.059	0.0140672
743.137	0.0140246
743.215	0.0138204
743.293	0.0139356
743.371	0.0139112
743.450	0.0137549
743.528	0.0138395
743.606	0.0139175
743.684	0.0137288
743.762	0.0137283
743.840	0.0138579
743.918	0.0137309
743.996	0.0137607
744.075	0.0139803
744.153	0.0138512
744.231	0.0139268
744.309	0.0140501
744.387	0.0141753
744.465	0.0140906
744.543	0.0141658
744.621	0.0142001
744.700	0.0141866
744.778	0.0140860
744.856	0.0141593
744.934	0.0142309
745.012	0.0141696
745.090	0.0140033
745.168	0.0141310
745.246	0.0140205
745.325	0.0141167
745.403	0.0142665
745.481	0.0140511
745.559	0.0140216
745.637	0.0138935
745.715	0.0138027
745.793	0.0137629
745.871	0.0138932
745.950	0.0137585
746.028	0.0137704
746.106	0.0137780
746.184	0.0137296
746.262	0.0136895
746.340	0.0139008
746.418	0.0137713
746.496	0.0137817
746.575	0.0138483
746.653	0.0138101
746.731	0.0138200
746.809	0.0138469
746.887	0.0141254
746.965	0.0141673
747.043	0.0140275
747.121	0.0140201
747.200	0.0140484
747.278	0.0142067
747.356	0.0141228
747.434	0.0140637
747.512	0.0140513
747.590	0.0141194
747.668	0.0141376
747.746	0.0140426
747.825	0.0140276
747.903	0.0138741
747.981	0.0138934
748.059	0.0138345
748.137	0.0139204
748.215	0.0139136
748.293	0.0139646
748.371	0.0139558
748.450	0.0140752
748.528	0.0138172
748.606	0.0138297
748.684	0.0137527
748.762	0.0140116
748.840	0.0139696
748.918	0.0138300
748.996	0.0139368
749.075	0.0139677
749.153	0.0141467
749.231	0.0139692
749.309	0.0138718
749.387	0.0139850
749.465	0.0139009
749.543	0.0137752
749.621	0.0140935
749.700	0.0139447
749.778	0.0139873
749.856	0.0139548
749.934	0.0139117
750.012	0.0139945
750.090	0.0139569
750.168	0.0139797
750.246	0.0139777
750.325	0.0140145
750.403	0.0139679
750.481	0.0138787
750.559	0.0139590
750.637	0.0138965
750.715	0.0139529
750.793	0.0138482
750.871	0.0137673
750.950	0.0139228
751.028	0.0139193
751.106	0.0138196
751.184	0.0138400
751.262	0.0137192
751.340	0.0138331
751.418	0.0139741
751.496	0.0138906
751.575	0.0139423
751.653	0.0137758
751.731	0.0138523
751.809	0.0139297
751.887	0.0139602
751.965	0.0139215
752.043	0.0138754
752.121	0.0140391
752.200	0.0138843
752.278	0.0140407
752.356	0.0138995
752.434	0.0141161
752.512	0.0139570
752.590	0.0138661
752.668	0.0139905
752.746	0.0141682
752.825	0.0141287
752.903	0.0140926
752.981	0.0138949
753.059	0.0139906
753.137	0.0139556
753.215	0.0140591
753.293	0.0138921
753.371	0.0137872
753.450	0.0139084
753.528	0.0139034
753.606	0.0139684
753.684	0.0138076
753.762	0.0137690
753.840	0.0137952
753.918	0.0137550
753.996	0.0137686
754.075	0.0137297
754.153	0.0139014
754.231	0.0139923
754.309	0.0138183
754.387	0.0138564
754.465	0.0138855
754.543	0.0139423
754.621	0.0140822
754.700	0.0140573
754.778	0.0139228
754.856	0.0139637
754.934	0.0140250
755.012	0.0141284
755.090	0.0139194
755.168	0.0139819
755.246	0.0140263
755.325	0.0141573
755.403	0.0142043
755.481	0.0140072
755.559	0.0139509
755.637	0.0140508
755.715	0.0141479
755.793	0.0141193
755.871	0.0140573
755.950	0.0139774
756.028	0.0139510
756.106	0.0141009
756.184	0.0139658
756.262	0.0140805
756.340	0.0140809
756.418	0.0140743
756.496	0.0140445
756.575	0.0139341
756.653	0.0140683
756.731	0.0141131
756.809	0.0139053
756.887	0.0140717
756.965	0.0141254
757.043	0.0140124
757.121	0.0140008
757.200	0.0140233
757.278	0.0140668
757.356	0.0141202
757.434	0.0139647
757.512	0.0139034
757.590	0.0141262
757.668	0.0141139
757.746	0.0141487
757.825	0.0139406
757.903	0.0139056
757.981	0.0139308
758.059	0.0138033
758.137	0.0138281
758.215	0.0141171
758.293	0.0139253
758.371	0.0140373
758.450	0.0139828
758.528	0.0140349
758.606	0.0141017
758.684	0.0139998
758.762	0.0139223
758.840	0.0141586
758.918	0.0140306
758.996	0.0138732
759.075	0.0140399
759.153	0.0139518
759.231	0.0138756
759.309	0.0139425
759.387	0.0139980
759.465	0.0139209
759.543	0.0140390
759.621	0.0139236
759.700	0.0140425
759.778	0.0140804
759.856	0.0138719
759.934	0.0140580
760.012	0.0141159
760.090	0.0139796
760.168	0.0140456
760.246	0.0139693
760.325	0.0141158
760.403	0.0141315
760.481	0.0141708
760.559	0.0140516
760.637	0.0140810
760.715	0.0140858
760.793	0.0140493
760.871	0.0141205
760.950	0.0140934
761.028	0.0141306
761.106	0.0141074
761.184	0.0140852
761.262	0.0140327
761.340	0.0139973
761.418	0.0140086
761.496	0.0139201
761.575	0.0140570
761.653	0.0140225
761.731	0.0139178
761.809	0.0140180
761.887	0.0139292
761.965	0.0139013
762.043	0.0139054
762.121	0.0138611
762.200	0.0139789
762.278	0.0139828
762.356	0.0138989
762.434	0.0138954
762.512	0.0138969
762.590	0.0138878
762.668	0.0139722
762.746	0.0140688
762.825	0.0140350
762.903	0.0141038
762.981	0.0140111
763.059	0.0141203
763.137	0.0139851
763.215	0.0141178
763.293	0.0139944
763.371	0.0140550
763.450	0.0141129
763.528	0.0140623
763.606	0.0138565
763.684	0.0140888
763.762	0.0140339
763.840	0.0140530
763.918	0.0140280
763.996	0.0140267
764.075	0.0140143
764.153	0.0139832
764.231	0.0139232
764.309	0.0139152
764.387	0.0140818
764.465	0.0140018
764.543	0.0139489
764.621	0.0139724
764.700	0.0140551
764.778	0.0140507
764.856	0.0139542
764.934	0.0139748
765.012	0.0139883
765.090	0.0140873
765.168	0.0140894
765.246	0.0140593
765.325	0.0142002
765.403	0.0142078
765.481	0.0141563
765.559	0.0140433
765.637	0.0139893
765.715	0.0140873
765.793	0.0140707
765.871	0.0142117
765.950	0.0142449
766.028	0.0139734
766.106	0.0139220
766.184	0.0139995
766.262	0.0139897
766.340	0.0139613
766.418	0.0141022
766.496	0.0138602
766.575	0.0138403
766.653	0.0137431
766.731	0.0138615
766.809	0.0138011
766.887	0.0137257
766.965	0.0138358
767.043	0.0138487
767.121	0.0138018
767.200	0.0137218
767.278	0.0139874
767.356	0.0138965
767.434	0.0138254
767.512	0.0138289
767.590	0.0138871
767.668	0.0137850
767.746	0.0138905
767.825	0.0139911
767.903	0.0139130
767.981	0.0140878
768.059	0.0139616
768.137	0.0139693
768.215	0.0139904
768.293	0.0138943
768.371	0.0138900
768.450	0.0139677
768.528	0.0138519
768.606	0.0139271
768.684	0.0139007
768.762	0.0138929
768.840	0.0138504
768.918	0.0138943
768.996	0.0139146
769.075	0.0138868
769.153	0.0139446
769.231	0.0139084
769.309	0.0138345
769.387	0.0138582
769.465	0.0138642
769.543	0.0140347
769.621	0.0138739
769.700	0.0139874
769.778	0.0138839
769.856	0.0139895
769.934	0.0138906
770.012	0.0138937
770.090	0.0140559
770.168	0.0138466
770.246	0.0138898
770.325	0.0139917
770.403	0.0138791
770.481	0.0140255
770.559	0.0139302
770.637	0.0138426
770.715	0.0139026
770.793	0.0138940
770.871	0.0140373
770.950	0.0140325
771.028	0.0138744
771.106	0.0139780
771.184	0.0138171
771.262	0.0138540
771.340	0.0139252
771.418	0.0139407
771.496	0.0138828
771.575	0.0138573
771.653	0.0140070
771.731	0.0139498
771.809	0.0138889
771.887	0.0138904
771.965	0.0138892
772.043	0.0137768
772.121	0.0138055
772.200	0.0137559
772.278	0.0138203
772.356	0.0138538
772.434	0.0136739
772.512	0.0138883
772.590	0.0139185
772.668	0.0139356
772.746	0.0137685
772.825	0.0138384
772.903	0.0139169
772.981	0.0138855
773.059	0.0138785
773.137	0.0138444
773.215	0.0140140
773.293	0.0139701
773.371	0.0139820
773.450	0.0138999
773.528	0.0140200
773.606	0.0139647
773.684	0.0140694
773.762	0.0138953
773.840	0.0140087
773.918	0.0141428
773.996	0.0139530
774.075	0.0140312
774.153	0.0139503
774.231	0.0139803
774.309	0.0139673
774.387	0.0139382
774.465	0.0139114
774.543	0.0139778
774.621	0.0139387
774.700	0.0137853
774.778	0.0139666
774.856	0.0139442
774.934	0.0139337
775.012	0.0138865
775.090	0.0140108
775.168	0.0138519
775.246	0.0138943
775.325	0.0139079
775.403	0.0140357
775.481	0.0140331
775.559	0.0139799
775.637	0.0139986
775.715	0.0139221
775.793	0.0139020
775.871	0.0138956
775.950	0.0141541
776.028	0.0139633
776.106	0.0138822
776.184	0.0139086
776.262	0.0139452
776.340	0.0139371
776.418	0.0138228
776.496	0.0138743
776.575	0.0140839
776.653	0.0139347
776.731	0.0140417
776.809	0.0139819
776.887	0.0140498
776.965	0.0140657
777.043	0.0140095
777.121	0.0139653
777.200	0.0140697
777.278	0.0141528
777.356	0.0140298
777.434	0.0140516
777.512	0.0140553
777.590	0.0140369
777.668	0.0140681
777.746	0.0142092
777.825	0.0140430
777.903	0.0140568
777.981	0.0139816
778.059	0.0140742
778.137	0.0141204
778.215	0.0140826
778.293	0.0142432
778.371	0.0140601
778.450	0.0140765
778.528	0.0140817
778.606	0.0141486
778.684	0.0142191
778.762	0.0143138
778.840	0.0140991
778.918	0.0141434
778.996	0.0142206
779.075	0.0141383
779.153	0.0141349
779.231	0.0141935
779.309	0.0141194
779.387	0.0140813
779.465	0.0140870
779.543	0.0140827
779.621	0.0141686
779.700	0.0138966
779.778	0.0139520
779.856	0.0138542
779.934	0.0139066
780.012	0.0141160
780.090	0.0138749
780.168	0.0137576
780.246	0.0138013
780.325	0.0138962
780.403	0.0139179
780.481	0.0137730
780.559	0.0138819
780.637	0.0139386
780.715	0.0138599
780.793	0.0138953
780.871	0.0140276
780.950	0.0139888
781.028	0.0141012
781.106	0.0139211
781.184	0.0140678
781.262	0.0139628
781.340	0.0139746
781.418	0.0138940
781.496	0.0139513
781.575	0.0139067
781.653	0.0139893
781.731	0.0140144
781.809	0.0139871
781.887	0.0140616
781.965	0.0140502
782.043	0.0139315
782.121	0.0139707
782.200	0.0139447
782.278	0.0138614
782.356	0.0140308
782.434	0.0141042
782.512	0.0139238
782.590	0.0139084
782.668	0.0138996
782.746	0.0139796
782.825	0.0140125
782.903	0.0139539
782.981	0.0138571
783.059	0.0140479
783.137	0.0139233
783.215	0.0140413
783.293	0.0139829
783.371	0.0142016
783.450	0.0141081
783.528	0.0139629
783.606	0.0140169
783.684	0.0140813
783.762	0.0141853
783.840	0.0139996
783.918	0.0138259
783.996	0.0140652
784.075	0.0141372
784.153	0.0140607
784.231	0.0142447
784.309	0.0139891
784.387	0.0139127
784.465	0.0139703
784.543	0.0138971
784.621	0.0139801
784.700	0.0139056
784.778	0.0138474
784.856	0.0140711
784.934	0.0138773
785.012	0.0139806
785.090	0.0139735
785.168	0.0138744
785.246	0.0140711
785.325	0.0139265
785.403	0.0139188
785.481	0.0139663
785.559	0.0137775
785.637	0.0140899
785.715	0.0141296
785.793	0.0141743
785.871	0.0141531
785.950	0.0140258
786.028	0.0139962
786.106	0.0139962
786.184	0.0139262
786.262	0.0140285
786.340	0.0140904
786.418	0.0141045
786.496	0.0140038
786.575	0.0139965
786.653	0.0140196
786.731	0.0140673
786.809	0.0139887
786.887	0.0139621
786.965	0.0139454
787.043	0.0140810
787.121	0.0140057
787.200	0.0139856
787.278	0.0138756
787.356	0.0140777
787.434	0.0139919
787.512	0.0139143
787.590	0.0139375
787.668	0.0139098
787.746	0.0140730
787.825	0.0140830
787.903	0.0140627
787.981	0.0140517
788.059	0.0139633
788.137	0.0139442
788.215	0.0140230
788.293	0.0140939
788.371	0.0140707
788.450	0.0140137
788.528	0.0142778
788.606	0.0140417
788.684	0.0140514
788.762	0.0139902
788.840	0.0138987
788.918	0.0139352
788.996	0.0139387
789.075	0.0139865
789.153	0.0139821
789.231	0.0139210
789.309	0.0139824
789.387	0.0138979
789.465	0.0139045
789.543	0.0138712
789.621	0.0138924
789.700	0.0139683
789.778	0.0138718
789.856	0.0139835
789.934	0.0139699
790.012	0.0140538
790.090	0.0139515
790.168	0.0139156
790.246	0.0139938
790.325	0.0138733
790.403	0.0139919
790.481	0.0142292
790.559	0.0141080
790.637	0.0140080
790.715	0.0140474
790.793	0.0139924
790.871	0.0139971
790.950	0.0141969
791.028	0.0138970
791.106	0.0139835
791.184	0.0139201
791.262	0.0139583
791.340	0.0138982
791.418	0.0138596
791.496	0.0138616
791.575	0.0138634
791.653	0.0140180
791.731	0.0140244
791.809	0.0140493
791.887	0.0140207
791.965	0.0140231
792.043	0.0140245
792.121	0.0140194
792.200	0.0141413
792.278	0.0139970
792.356	0.0140422
792.434	0.0140828
792.512	0.0141630
792.590	0.0139318
792.668	0.0140320
792.746	0.0140969
792.825	0.0139982
792.903	0.0140741
792.981	0.0139230
793.059	0.0139962
793.137	0.0140801
793.215	0.0139552
793.293	0.0140639
793.371	0.0139439
793.450	0.0140191
793.528	0.0140400
793.606	0.0139428
793.684	0.0139146
793.762	0.0138422
793.840	0.0139452
793.918	0.0139513
793.996	0.0139198
794.075	0.0139519
794.153	0.0139325
794.231	0.0138351
794.309	0.0137556
794.387	0.0139145
794.465	0.0140383
794.543	0.0138760
794.621	0.0138920
794.700	0.0139498
794.778	0.0139146
794.856	0.0139087
794.934	0.0139282
795.012	0.0138515
795.090	0.0140475
795.168	0.0139384
795.246	0.0138419
795.325	0.0139798
795.403	0.0139534
795.481	0.0140625
795.559	0.0138378
795.637	0.0139847
795.715	0.0139763
795.793	0.0141052
795.871	0.0140448
795.950	0.0140581
796.028	0.0140314
796.106	0.0140878
796.184	0.0140515
796.262	0.0140020
796.340	0.0139034
796.418	0.0139735
796.496	0.0140148
796.575	0.0140485
796.653	0.0141064
796.731	0.0141071
796.809	0.0139635
796.887	0.0142225
796.965	0.0141262
797.043	0.0140171
797.121	0.0140353
797.200	0.0140335
797.278	0.0140979
797.356	0.0141843
797.434	0.0140570
797.512	0.0140168
797.590	0.0139465
797.668	0.0140610
797.746	0.0141192
797.825	0.0139894
797.903	0.0140379
797.981	0.0140604
798.059	0.0140042
798.137	0.0141034
798.215	0.0140335
798.293	0.0139467
798.371	0.0139848
798.450	0.0138254
798.528	0.0140141
798.606	0.0140159
798.684	0.0139136
798.762	0.0140880
798.840	0.0141210
798.918	0.0138799
798.996	0.0139656
799.075	0.0138720
799.153	0.0138731
799.231	0.0140775
799.309	0.0139679
799.387	0.0139101
799.465	0.0139049
799.543	0.0140403
799.621	0.0140096
799.700	0.0139190
799.778	0.0140160
799.856	0.0140480
799.934	0.0141772
800.012	0.0140628
800.090	0.0138911
800.168	0.0139112
800.246	0.0140179
800.325	0.0140341
800.403	0.0138598
800.481	0.0139753
800.559	0.0140500
800.637	0.0140522
800.715	0.0138223
800.793	0.0138257
800.871	0.0140253
800.950	0.0139923
801.028	0.0138971
801.106	0.0139479
801.184	0.0139737
801.262	0.0138907
801.340	0.0138295
801.418	0.0139983
801.496	0.0139374
801.575	0.0139644
801.653	0.0139014
801.731	0.0140201
801.809	0.0138203
801.887	0.0138977
801.965	0.0139767
802.043	0.0138688
802.121	0.0138680
802.200	0.0138322
802.278	0.0137640
802.356	0.0139333
802.434	0.0140047
802.512	0.0139086
802.590	0.0140158
802.668	0.0139674
802.746	0.0140034
802.825	0.0139690
802.903	0.0139928
802.981	0.0137698
803.059	0.0137296
803.137	0.0138158
803.215	0.0138475
803.293	0.0139007
803.371	0.0138392
803.450	0.0139476
803.528	0.0138899
803.606	0.0137726
803.684	0.0139145
803.762	0.0139250
803.840	0.0137978
803.918	0.0137662
803.996	0.0138593
804.075	0.0137567
804.153	0.0138633
804.231	0.0138282
804.309	0.0138730
804.387	0.0138890
804.465	0.0138542
804.543	0.0137749
804.621	0.0137904
804.700	0.0139843
804.778	0.0139104
804.856	0.0139761
804.934	0.0138472
805.012	0.0139275
805.090	0.0137715
805.168	0.0139652
805.246	0.0139780
805.325	0.0138385
805.403	0.0139862
805.481	0.0139950
805.559	0.0137656
805.637	0.0138142
805.715	0.0138409
805.793	0.0138895
805.871	0.0138876
805.950	0.0138935
806.028	0.0138441
806.106	0.0137841
806.184	0.0138211
806.262	0.0139081
806.340	0.0138334
806.418	0.0139983
806.496	0.0139983
806.575	0.0138046
806.653	0.0137209
806.731	0.0138756
806.809	0.0139401
806.887	0.0140273
806.965	0.0141081
807.043	0.0139500
807.121	0.0139349
807.200	0.0140406
807.278	0.0141401
807.356	0.0140524
807.434	0.0139121
807.512	0.0139239
807.590	0.0141331
807.668	0.0140285
807.746	0.0139755
807.825	0.0139867
807.903	0.0140083
807.981	0.0138897
808.059	0.0139664
808.137	0.0139716
808.215	0.0139112
808.293	0.0140070
808.371	0.0139008
808.450	0.0139629
808.528	0.0138122
808.606	0.0139421
808.684	0.0140771
808.762	0.0140374
808.840	0.0139565
808.918	0.0138186
808.996	0.0138784
809.075	0.0139164
809.153	0.0139851
809.231	0.0139703
809.309	0.0140477
809.387	0.0142167
809.465	0.0140876
809.543	0.0139529
809.621	0.0139610
809.700	0.0140293
809.778	0.0140932
809.856	0.0141151
809.934	0.0141297
810.012	0.0141525
810.090	0.0140994
810.168	0.0140798
810.246	0.0140237
810.325	0.0140282
810.403	0.0140405
810.481	0.0140649
810.559	0.0141096
810.637	0.0140782
810.715	0.0140407
810.793	0.0139807
810.871	0.0139561
810.950	0.0139908
811.028	0.0141323
811.106	0.0140000
811.184	0.0139468
811.262	0.0141414
811.340	0.0140212
811.418	0.0140378
811.496	0.0138316
811.575	0.0140497
811.653	0.0139800
811.731	0.0138405
811.809	0.0139738
811.887	0.0140545
811.965	0.0138863
812.043	0.0139115
812.121	0.0138846
812.200	0.0140079
812.278	0.0139577
812.356	0.0139658
812.434	0.0140374
812.512	0.0140559
812.590	0.0140536
812.668	0.0141218
812.746	0.0140651
812.825	0.0140923
812.903	0.0141391
812.981	0.0140450
813.059	0.0140508
813.137	0.0140425
813.215	0.0140425
813.293	0.0139791
813.371	0.0140882
813.450	0.0140552
813.528	0.0140657
813.606	0.0140508
813.684	0.0140664
813.762	0.0140094
813.840	0.0139834
813.918	0.0140656
813.996	0.0140314
814.075	0.0139320
814.153	0.0139984
814.231	0.0139289
814.309	0.0140792
814.387	0.0140852
814.465	0.0140195
814.543	0.0139368
814.621	0.0139741
814.700	0.0140383
814.778	0.0140012
814.856	0.0140719
814.934	0.0140394
815.012	0.0140160
815.090	0.0139765
815.168	0.0139634
815.246	0.0140448
815.325	0.0140015
815.403	0.0139568
815.481	0.0139512
815.559	0.0139786
815.637	0.0139893
815.715	0.0140486
815.793	0.0139586
815.871	0.0138844
815.950	0.0139999
816.028	0.0139376
816.106	0.0139514
816.184	0.0139466
816.262	0.0141095
816.340	0.0140781
816.418	0.0139399
816.496	0.0139739
816.575	0.0141003
816.653	0.0138919
816.731	0.0139255
816.809	0.0139600
816.887	0.0139219
816.965	0.0139545
817.043	0.0139977
817.121	0.0140671
817.200	0.0139470
817.278	0.0140350
817.356	0.0141057
817.434	0.0140187
817.512	0.0140707
817.590	0.0140407
817.668	0.0140614
817.746	0.0140266
817.825	0.0140605
817.903	0.0140318
817.981	0.0140714
818.059	0.0141051
818.137	0.0140910
818.215	0.0139910
818.293	0.0139391
818.371	0.0139254
818.450	0.0139360
818.528	0.0141573
818.606	0.0141157
818.684	0.0141135
818.762	0.0141050
818.840	0.0140600
818.918	0.0140968
818.996	0.0140784
819.075	0.0140378
819.153	0.0140897
819.231	0.0140170
819.309	0.0141587
819.387	0.0141070
819.465	0.0140015
819.543	0.0140828
819.621	0.0139629
819.700	0.0140152
819.778	0.0139341
819.856	0.0141125
819.934	0.0141561
820.012	0.0139295
820.090	0.0139238
820.168	0.0139647
820.246	0.0140511
820.325	0.0140685
820.403	0.0140818
820.481	0.0141109
820.559	0.0139880
820.637	0.0140513
820.715	0.0139778
820.793	0.0140577
820.871	0.0139875
820.950	0.0141039
821.028	0.0139664
821.106	0.0139220
821.184	0.0140538
821.262	0.0140219
821.340	0.0140039
821.418	0.0139709
821.496	0.0140317
821.575	0.0140595
821.653	0.0140352
821.731	0.0138818
821.809	0.0141119
821.887	0.0140374
821.965	0.0139448
822.043	0.0140163
822.121	0.0139600
822.200	0.0139402
822.278	0.0139955
822.356	0.0140659
822.434	0.0138124
822.512	0.0140186
822.590	0.0141692
822.668	0.0141037
822.746	0.0140293
822.825	0.0139590
822.903	0.0138865
822.981	0.0139204
823.059	0.0140791
823.137	0.0140154
823.215	0.0139542
823.293	0.0140337
823.371	0.0139307
823.450	0.0139864
823.528	0.0138844
823.606	0.0139916
823.684	0.0140045
823.762	0.0139767
823.840	0.0141413
823.918	0.0140669
823.996	0.0139719
824.075	0.0139888
824.153	0.0138979
824.231	0.0139832
824.309	0.0139002
824.387	0.0139920
824.465	0.0140766
824.543	0.0139442
824.621	0.0138513
824.700	0.0139684
824.778	0.0139768
824.856	0.0139560
824.934	0.0140204
825.012	0.0140123
825.090	0.0139371
825.168	0.0139156
825.246	0.0141191
825.325	0.0139020
825.403	0.0138043
825.481	0.0139903
825.559	0.0141641
825.637	0.0138139
825.715	0.0138493
825.793	0.0139662
825.871	0.0140308
825.950	0.0140528
826.028	0.0140089
826.106	0.0139410
826.184	0.0141088
826.262	0.0139433
826.340	0.0139161
826.418	0.0140428
826.496	0.0140624
826.575	0.0139846
826.653	0.0138836
826.731	0.0140176
826.809	0.0140371
826.887	0.0139098
826.965	0.0139187
827.043	0.0139924
827.121	0.0140121
827.200	0.0140695
827.278	0.0140186
827.356	0.0138760
827.434	0.0138779
827.512	0.0138754
827.590	0.0140027
827.668	0.0140169
827.746	0.0140153
827.825	0.0139565
827.903	0.0139825
827.981	0.0139078
828.059	0.0139063
828.137	0.0140549
828.215	0.0138717
828.293	0.0138041
828.371	0.0139382
828.450	0.0139214
828.528	0.0138531
828.606	0.0138582
828.684	0.0138400
828.762	0.0137856
828.840	0.0139651
828.918	0.0139882
828.996	0.0138554
829.075	0.0138111
829.153	0.0138111
829.231	0.0139104
829.309	0.0139493
829.387	0.0137331
829.465	0.0138925
829.543	0.0138334
829.621	0.0138203
829.700	0.0139731
829.778	0.0140385
829.856	0.0138063
829.934	0.0139314
830.012	0.0138334
830.090	0.0137868
830.168	0.0137181
830.246	0.0138869
830.325	0.0137908
830.403	0.0138091
830.481	0.0137696
830.559	0.0138224
830.637	0.0137682
830.715	0.0138742
830.793	0.0138324
830.871	0.0139832
830.950	0.0139597
831.028	0.0139254
831.106	0.0138554
831.184	0.0138928
831.262	0.0139956
831.340	0.0140376
831.418	0.0139153
831.496	0.0138438
831.575	0.0139711
831.653	0.0140524
831.731	0.0139400
831.809	0.0138612
831.887	0.0139259
831.965	0.0139806
832.043	0.0140322
832.121	0.0139870
832.200	0.0138255
832.278	0.0139134
832.356	0.0138947
832.434	0.0137694
832.512	0.0138320
832.590	0.0140712
832.668	0.0139116
832.746	0.0138475
832.825	0.0138863
832.903	0.0137702
832.981	0.0137859
833.059	0.0138326
833.137	0.0138599
833.215	0.0139789
833.293	0.0139369
833.371	0.0139803
833.450	0.0139234
833.528	0.0138077
833.606	0.0138680
833.684	0.0139921
833.762	0.0139934
833.840	0.0139856
833.918	0.0140389
833.996	0.0140185
834.075	0.0139923
834.153	0.0140277
834.231	0.0140472
834.309	0.0139899
834.387	0.0139716
834.465	0.0139996
834.543	0.0139529
834.621	0.0139967
834.700	0.0139304
834.778	0.0139201
834.856	0.0139381
834.934	0.0140302
835.012	0.0139011
835.090	0.0138939
835.168	0.0137834
835.246	0.0139587
835.325	0.0139845
835.403	0.0138458
835.481	0.0138554
835.559	0.0138946
835.637	0.0139145
835.715	0.0140044
835.793	0.0140207
835.871	0.0139014
835.950	0.0139738
836.028	0.0140700
836.106	0.0139293
836.184	0.0139939
836.262	0.0139847
836.340	0.0141271
836.418	0.0140690
836.496	0.0140063
836.575	0.0140164
836.653	0.0140800
836.731	0.0139790
836.809	0.0140263
836.887	0.0139883
836.965	0.0139855
837.043	0.0139754
837.121	0.0139957
837.200	0.0138712
837.278	0.0140865
837.356	0.0141360
837.434	0.0140076
837.512	0.0138732
837.590	0.0138963
837.668	0.0140507
837.746	0.0140611
837.825	0.0140636
837.903	0.0140626
837.981	0.0138570
838.059	0.0139807
838.137	0.0141196
838.215	0.0140339
838.293	0.0139124
838.371	0.0139976
838.450	0.0139123
838.528	0.0139050
838.606	0.0140369
838.684	0.0139375
838.762	0.0139606
838.840	0.0139697
838.918	0.0140386
838.996	0.0140909
839.075	0.0139620
839.153	0.0138436
839.231	0.0141003
839.309	0.0140486
839.387	0.0138673
839.465	0.0139323
839.543	0.0140132
839.621	0.0139921
839.700	0.0140128
839.778	0.0141456
839.856	0.0139305
839.934	0.0139213
840.012	0.0141147
840.090	0.0141077
840.168	0.0141562
840.246	0.0140708
840.325	0.0139238
840.403	0.0139554
840.481	0.0140184
840.559	0.0138741
840.637	0.0139863
840.715	0.0140436
840.793	0.0140643
840.871	0.0140022
840.950	0.0139247
841.028	0.0138374
841.106	0.0139397
841.184	0.0140073
841.262	0.0139484
841.340	0.0139035
841.418	0.0138196
841.496	0.0139915
841.575	0.0140276
841.653	0.0140083
841.731	0.0139500
841.809	0.0140029
841.887	0.0140983
841.965	0.0140095
842.043	0.0140333
842.121	0.0140123
842.200	0.0142384
842.278	0.0141442
842.356	0.0141060
842.434	0.0141728
842.512	0.0141325
842.590	0.0140993
842.668	0.0141086
842.746	0.0140938
842.825	0.0140988
842.903	0.0141506
842.981	0.0141161
843.059	0.0139042
843.137	0.0139739
843.215	0.0140096
843.293	0.0138762
843.371	0.0138863
843.450	0.0139018
843.528	0.0139032
843.606	0.0139135
843.684	0.0139339
843.762	0.0139701
843.840	0.0139721
843.918	0.0140410
843.996	0.0139748
844.075	0.0139766
844.153	0.0139725
844.231	0.0140839
844.309	0.0140407
844.387	0.0140282
844.465	0.0141924
844.543	0.0141479
844.621	0.0141767
844.700	0.0142212
844.778	0.0141977
844.856	0.0141188
844.934	0.0141675
845.012	0.0141211
845.090	0.0141447
845.168	0.0140985
845.246	0.0141014
845.325	0.0140771
845.403	0.0140570
845.481	0.0140529
845.559	0.0138756
845.637	0.0140786
845.715	0.0139142
845.793	0.0140070
845.871	0.0139008
845.950	0.0139090
846.028	0.0138749
846.106	0.0138378
846.184	0.0138571
846.262	0.0139456
846.340	0.0138657
846.418	0.0139441
846.496	0.0138576
846.575	0.0138276
846.653	0.0139127
846.731	0.0138046
846.809	0.0138954
846.887	0.0138612
846.965	0.0138735
847.043	0.0138870
847.121	0.0138615
847.200	0.0139448
847.278	0.0139919
847.356	0.0139246
847.434	0.0139406
847.512	0.0141465
847.590	0.0140747
847.668	0.0139781
847.746	0.0140426
847.825	0.0140592
847.903	0.0140072
847.981	0.0141545
848.059	0.0140005
848.137	0.0140269
848.215	0.0140342
848.293	0.0141285
848.371	0.0139382
848.450	0.0139616
848.528	0.0139565
848.606	0.0141795
848.684	0.0139256
848.762	0.0139400
848.840	0.0140258
848.918	0.0138870
848.996	0.0139157
849.075	0.0139529
849.153	0.0139066
849.231	0.0137453
849.309	0.0140402
849.387	0.0139965
849.465	0.0138172
849.543	0.0141511
849.621	0.0139934
849.700	0.0137377
849.778	0.0139591
849.856	0.0139383
849.934	0.0140681
850.012	0.0139447
850.090	0.0139748
850.168	0.0140090
850.246	0.0140330
850.325	0.0138612
850.403	0.0139606
850.481	0.0139713
850.559	0.0138847
850.637	0.0140147
850.715	0.0140492
850.793	0.0139714
850.871	0.0138931
850.950	0.0138618
851.028	0.0139961
851.106	0.0139544
851.184	0.0139741
851.262	0.0140018
851.340	0.0138511
851.418	0.0138516
851.496	0.0137952
851.575	0.0139791
851.653	0.0138413
851.731	0.0139088
851.809	0.0139323
851.887	0.0138559
851.965	0.0138187
852.043	0.0139560
852.121	0.0138518
852.200	0.0137982
852.278	0.0138055
852.356	0.0139718
852.434	0.0138514
852.512	0.0138562
852.590	0.0139367
852.668	0.0139906
852.746	0.0138671
852.825	0.0137970
852.903	0.0136954
852.981	0.0140121
853.059	0.0139516
853.137	0.0139635
853.215	0.0139671
853.293	0.0138583
853.371	0.0138805
853.450	0.0138729
853.528	0.0139731
853.606	0.0139481
853.684	0.0140603
853.762	0.0138816
853.840	0.0138945
853.918	0.0139012
853.996	0.0139146
854.075	0.0138023
854.153	0.0138816
854.231	0.0138843
854.309	0.0137361
854.387	0.0139682
854.465	0.0138382
854.543	0.0138708
854.621	0.0137849
854.700	0.0138208
854.778	0.0139215
854.856	0.0138743
854.934	0.0138129
855.012	0.0138451
855.090	0.0139537
855.168	0.0138376
855.246	0.0138774
855.325	0.0140076
855.403	0.0138542
855.481	0.0138690
855.559	0.0139191
855.637	0.0139197
855.715	0.0140444
855.793	0.0139236
855.871	0.0139563
855.950	0.0139882
856.028	0.0140228
856.106	0.0139265
856.184	0.0139797
856.262	0.0139955
856.340	0.0138196
856.418	0.0139603
856.496	0.0140865
856.575	0.0138572
856.653	0.0139374
856.731	0.0139338
856.809	0.0139128
856.887	0.0139076
856.965	0.0139323
857.043	0.0140620
857.121	0.0139112
857.200	0.0139693
857.278	0.0138902
857.356	0.0140315
857.434	0.0138855
857.512	0.0139512
857.590	0.0140012
857.668	0.0139828
857.746	0.0140146
857.825	0.0138861
857.903	0.0139761
857.981	0.0139138
858.059	0.0139968
858.137	0.0140572
858.215	0.0139857
858.293	0.0139452
858.371	0.0140538
858.450	0.0139484
858.528	0.0139570
858.606	0.0140482
858.684	0.0138551
858.762	0.0138219
858.840	0.0139920
858.918	0.0139377
858.996	0.0139165
859.075	0.0138512
859.153	0.0140991
859.231	0.0141034
859.309	0.0140339
859.387	0.0140272
859.465	0.0139413
859.543	0.0140741
859.621	0.0140093
859.700	0.0140341
859.778	0.0138638
859.856	0.0138773
859.934	0.0141402
860.012	0.0140198
860.090	0.0139817
860.168	0.0139779
860.246	0.0140508
860.325	0.0140276
860.403	0.0141200
860.481	0.0140860
860.559	0.0139689
860.637	0.0140511
860.715	0.0140121
860.793	0.0140068
860.871	0.0139196
860.950	0.0140118
861.028	0.0140482
861.106	0.0140250
861.184	0.0139740
861.262	0.0139690
861.340	0.0140250
861.418	0.0140667
861.496	0.0140067
861.575	0.0140306
861.653	0.0140024
861.731	0.0140234
861.809	0.0141037
861.887	0.0139898
861.965	0.0138905
862.043	0.0139835
862.121	0.0139055
862.200	0.0139987
862.278	0.0139698
862.356	0.0139476
862.434	0.0140338
862.512	0.0139172
862.590	0.0140748
862.668	0.0140315
862.746	0.0140975
862.825	0.0139993
862.903	0.0141096
862.981	0.0140626
863.059	0.0139746
863.137	0.0139403
863.215	0.0139656
863.293	0.0139954
863.371	0.0140247
863.450	0.0140236
863.528	0.0140262
863.606	0.0141453
863.684	0.0140323
863.762	0.0138288
863.840	0.0140347
863.918	0.0139705
863.996	0.0140944
864.075	0.0141923
864.153	0.0140691
864.231	0.0139744
864.309	0.0139720
864.387	0.0139878
864.465	0.0139411
864.543	0.0140328
864.621	0.0139072
864.700	0.0140376
864.778	0.0140137
864.856	0.0139772
864.934	0.0140731
865.012	0.0140578
865.090	0.0140772
865.168	0.0139599
865.246	0.0139710
865.325	0.0138354
865.403	0.0138734
865.481	0.0140222
865.559	0.0139373
865.637	0.0138630
865.715	0.0139481
865.793	0.0139264
865.871	0.0140971
865.950	0.0139928
866.028	0.0139527
866.106	0.0140883
866.184	0.0140725
866.262	0.0139700
866.340	0.0139776
866.418	0.0139412
866.496	0.0139356
866.575	0.0138317
866.653	0.0139143
866.731	0.0139709
866.809	0.0140288
866.887	0.0140006
866.965	0.0140165
867.043	0.0139005
867.121	0.0138426
867.200	0.0139863
867.278	0.0138082
867.356	0.0140626
867.434	0.0140009
867.512	0.0139606
867.590	0.0139957
867.668	0.0140841
867.746	0.0139955
867.825	0.0140789
867.903	0.0140709
867.981	0.0141015
868.059	0.0141472
868.137	0.0141198
868.215	0.0140355
868.293	0.0140521
868.371	0.0140858
868.450	0.0140886
868.528	0.0140017
868.606	0.0140545
868.684	0.0141795
868.762	0.0139856
868.840	0.0140163
868.918	0.0141044
868.996	0.0140609
869.075	0.0139160
869.153	0.0138908
869.231	0.0139418
869.309	0.0139159
869.387	0.0139652
869.465	0.0138475
869.543	0.0139414
869.621	0.0140170
869.700	0.0138571
869.778	0.0139414
869.856	0.0139337
869.934	0.0138401
870.012	0.0139960
870.090	0.0139837
870.168	0.0139639
870.246	0.0138148
870.325	0.0140574
870.403	0.0139619
870.481	0.0137809
870.559	0.0139343
870.637	0.0140218
870.715	0.0139684
870.793	0.0139010
870.871	0.0139967
870.950	0.0139933
871.028	0.0140503
871.106	0.0140260
871.184	0.0140088
871.262	0.0140572
871.340	0.0139955
871.418	0.0138898
871.496	0.0139750
871.575	0.0140004
871.653	0.0139341
871.731	0.0139048
871.809	0.0138086
871.887	0.0139507
871.965	0.0137231
872.043	0.0138844
872.121	0.0138005
872.200	0.0137992
872.278	0.0139432
872.356	0.0139622
872.434	0.0139689
872.512	0.0139435
872.590	0.0138884
872.668	0.0138426
872.746	0.0139067
872.825	0.0139068
872.903	0.0140208
872.981	0.0137870
873.059	0.0140203
873.137	0.0140298
873.215	0.0139323
873.293	0.0139442
873.371	0.0140856
873.450	0.0139362
873.528	0.0140131
873.606	0.0139888
873.684	0.0139883
873.762	0.0139113
873.840	0.0140796
873.918	0.0139527
873.996	0.0138521
874.075	0.0139390
874.153	0.0139334
874.231	0.0139850
874.309	0.0139574
874.387	0.0138597
874.465	0.0138383
874.543	0.0138467
874.621	0.0139231
874.700	0.0139178
874.778	0.0137724
874.856	0.0137629
874.934	0.0137682
875.012	0.0138164
875.090	0.0138805
875.168	0.0138380
875.246	0.0138589
875.325	0.0138727
875.403	0.0139156
875.481	0.0139227
875.559	0.0138675
875.637	0.0138553
875.715	0.0140029
875.793	0.0139062
875.871	0.0138261
875.950	0.0137959
876.028	0.0140562
876.106	0.0139213
876.184	0.0138393
876.262	0.0139042
876.340	0.0140245
876.418	0.0139151
876.496	0.0138966
876.575	0.0139045
876.653	0.0139104
876.731	0.0139238
876.809	0.0140372
876.887	0.0139387
876.965	0.0141032
877.043	0.0139439
877.121	0.0138315
877.200	0.0139725
877.278	0.0140269
877.356	0.0140318
877.434	0.0139664
877.512	0.0139542
877.590	0.0139873
877.668	0.0139534
877.746	0.0139639
877.825	0.0140543
877.903	0.0139392
877.981	0.0139795
878.059	0.0138322
878.137	0.0140124
878.215	0.0139235
878.293	0.0139057
878.371	0.0139172
878.450	0.0140167
878.528	0.0139608
878.606	0.0140013
878.684	0.0140163
878.762	0.0139349
878.840	0.0140849
878.918	0.0140631
878.996	0.0141260
879.075	0.0141055
879.153	0.0139951
879.231	0.0140183
879.309	0.0141156
879.387	0.0140347
879.465	0.0140363
879.543	0.0138989
879.621	0.0139619
879.700	0.0139415
879.778	0.0140295
879.856	0.0140297
879.934	0.0140823
880.012	0.0140604
880.090	0.0139347
880.168	0.0140105
880.246	0.0138526
880.325	0.0140316
880.403	0.0141267
880.481	0.0141242
880.559	0.0139657
880.637	0.0140918
880.715	0.0141335
880.793	0.0139913
880.871	0.0140353
880.950	0.0139562
881.028	0.0138559
881.106	0.0138995
881.184	0.0140594
881.262	0.0141347
881.340	0.0139754
881.418	0.0140238
881.496	0.0138692
881.575	0.0138725
881.653	0.0138785
881.731	0.0139763
881.809	0.0140465
881.887	0.0139127
881.965	0.0140012
882.043	0.0139925
882.121	0.0138876
882.200	0.0141302
882.278	0.0138889
882.356	0.0139281
882.434	0.0142123
882.512	0.0140501
882.590	0.0137514
882.668	0.0141254
882.746	0.0139858
882.825	0.0140083
882.903	0.0141224
882.981	0.0141047
883.059	0.0142081
883.137	0.0140900
883.215	0.0140031
883.293	0.0140599
883.371	0.0141777
883.450	0.0140523
883.528	0.0140045
883.606	0.0140011
883.684	0.0139649
883.762	0.0140559
883.840	0.0140289
883.918	0.0138400
883.996	0.0138870
884.075	0.0138917
884.153	0.0138387
884.231	0.0138431
884.309	0.0137852
884.387	0.0138767
884.465	0.0138860
884.543	0.0139425
884.621	0.0138293
884.700	0.0138130
884.778	0.0139327
884.856	0.0139346
884.934	0.0139493
885.012	0.0140329
885.090	0.0141132
885.168	0.0138840
885.246	0.0140765
885.325	0.0139546
885.403	0.0140622
885.481	0.0139682
885.559	0.0139553
885.637	0.0140973
885.715	0.0140575
885.793	0.0141518
885.871	0.0139172
885.950	0.0140721
886.028	0.0139770
886.106	0.0138126
886.184	0.0138152
886.262	0.0138062
886.340	0.0138789
886.418	0.0139530
886.496	0.0137098
886.575	0.0137059
886.653	0.0139141
886.731	0.0139824
886.809	0.0139030
886.887	0.0137733
886.965	0.0139434
887.043	0.0141154
887.121	0.0140480
887.200	0.0139535
887.278	0.0140283
887.356	0.0140790
887.434	0.0139431
887.512	0.0139697
887.590	0.0138440
887.668	0.0139799
887.746	0.0140884
887.825	0.0140401
887.903	0.0140424
887.981	0.0140449
888.059	0.0139721
888.137	0.0140922
888.215	0.0140479
888.293	0.0139769
888.371	0.0140234
888.450	0.0139044
888.528	0.0139288
888.606	0.0139075
888.684	0.0138802
888.762	0.0138853
888.840	0.0138563
888.918	0.0138752
888.996	0.0137720
889.075	0.0138276
889.153	0.0137585
889.231	0.0138245
889.309	0.0138540
889.387	0.0139044
889.465	0.0138744
889.543	0.0139895
889.621	0.0138523
889.700	0.0139098
889.778	0.0139294
889.856	0.0137984
889.934	0.0139199
890.012	0.0139328
890.090	0.0138448
890.168	0.0139486
890.246	0.0139696
890.325	0.0139631
890.403	0.0138258
890.481	0.0138542
890.559	0.0138641
890.637	0.0138877
890.715	0.0139135
890.793	0.0139741
890.871	0.0138015
890.950	0.0139081
891.028	0.0139428
891.106	0.0138721
891.184	0.0139381
891.262	0.0139631
891.340	0.0140359
891.418	0.0137447
891.496	0.0139378
891.575	0.0139652
891.653	0.0138341
891.731	0.0139237
891.809	0.0138186
891.887	0.0139220
891.965	0.0138728
892.043	0.0139954
892.121	0.0138231
892.200	0.0139014
892.278	0.0139324
892.356	0.0139153
892.434	0.0139821
892.512	0.0139060
892.590	0.0138844
892.668	0.0138628
892.746	0.0140022
892.825	0.0138644
892.903	0.0138884
892.981	0.0138587
893.059	0.0139119
893.137	0.0138934
893.215	0.0138649
893.293	0.0138329
893.371	0.0138205
893.450	0.0139632
893.528	0.0137669
893.606	0.0138462
893.684	0.0138814
893.762	0.0139182
893.840	0.0137635
893.918	0.0139613
893.996	0.0139931
894.075	0.0139359
894.153	0.0139497
894.231	0.0139387
894.309	0.0138869
894.387	0.0138705
894.465	0.0140657
894.543	0.0141193
894.621	0.0139256
894.700	0.0139695
894.778	0.0140424
894.856	0.0140578
894.934	0.0140057
895.012	0.0141242
895.090	0.0139874
895.168	0.0140396
895.246	0.0140418
895.325	0.0140443
895.403	0.0139800
895.481	0.0139610
895.559	0.0139648
895.637	0.0140519
895.715	0.0140993
895.793	0.0138984
895.871	0.0138548
895.950	0.0139597
896.028	0.0140843
896.106	0.0140665
896.184	0.0139536
896.262	0.0139265
896.340	0.0140210
896.418	0.0139621
896.496	0.0141069
896.575	0.0140804
896.653	0.0141061
896.731	0.0141139
896.809	0.0141473
896.887	0.0141106
896.965	0.0139866
897.043	0.0140076
897.121	0.0140260
897.200	0.0139278
897.278	0.0140370
897.356	0.0140520
897.434	0.0141016
897.512	0.0141340
897.590	0.0139957
897.668	0.0140845
897.746	0.0140261
897.825	0.0141562
897.903	0.0141808
897.981	0.0141782
898.059	0.0141213
898.137	0.0141934
898.215	0.0142074
898.293	0.0141037
898.371	0.0140890
898.450	0.0139918
898.528	0.0140166
898.606	0.0138432
898.684	0.0139031
898.762	0.0139268
898.840	0.0138775
898.918	0.0137337
898.996	0.0137641
899.075	0.0138126
899.153	0.0137224
899.231	0.0137373
899.309	0.0138956
899.387	0.0139919
899.465	0.0139394
899.543	0.0139538
899.621	0.0139406
899.700	0.0140076
899.778	0.0139335
899.856	0.0140398
899.934	0.0140842
900.012	0.0141920
900.090	0.0141824
900.168	0.0140918
900.246	0.0141081
900.325	0.0142661
900.403	0.0140635
900.481	0.0139732
900.559	0.0140185
900.637	0.0141338
900.715	0.0139825
900.793	0.0138440
900.871	0.0139961
900.950	0.0138838
901.028	0.0139634
901.106	0.0138044
901.184	0.0139197
901.262	0.0139999
901.340	0.0140637
901.418	0.0139764
901.496	0.0138871
901.575	0.0140672
901.653	0.0139864
901.731	0.0141679
901.809	0.0140508
901.887	0.0139606
901.965	0.0141113
902.043	0.0141278
902.121	0.0140649
902.200	0.0140779
902.278	0.0141425
902.356	0.0140503
902.434	0.0140704
902.512	0.0141672
902.590	0.0139709
902.668	0.0139698
902.746	0.0141170
902.825	0.0141058
902.903	0.0140258
902.981	0.0139734
903.059	0.0138537
903.137	0.0139250
903.215	0.0139102
903.293	0.0139677
903.371	0.0140150
903.450	0.0140074
903.528	0.0138947
903.606	0.0138142
903.684	0.0138387
903.762	0.0139311
903.840	0.0137205
903.918	0.0137719
903.996	0.0137547
904.075	0.0139196
904.153	0.0138908
904.231	0.0137589
904.309	0.0139721
904.387	0.0139513
904.465	0.0139615
904.543	0.0139575
904.621	0.0139835
904.700	0.0139787
904.778	0.0140147
904.856	0.0139950
904.934	0.0141273
905.012	0.0140621
905.090	0.0139884
905.168	0.0140878
905.246	0.0139980
905.325	0.0139815
905.403	0.0138965
905.481	0.0138914
905.559	0.0139950
905.637	0.0139662
905.715	0.0139346
905.793	0.0138989
905.871	0.0138805
905.950	0.0139338
906.028	0.0139198
906.106	0.0138453
906.184	0.0139546
906.262	0.0139776
906.340	0.0140759
906.418	0.0139986
906.496	0.0139169
906.575	0.0139936
906.653	0.0141245
906.731	0.0141556
906.809	0.0139714
906.887	0.0138234
906.965	0.0139295
907.043	0.0140483
907.121	0.0139262
907.200	0.0138353
907.278	0.0139156
907.356	0.0140138
907.434	0.0140597
907.512	0.0137644
907.590	0.0138691
907.668	0.0140077
907.746	0.0138500
907.825	0.0139297
907.903	0.0140318
907.981	0.0139701
908.059	0.0139931
908.137	0.0140327
908.215	0.0139796
908.293	0.0140353
908.371	0.0141164
908.450	0.0139969
908.528	0.0139513
908.606	0.0138930
908.684	0.0139482
908.762	0.0140244
908.840	0.0140837
908.918	0.0140430
908.996	0.0138985
909.075	0.0140296
909.153	0.0140508
909.231	0.0139623
909.309	0.0141318
909.387	0.0139749
909.465	0.0139268
909.543	0.0139685
909.621	0.0140881
909.700	0.0139449
909.778	0.0139730
909.856	0.0141043
909.934	0.0139401
910.012	0.0139872
910.090	0.0140076
910.168	0.0140566
910.246	0.0140132
910.325	0.0139931
910.403	0.0139000
910.481	0.0139364
910.559	0.0140023
910.637	0.0140981
910.715	0.0141049
910.793	0.0139949
910.871	0.0140878
910.950	0.0141028
911.028	0.0140102
911.106	0.0140073
911.184	0.0140025
911.262	0.0139881
911.340	0.0140148
911.418	0.0140737
911.496	0.0139062
911.575	0.0139212
911.653	0.0140871
911.731	0.0140438
911.809	0.0139627
911.887	0.0139805
911.965	0.0140057
912.043	0.0140963
912.121	0.0140392
912.200	0.0140873
912.278	0.0140236
912.356	0.0138298
912.434	0.0138735
912.512	0.0139824
912.590	0.0140234
912.668	0.0141116
912.746	0.0139139
912.825	0.0139409
912.903	0.0140696
912.981	0.0139415
913.059	0.0140215
913.137	0.0138804
913.215	0.0140306
913.293	0.0139365
913.371	0.0140912
913.450	0.0138409
913.528	0.0139668
913.606	0.0139058
913.684	0.0139700
913.762	0.0138455
913.840	0.0139558
913.918	0.0139652
913.996	0.0138776
914.075	0.0139581
914.153	0.0140035
914.231	0.0138648
914.309	0.0138934
914.387	0.0139596
914.465	0.0139783
914.543	0.0139466
914.621	0.0139924
914.700	0.0139890
914.778	0.0139822
914.856	0.0139835
914.934	0.0139652
915.012	0.0140161
915.090	0.0140765
915.168	0.0139676
915.246	0.0138251
915.325	0.0139068
915.403	0.0140355
915.481	0.0139857
915.559	0.0140627
915.637	0.0139922
915.715	0.0138953
915.793	0.0139879
915.871	0.0139783
915.950	0.0140297
916.028	0.0139789
916.106	0.0140672
916.184	0.0140691
916.262	0.0140250
916.340	0.0139827
916.418	0.0140016
916.496	0.0140394
916.575	0.0140395
916.653	0.0140411
916.731	0.0140541
916.809	0.0140222
916.887	0.0139378
916.965	0.0141557
917.043	0.0140878
917.121	0.0139622
917.200	0.0139623
917.278	0.0140036
917.356	0.0140608
917.434	0.0139207
917.512	0.0139202
917.590	0.0139298
917.668	0.0139303
917.746	0.0139851
917.825	0.0140520
917.903	0.0139177
917.981	0.0140302
918.059	0.0139268
918.137	0.0138309
918.215	0.0139989
918.293	0.0139661
918.371	0.0140681
918.450	0.0140418
918.528	0.0141048
918.606	0.0140308
918.684	0.0138940
918.762	0.0140950
918.840	0.0138736
918.918	0.0138670
918.996	0.0139010
919.075	0.0139972
919.153	0.0139882
919.231	0.0140199
919.309	0.0140026
919.387	0.0140413
919.465	0.0139426
919.543	0.0138989
919.621	0.0141897
919.700	0.0139849
919.778	0.0139931
919.856	0.0140951
919.934	0.0140961
920.012	0.0140269
920.090	0.0139603
920.168	0.0138640
920.246	0.0138245
920.325	0.0140760
920.403	0.0139749
920.481	0.0140076
920.559	0.0139427
920.637	0.0139323
920.715	0.0139500
920.793	0.0139459
920.871	0.0139063
920.950	0.0140015
921.028	0.0139747
921.106	0.0138158
921.184	0.0139432
921.262	0.0140103
921.340	0.0138760
921.418	0.0138298
921.496	0.0139843
921.575	0.0138970
921.653	0.0140242
921.731	0.0140498
921.809	0.0139604
921.887	0.0140271
921.965	0.0140379
922.043	0.0140296
922.121	0.0139278
922.200	0.0140415
922.278	0.0141524
922.356	0.0141319
922.434	0.0140724
922.512	0.0140191
922.590	0.0140578
922.668	0.0138461
922.746	0.0139857
922.825	0.0139214
922.903	0.0139377
922.981	0.0140553
923.059	0.0140823
923.137	0.0140312
923.215	0.0139257
923.293	0.0138824
923.371	0.0139610
923.450	0.0138341
923.528	0.0139671
923.606	0.0139332
923.684	0.0139774
923.762	0.0140302
923.840	0.0139807
923.918	0.0141008
923.996	0.0140219
924.075	0.0139787
924.153	0.0139247
924.231	0.0140318
924.309	0.0139162
924.387	0.0139951
924.465	0.0140182
924.543	0.0141250
924.621	0.0140559
924.700	0.0138953
924.778	0.0138710
924.856	0.0139627
924.934	0.0141547
925.012	0.0138683
925.090	0.0139633
925.168	0.0140350
925.246	0.0139101
925.325	0.0140121
925.403	0.0140301
925.481	0.0139533
925.559	0.0140351
925.637	0.0139876
925.715	0.0138786
925.793	0.0138669
925.871	0.0140372
925.950	0.0140031
926.028	0.0139992
926.106	0.0139505
926.184	0.0140012
926.262	0.0140397
926.340	0.0140882
926.418	0.0140427
926.496	0.0141371
926.575	0.0139970
926.653	0.0140869
926.731	0.0139227
926.809	0.0139835
926.887	0.0140221
926.965	0.0140481
927.043	0.0140362
927.121	0.0139221
927.200	0.0140041
927.278	0.0139665
927.356	0.0138309
927.434	0.0140234
927.512	0.0139722
927.590	0.0140582
927.668	0.0141154
927.746	0.0139220
927.825	0.0140014
927.903	0.0140802
927.981	0.0141000
928.059	0.0139299
928.137	0.0138474
928.215	0.0141643
928.293	0.0140579
928.371	0.0139410
928.450	0.0140874
928.528	0.0139717
928.606	0.0140337
928.684	0.0140866
928.762	0.0140226
928.840	0.0138984
928.918	0.0138736
928.996	0.0139416
929.075	0.0140593
929.153	0.0141293
929.231	0.0139883
929.309	0.0138625
929.387	0.0139416
929.465	0.0139608
929.543	0.0139506
929.621	0.0139957
929.700	0.0141087
929.778	0.0139343
929.856	0.0139207
929.934	0.0138686
930.012	0.0140582
930.090	0.0140289
930.168	0.0139742
930.246	0.0139120
930.325	0.0139347
930.403	0.0138358
930.481	0.0139291
930.559	0.0138855
930.637	0.0138842
930.715	0.0139157
930.793	0.0138600
930.871	0.0140120
930.950	0.0137994
931.028	0.0139419
931.106	0.0139831
931.184	0.0138496
931.262	0.0137973
931.340	0.0138326
931.418	0.0138673
931.496	0.0138889
931.575	0.0138808
931.653	0.0138790
931.731	0.0139143
931.809	0.0138821
931.887	0.0139771
931.965	0.0140409
932.043	0.0139378
932.121	0.0138559
932.200	0.0138133
932.278	0.0138545
932.356	0.0138863
932.434	0.0138637
932.512	0.0139310
932.590	0.0137461
932.668	0.0137990
932.746	0.0138954
932.825	0.0137754
932.903	0.0139547
932.981	0.0138810
933.059	0.0138294
933.137	0.0138879
933.215	0.0140073
933.293	0.0138853
933.371	0.0138656
933.450	0.0138212
933.528	0.0138349
933.606	0.0139309
933.684	0.0138358
933.762	0.0138031
933.840	0.0138626
933.918	0.0138719
933.996	0.0138962
934.075	0.0137802
934.153	0.0139423
934.231	0.0138498
934.309	0.0139411
934.387	0.0140188
934.465	0.0138023
934.543	0.0138776
934.621	0.0139247
934.700	0.0138898
934.778	0.0139411
934.856	0.0139256
934.934	0.0139001
935.012	0.0138995
935.090	0.0141634
935.168	0.0140996
935.246	0.0139566
935.325	0.0140074
935.403	0.0141586
935.481	0.0140787
935.559	0.0140448
935.637	0.0139542
935.715	0.0139828
935.793	0.0141683
935.871	0.0140639
935.950	0.0141195
936.028	0.0141144
936.106	0.0140826
936.184	0.0141403
936.262	0.0140829
936.340	0.0140481
936.418	0.0140472
936.496	0.0140398
936.575	0.0139743
936.653	0.0140504
936.731	0.0139812
936.809	0.0140083
936.887	0.0139986
936.965	0.0141876
937.043	0.0139973
937.121	0.0140874
937.200	0.0139727
937.278	0.0139003
937.356	0.0138914
937.434	0.0140209
937.512	0.0140715
937.590	0.0140781
937.668	0.0139761
937.746	0.0140550
937.825	0.0140871
937.903	0.0141609
937.981	0.0140852
938.059	0.0141853
938.137	0.0140995
938.215	0.0142027
938.293	0.0141898
938.371	0.0141998
938.450	0.0140814
938.528	0.0140844
938.606	0.0140376
938.684	0.0139864
938.762	0.0139953
938.840	0.0139204
938.918	0.0140192
938.996	0.0140086
939.075	0.0138901
939.153	0.0140048
939.231	0.0138955
939.309	0.0138062
939.387	0.0139433
939.465	0.0137497
939.543	0.0140032
939.621	0.0138233
939.700	0.0138804
939.778	0.0139679
939.856	0.0139449
939.934	0.0139973
940.012	0.0139156
940.090	0.0140090
940.168	0.0140078
940.246	0.0141179
940.325	0.0140539
940.403	0.0141220
940.481	0.0140730
940.559	0.0141301
940.637	0.0141708
940.715	0.0141898
940.793	0.0140697
940.871	0.0141239
940.950	0.0141053
941.028	0.0140079
941.106	0.0140295
941.184	0.0140724
941.262	0.0139743
941.340	0.0140282
941.418	0.0140791
941.496	0.0141204
941.575	0.0141457
941.653	0.0139684
941.731	0.0140421
941.809	0.0139398
941.887	0.0139643
941.965	0.0139697
942.043	0.0140001
942.121	0.0140381
942.200	0.0139522
942.278	0.0138850
942.356	0.0139755
942.434	0.0141210
942.512	0.0138816
942.590	0.0140572
942.668	0.0139765
942.746	0.0139589
942.825	0.0140545
942.903	0.0140151
942.981	0.0140035
943.059	0.0139469
943.137	0.0139041
943.215	0.0139745
943.293	0.0140675
943.371	0.0138184
943.450	0.0140159
943.528	0.0139782
943.606	0.0139496
943.684	0.0139584
943.762	0.0139960
943.840	0.0140025
943.918	0.0139975
943.996	0.0140786
944.075	0.0140482
944.153	0.0139608
944.231	0.0139385
944.309	0.0140498
944.387	0.0138332
944.465	0.0139339
944.543	0.0139645
944.621	0.0139671
944.700	0.0140515
944.778	0.0139713
944.856	0.0141058
944.934	0.0140529
945.012	0.0139307
945.090	0.0139770
945.168	0.0140358
945.246	0.0139818
945.325	0.0138928
945.403	0.0139812
945.481	0.0140805
945.559	0.0139625
945.637	0.0139021
945.715	0.0138727
945.793	0.0138962
945.871	0.0140762
945.950	0.0140033
946.028	0.0139999
946.106	0.0140694
946.184	0.0138946
946.262	0.0140346
946.340	0.0140485
946.418	0.0139101
946.496	0.0140717
946.575	0.0140828
946.653	0.0139710
946.731	0.0140871
946.809	0.0140511
946.887	0.0139356
946.965	0.0140169
947.043	0.0140292
947.121	0.0140691
947.200	0.0138665
947.278	0.0138493
947.356	0.0139771
947.434	0.0140465
947.512	0.0138586
947.590	0.0139866
947.668	0.0138886
947.746	0.0137742
947.825	0.0138639
947.903	0.0138745
947.981	0.0138309
948.059	0.0138914
948.137	0.0139802
948.215	0.0140159
948.293	0.0139328
948.371	0.0139414
948.450	0.0140621
948.528	0.0138583
948.606	0.0139582
948.684	0.0139580
948.762	0.0139870
948.840	0.0139261
948.918	0.0140401
948.996	0.0139197
949.075	0.0138727
949.153	0.0139616
949.231	0.0139706
949.309	0.0139489
949.387	0.0141291
949.465	0.0140428
949.543	0.0139947
949.621	0.0138879
949.700	0.0138820
949.778	0.0139828
949.856	0.0139286
949.934	0.0139949
950.012	0.0140299
950.090	0.0139739
950.168	0.0140868
950.246	0.0140031
950.325	0.0139682
950.403	0.0139136
950.481	0.0139746
950.559	0.0139461
950.637	0.0139357
950.715	0.0139658
950.793	0.0139624
950.871	0.0139777
950.950	0.0138287
951.028	0.0140175
951.106	0.0139748
951.184	0.0139304
951.262	0.0141603
951.340	0.0140155
951.418	0.0140401
951.496	0.0139857
951.575	0.0141128
951.653	0.0141942
951.731	0.0139642
951.809	0.0139288
951.887	0.0139191
951.965	0.0139787
952.043	0.0138496
952.121	0.0138403
952.200	0.0139536
952.278	0.0140182
952.356	0.0138431
952.434	0.0138805
952.512	0.0138807
952.590	0.0138998
952.668	0.0138523
952.746	0.0138287
952.825	0.0139567
952.903	0.0140058
952.981	0.0137849
953.059	0.0139174
953.137	0.0139433
953.215	0.0139520
953.293	0.0138791
953.371	0.0138036
953.450	0.0139059
953.528	0.0140439
953.606	0.0138591
953.684	0.0137698
953.762	0.0140524
953.840	0.0139595
953.918	0.0139302
953.996	0.0138991
954.075	0.0139533
954.153	0.0139738
954.231	0.0140709
954.309	0.0138651
954.387	0.0138506
954.465	0.0138798
954.543	0.0137630
954.621	0.0138112
954.700	0.0138110
954.778	0.0138985
954.856	0.0138444
954.934	0.0138421
955.012	0.0138245
955.090	0.0138735
955.168	0.0139230
955.246	0.0138519
955.325	0.0138747
955.403	0.0138880
955.481	0.0140517
955.559	0.0138068
955.637	0.0138944
955.715	0.0139608
955.793	0.0139725
955.871	0.0139021
955.950	0.0139083
956.028	0.0138763
956.106	0.0137675
956.184	0.0139313
956.262	0.0138712
956.340	0.0137699
956.418	0.0138339
956.496	0.0140068
956.575	0.0139669
956.653	0.0139631
956.731	0.0138082
956.809	0.0138865
956.887	0.0140353
956.965	0.0140214
957.043	0.0140031
957.121	0.0139413
957.200	0.0138898
957.278	0.0140191
957.356	0.0138866
957.434	0.0139760
957.512	0.0140466
957.590	0.0139940
957.668	0.0139543
957.746	0.0138475
957.825	0.0139342
957.903	0.0138269
957.981	0.0138924
958.059	0.0138541
958.137	0.0139998
958.215	0.0139223
958.293	0.0138957
958.371	0.0140137
958.450	0.0139361
958.528	0.0139286
958.606	0.0137973
958.684	0.0140215
958.762	0.0141985
958.840	0.0140095
958.918	0.0140912
958.996	0.0140903
959.075	0.0142054
959.153	0.0139998
959.231	0.0141242
959.309	0.0141998
959.387	0.0141212
959.465	0.0141110
959.543	0.0141007
959.621	0.0140518
959.700	0.0140253
959.778	0.0141064
959.856	0.0140784
959.934	0.0140189
960.012	0.0140028
960.090	0.0139808
960.168	0.0140180
960.246	0.0141410
960.325	0.0141278
960.403	0.0140421
960.481	0.0138929
960.559	0.0139720
960.637	0.0141315
960.715	0.0138026
960.793	0.0141290
960.871	0.0140049
960.950	0.0141168
961.028	0.0141316
961.106	0.0139877
961.184	0.0141573
961.262	0.0140387
961.340	0.0140420
961.418	0.0141705
961.496	0.0141325
961.575	0.0140060
961.653	0.0140694
961.731	0.0141904
961.809	0.0140603
961.887	0.0139810
961.965	0.0141205
962.043	0.0139861
962.121	0.0139401
962.200	0.0139515
962.278	0.0140318
962.356	0.0139156
962.434	0.0140047
962.512	0.0138700
962.590	0.0138750
962.668	0.0139252
962.746	0.0138808
962.825	0.0138643
962.903	0.0139529
962.981	0.0141504
963.059	0.0141403
963.137	0.0140232
963.215	0.0140828
963.293	0.0142389
963.371	0.0141268
963.450	0.0141087
963.528	0.0142113
963.606	0.0141653
963.684	0.0141823
963.762	0.0141742
963.840	0.0141170
963.918	0.0140159
963.996	0.0139270
964.075	0.0140986
964.153	0.0140910
964.231	0.0139324
964.309	0.0140021
964.387	0.0139448
964.465	0.0140307
964.543	0.0139706
964.621	0.0140379
964.700	0.0139902
964.778	0.0139265
964.856	0.0139034
964.934	0.0140100
965.012	0.0140571
965.090	0.0139298
965.168	0.0140328
965.246	0.0141293
965.325	0.0138380
965.403	0.0140057
965.481	0.0139705
965.559	0.0141222
965.637	0.0140084
965.715	0.0139906
965.793	0.0140511
965.871	0.0140397
965.950	0.0140736
966.028	0.0139326
966.106	0.0140435
966.184	0.0139734
966.262	0.0140037
966.340	0.0139573
966.418	0.0138663
966.496	0.0138448
966.575	0.0138141
966.653	0.0138154
966.731	0.0138381
966.809	0.0138649
966.887	0.0138551
966.965	0.0138158
967.043	0.0138632
967.121	0.0140446
967.200	0.0140324
967.278	0.0139629
967.356	0.0140332
967.434	0.0139840
967.512	0.0140920
967.590	0.0139285
967.668	0.0139562
967.746	0.0139119
967.825	0.0140454
967.903	0.0140904
967.981	0.0140200
968.059	0.0138256
968.137	0.0139107
968.215	0.0140175
968.293	0.0138965
968.371	0.0138957
968.450	0.0139340
968.528	0.0138544
968.606	0.0139107
968.684	0.0138157
968.762	0.0138094
968.840	0.0138438
968.918	0.0138497
968.996	0.0138579
969.075	0.0139220
969.153	0.0138210
969.231	0.0139367
969.309	0.0138837
969.387	0.0137418
969.465	0.0139611
969.543	0.0139548
969.621	0.0140681
969.700	0.0139287
969.778	0.0140147
969.856	0.0140452
969.934	0.0140627
970.012	0.0140119
970.090	0.0139455
970.168	0.0138823
970.246	0.0137482
970.325	0.0138898
970.403	0.0138501
970.481	0.0138448
970.559	0.0139025
970.637	0.0139205
970.715	0.0137816
970.793	0.0138380
970.871	0.0137186
970.950	0.0137382
971.028	0.0138822
971.106	0.0138387
971.184	0.0138161
971.262	0.0138889
971.340	0.0139506
971.418	0.0138847
971.496	0.0139639
971.575	0.0139309
971.653	0.0138931
971.731	0.0139049
971.809	0.0139915
971.887	0.0140813
971.965	0.0141319
972.043	0.0140245
972.121	0.0139474
972.200	0.0140167
972.278	0.0140774
972.356	0.0139712
972.434	0.0139182
972.512	0.0139241
972.590	0.0139275
972.668	0.0138921
972.746	0.0140152
972.825	0.0139668
972.903	0.0139560
972.981	0.0139515
973.059	0.0139391
973.137	0.0140155
973.215	0.0140200
973.293	0.0139034
973.371	0.0139774
973.450	0.0140503
973.528	0.0139341
973.606	0.0141370
973.684	0.0140902
973.762	0.0139679
973.840	0.0140345
973.918	0.0139953
973.996	0.0139901
974.075	0.0141132
974.153	0.0141800
974.231	0.0140923
974.309	0.0139822
974.387	0.0139389
974.465	0.0139909
974.543	0.0140308
974.621	0.0141613
974.700	0.0140893
974.778	0.0139997
974.856	0.0140617
974.934	0.0140120
975.012	0.0139954
975.090	0.0141084
975.168	0.0139777
975.246	0.0139171
975.325	0.0138316
975.403	0.0140288
975.481	0.0139416
975.559	0.0140492
975.637	0.0140817
975.715	0.0140772
975.793	0.0138544
975.871	0.0139849
975.950	0.0139956
976.028	0.0139799
976.106	0.0140095
976.184	0.0140357
976.262	0.0140522
976.340	0.0140135
976.418	0.0141125
976.496	0.0139390
976.575	0.0139421
976.653	0.0139971
976.731	0.0139929
976.809	0.0140112
976.887	0.0139997
976.965	0.0139261
977.043	0.0139271
977.121	0.0140340
977.200	0.0139623
977.278	0.0139718
977.356	0.0140723
977.434	0.0141572
977.512	0.0139700
977.590	0.0139898
977.668	0.0140240
977.746	0.0139658
977.825	0.0141953
977.903	0.0139883
977.981	0.0139000
978.059	0.0139299
978.137	0.0139760
978.215	0.0141007
978.293	0.0140459
978.371	0.0139851
978.450	0.0138953
978.528	0.0140498
978.606	0.0140029
978.684	0.0137590
978.762	0.0139702
978.840	0.0139707
978.918	0.0139398
978.996	0.0140801
979.075	0.0140582
979.153	0.0139914
979.231	0.0140091
979.309	0.0141485
979.387	0.0140956
979.465	0.0140654
979.543	0.0140359
979.621	0.0141109
979.700	0.0140745
979.778	0.0140790
979.856	0.0140689
979.934	0.0140038
980.012	0.0141325
980.090	0.0141514
980.168	0.0139443
980.246	0.0142065
980.325	0.0141193
980.403	0.0141017
980.481	0.0140670
980.559	0.0140896
980.637	0.0140712
980.715	0.0141592
980.793	0.0139223
980.871	0.0139896
980.950	0.0140189
981.028	0.0141624
981.106	0.0141199
981.184	0.0140457
981.262	0.0139668
981.340	0.0140540
981.418	0.0140849
981.496	0.0141468
981.575	0.0140987
981.653	0.0140696
981.731	0.0141265
981.809	0.0141252
981.887	0.0141361
981.965	0.0140768
982.043	0.0140017
982.121	0.0140179
982.200	0.0141150
982.278	0.0140606
982.356	0.0139772
982.434	0.0141828
982.512	0.0140349
982.590	0.0141090
982.668	0.0139600
982.746	0.0139497
982.825	0.0139821
982.903	0.0140114
982.981	0.0139433
983.059	0.0140583
983.137	0.0139491
983.215	0.0139153
983.293	0.0139829
983.371	0.0138027
983.450	0.0139426
983.528	0.0138645
983.606	0.0140580
983.684	0.0141534
983.762	0.0139787
983.840	0.0139466
983.918	0.0139342
983.996	0.0140031
984.075	0.0139820
984.153	0.0139986
984.231	0.0141117
984.309	0.0140639
984.387	0.0139426
984.465	0.0138970
984.543	0.0139101
984.621	0.0138772
984.700	0.0141040
984.778	0.0140844
984.856	0.0140183
984.934	0.0138828
985.012	0.0139857
985.090	0.0139761
985.168	0.0140143
985.246	0.0139540
985.325	0.0138530
985.403	0.0139547
985.481	0.0139196
985.559	0.0139227
985.637	0.0139410
985.715	0.0140860
985.793	0.0139594
985.871	0.0140385
985.950	0.0138911
986.028	0.0138212
986.106	0.0140110
986.184	0.0138023
986.262	0.0137334
986.340	0.0138854
986.418	0.0138464
986.496	0.0138655
986.575	0.0138306
986.653	0.0139053
986.731	0.0138183
986.809	0.0138921
986.887	0.0139204
986.965	0.0140292
987.043	0.0139963
987.121	0.0139719
987.200	0.0139910
987.278	0.0139962
987.356	0.0141292
987.434	0.0139527
987.512	0.0141092
987.590	0.0140726
987.668	0.0141867
987.746	0.0140858
987.825	0.0140290
987.903	0.0140257
987.981	0.0140312
988.059	0.0140376
988.137	0.0139710
988.215	0.0140289
988.293	0.0139690
988.371	0.0138692
988.450	0.0140541
988.528	0.0140210
988.606	0.0140155
988.684	0.0138676
988.762	0.0137351
988.840	0.0137548
988.918	0.0139342
988.996	0.0138537
989.075	0.0137119
989.153	0.0138198
989.231	0.0139050
989.309	0.0139452
989.387	0.0138357
989.465	0.0138949
989.543	0.0138522
989.621	0.0138916
989.700	0.0139164
989.778	0.0140348
989.856	0.0139857
989.934	0.0140482
990.012	0.0139088
990.090	0.0140536
990.168	0.0140918
990.246	0.0140257
990.325	0.0139322
990.403	0.0140417
990.481	0.0140056
990.559	0.0140594
990.637	0.0140258
990.715	0.0139787
990.793	0.0138971
990.871	0.0138582
990.950	0.0138686
991.028	0.0138769
991.106	0.0139526
991.184	0.0138278
991.262	0.0139630
991.340	0.0139724
991.418	0.0139224
991.496	0.0138569
991.575	0.0137329
991.653	0.0138223
991.731	0.0138793
991.809	0.0139777
991.887	0.0139447
991.965	0.0139320
992.043	0.0139450
992.121	0.0139925
992.200	0.0139094
992.278	0.0140130
992.356	0.0140714
992.434	0.0141009
992.512	0.0140429
992.590	0.0139321
992.668	0.0140708
992.746	0.0140733
992.825	0.0141370
992.903	0.0139440
992.981	0.0141309
993.059	0.0141624
993.137	0.0141055
993.215	0.0141015
993.293	0.0140573
993.371	0.0139417
993.450	0.0140344
993.528	0.0141512
993.606	0.0140569
993.684	0.0140278
993.762	0.0139091
993.840	0.0138892
993.918	0.0139554
993.996	0.0139426
994.075	0.0140566
994.153	0.0137401
994.231	0.0137845
994.309	0.0138657
994.387	0.0139266
994.465	0.0138682
994.543	0.0138374
994.621	0.0137390
994.700	0.0138396
994.778	0.0141339
994.856	0.0140323
994.934	0.0139639
995.012	0.0140443
995.090	0.0140246
995.168	0.0141213
995.246	0.0142235
995.325	0.0140964
995.403	0.0142142
995.481	0.0141102
995.559	0.0140115
995.637	0.0140675
995.715	0.0142238
995.793	0.0142402
995.871	0.0139750
995.950	0.0141219
996.028	0.0139600
996.106	0.0142054
996.184	0.0142059
996.262	0.0140684
996.340	0.0141442
996.418	0.0140535
996.496	0.0138219
996.575	0.0140619
996.653	0.0140706
996.731	0.0140192
996.809	0.0140704
996.887	0.0140118
996.965	0.0140449
997.043	0.0140259
997.121	0.0141168
997.200	0.0142015
997.278	0.0140853
997.356	0.0141624
997.434	0.0140093
997.512	0.0139795
997.590	0.0141341
997.668	0.0140623
997.746	0.0140018
997.825	0.0140092
997.903	0.0140025
997.981	0.0139610
998.059	0.0140520
998.137	0.0140054
998.215	0.0141591
998.293	0.0141020
998.371	0.0139111
998.450	0.0139607
998.528	0.0141161
998.606	0.0139033
998.684	0.0140708
998.762	0.0139488
998.840	0.0141946
998.918	0.0140684
