05/04/2022	21:27:13	Ver.	4.1	UNKNOWN
Optical Delay	678.996401	Delta X		0.078125	Sweeps	1	Scan Rate	0/0
Coordinates	Axis 1	NaN	Axis 2	NaN	Axis 3	NaN	Axis 4	NaN	Axis 5	NaN	Axis 6	0.000000
TX Power	0.000000	RX Power	0.000000

678.996	0.0146436
679.075	0.0144700
679.153	0.0144924
679.231	0.0145156
679.309	0.0146162
679.387	0.0145614
679.465	0.0145147
679.543	0.0145802
679.621	0.0145722
679.700	0.0145592
679.778	0.0146989
679.856	0.0145177
679.934	0.0145853
680.012	0.0147618
680.090	0.0148064
680.168	0.0147182
680.246	0.0147702
680.325	0.0147710
680.403	0.0147945
680.481	0.0146264
680.559	0.0145384
680.637	0.0145203
680.715	0.0145429
680.793	0.0145628
680.871	0.0143651
680.950	0.0145948
681.028	0.0145866
681.106	0.0144247
681.184	0.0144561
681.262	0.0143404
681.340	0.0144061
681.418	0.0144112
681.496	0.0144377
681.575	0.0144748
681.653	0.0144775
681.731	0.0146841
681.809	0.0146673
681.887	0.0145541
681.965	0.0145500
682.043	0.0146212
682.121	0.0147062
682.200	0.0145583
682.278	0.0147269
682.356	0.0146605
682.434	0.0146711
682.512	0.0146375
682.590	0.0146283
682.668	0.0146132
682.746	0.0146096
682.825	0.0146494
682.903	0.0147672
682.981	0.0146346
683.059	0.0146245
683.137	0.0146618
683.215	0.0146936
683.293	0.0147506
683.371	0.0145614
683.450	0.0147242
683.528	0.0145873
683.606	0.0147276
683.684	0.0146732
683.762	0.0145943
683.840	0.0145898
683.918	0.0147330
683.996	0.0146474
684.075	0.0147579
684.153	0.0145627
684.231	0.0145884
684.309	0.0146307
684.387	0.0146442
684.465	0.0147772
684.543	0.0145213
684.621	0.0145557
684.700	0.0146488
684.778	0.0146468
684.856	0.0145810
684.934	0.0146774
685.012	0.0146545
685.090	0.0147123
685.168	0.0146848
685.246	0.0146719
685.325	0.0143731
685.403	0.0146277
685.481	0.0147187
685.559	0.0146941
685.637	0.0147150
685.715	0.0146455
685.793	0.0145552
685.871	0.0148337
685.950	0.0147274
686.028	0.0148287
686.106	0.0147005
686.184	0.0147053
686.262	0.0146041
686.340	0.0147402
686.418	0.0147263
686.496	0.0146809
686.575	0.0145308
686.653	0.0144804
686.731	0.0145029
686.809	0.0143890
686.887	0.0144138
686.965	0.0144762
687.043	0.0144056
687.121	0.0144923
687.200	0.0143525
687.278	0.0144859
687.356	0.0145921
687.434	0.0146550
687.512	0.0146838
687.590	0.0147205
687.668	0.0148508
687.746	0.0147335
687.825	0.0147988
687.903	0.0148956
687.981	0.0147705
688.059	0.0148579
688.137	0.0146921
688.215	0.0146967
688.293	0.0145982
688.371	0.0145705
688.450	0.0144483
688.528	0.0145457
688.606	0.0145379
688.684	0.0143841
688.762	0.0143256
688.840	0.0143266
688.918	0.0144688
688.996	0.0144365
689.075	0.0144807
689.153	0.0145992
689.231	0.0145452
689.309	0.0145985
689.387	0.0148554
689.465	0.0147192
689.543	0.0147353
689.621	0.0149253
689.700	0.0149116
689.778	0.0148665
689.856	0.0148723
689.934	0.0149696
690.012	0.0149710
690.090	0.0148356
690.168	0.0149210
690.246	0.0149131
690.325	0.0149497
690.403	0.0149097
690.481	0.0146007
690.559	0.0146600
690.637	0.0146136
690.715	0.0145950
690.793	0.0144059
690.871	0.0142095
690.950	0.0143205
691.028	0.0141844
691.106	0.0141985
691.184	0.0142235
691.262	0.0142439
691.340	0.0143537
691.418	0.0144647
691.496	0.0144943
691.575	0.0147057
691.653	0.0148479
691.731	0.0148619
691.809	0.0148929
691.887	0.0150382
691.965	0.0151422
692.043	0.0151122
692.121	0.0152478
692.200	0.0152837
692.278	0.0151888
692.356	0.0152309
692.434	0.0153018
692.512	0.0152260
692.590	0.0149783
692.668	0.0147838
692.746	0.0147018
692.825	0.0147442
692.903	0.0145405
692.981	0.0144576
693.059	0.0144478
693.137	0.0142648
693.215	0.0141616
693.293	0.0141512
693.371	0.0140681
693.450	0.0141086
693.528	0.0139320
693.606	0.0141006
693.684	0.0141284
693.762	0.0141786
693.840	0.0143189
693.918	0.0143640
693.996	0.0146641
694.075	0.0147318
694.153	0.0149134
694.231	0.0150584
694.309	0.0151652
694.387	0.0152737
694.465	0.0155849
694.543	0.0156954
694.621	0.0156775
694.700	0.0157208
694.778	0.0155277
694.856	0.0154910
694.934	0.0153709
695.012	0.0150750
695.090	0.0147300
695.168	0.0145866
695.246	0.0144054
695.325	0.0141536
695.403	0.0139352
695.481	0.0140104
695.559	0.0137988
695.637	0.0138064
695.715	0.0138905
695.793	0.0139967
695.871	0.0140915
695.950	0.0141468
696.028	0.0142295
696.106	0.0142412
696.184	0.0143552
696.262	0.0144849
696.340	0.0143946
696.418	0.0145068
696.496	0.0146182
696.575	0.0148497
696.653	0.0147546
696.731	0.0149785
696.809	0.0150999
696.887	0.0151560
696.965	0.0151349
697.043	0.0151994
697.121	0.0153943
697.200	0.0154070
697.278	0.0152043
697.356	0.0151958
697.434	0.0151478
697.512	0.0150204
697.590	0.0149130
697.668	0.0149133
697.746	0.0147845
697.825	0.0145953
697.903	0.0144540
697.981	0.0141624
698.059	0.0138324
698.137	0.0138477
698.215	0.0139639
698.293	0.0138686
698.371	0.0139424
698.450	0.0140755
698.528	0.0143090
698.606	0.0143556
698.684	0.0146611
698.762	0.0146872
698.840	0.0148215
698.918	0.0149601
698.996	0.0150997
699.075	0.0151144
699.153	0.0149511
699.231	0.0149001
699.309	0.0146968
699.387	0.0146087
699.465	0.0145663
699.543	0.0146200
699.621	0.0144753
699.700	0.0146043
699.778	0.0145487
699.856	0.0146309
699.934	0.0146480
700.012	0.0147160
700.090	0.0147574
700.168	0.0147188
700.246	0.0147742
700.325	0.0148169
700.403	0.0146555
700.481	0.0145775
700.559	0.0147882
700.637	0.0146333
700.715	0.0146446
700.793	0.0144756
700.871	0.0145364
700.950	0.0146090
701.028	0.0144683
701.106	0.0143230
701.184	0.0144769
701.262	0.0143326
701.340	0.0143185
701.418	0.0143575
701.496	0.0143019
701.575	0.0145017
701.653	0.0146973
701.731	0.0148044
701.809	0.0148753
701.887	0.0149325
701.965	0.0148508
702.043	0.0147798
702.121	0.0148376
702.200	0.0148493
702.278	0.0147192
702.356	0.0146243
702.434	0.0146564
702.512	0.0146864
702.590	0.0146369
702.668	0.0145044
702.746	0.0146881
702.825	0.0146305
702.903	0.0147565
702.981	0.0146728
703.059	0.0144654
703.137	0.0144239
703.215	0.0143871
703.293	0.0143555
703.371	0.0143344
703.450	0.0143102
703.528	0.0143154
703.606	0.0144161
703.684	0.0143988
703.762	0.0145331
703.840	0.0146326
703.918	0.0147466
703.996	0.0148864
704.075	0.0149282
704.153	0.0148129
704.231	0.0150180
704.309	0.0149707
704.387	0.0147590
704.465	0.0149300
704.543	0.0150431
704.621	0.0149090
704.700	0.0147932
704.778	0.0147765
704.856	0.0148822
704.934	0.0148524
705.012	0.0149685
705.090	0.0149112
705.168	0.0149324
705.246	0.0149368
705.325	0.0148609
705.403	0.0148196
705.481	0.0148257
705.559	0.0148810
705.637	0.0147006
705.715	0.0146642
705.793	0.0145334
705.871	0.0143810
705.950	0.0142142
706.028	0.0143409
706.106	0.0140958
706.184	0.0139549
706.262	0.0139787
706.340	0.0139906
706.418	0.0140497
706.496	0.0142094
706.575	0.0143629
706.653	0.0145321
706.731	0.0146779
706.809	0.0147745
706.887	0.0149193
706.965	0.0151833
707.043	0.0154271
707.121	0.0153065
707.200	0.0153143
707.278	0.0153889
707.356	0.0153893
707.434	0.0152384
707.512	0.0150484
707.590	0.0148803
707.668	0.0146819
707.746	0.0146251
707.825	0.0143380
707.903	0.0142355
707.981	0.0141017
708.059	0.0138452
708.137	0.0139220
708.215	0.0139472
708.293	0.0139606
708.371	0.0142042
708.450	0.0142871
708.528	0.0143332
708.606	0.0144232
708.684	0.0146566
708.762	0.0148692
708.840	0.0150047
708.918	0.0151596
708.996	0.0152473
709.075	0.0152666
709.153	0.0153221
709.231	0.0153386
709.309	0.0152071
709.387	0.0150227
709.465	0.0150043
709.543	0.0147893
709.621	0.0146160
709.700	0.0145557
709.778	0.0145258
709.856	0.0142326
709.934	0.0142399
710.012	0.0143093
710.090	0.0142415
710.168	0.0142400
710.246	0.0143414
710.325	0.0145056
710.403	0.0146715
710.481	0.0147842
710.559	0.0146754
710.637	0.0147073
710.715	0.0147006
710.793	0.0147298
710.871	0.0148949
710.950	0.0146771
711.028	0.0146333
711.106	0.0147334
711.184	0.0146975
711.262	0.0147462
711.340	0.0146172
711.418	0.0148532
711.496	0.0147577
711.575	0.0148163
711.653	0.0149448
711.731	0.0149891
711.809	0.0147659
711.887	0.0147617
711.965	0.0147431
712.043	0.0148418
712.121	0.0147042
712.200	0.0146456
712.278	0.0144380
712.356	0.0144477
712.434	0.0145969
712.512	0.0144208
712.590	0.0145322
712.668	0.0144077
712.746	0.0145779
712.825	0.0145058
712.903	0.0145290
712.981	0.0147172
713.059	0.0145901
713.137	0.0146056
713.215	0.0147816
713.293	0.0147774
713.371	0.0149450
713.450	0.0150916
713.528	0.0150906
713.606	0.0151457
713.684	0.0152632
713.762	0.0152193
713.840	0.0151304
713.918	0.0150015
713.996	0.0148779
714.075	0.0148856
714.153	0.0147856
714.231	0.0146735
714.309	0.0146208
714.387	0.0142595
714.465	0.0141857
714.543	0.0141142
714.621	0.0141190
714.700	0.0140384
714.778	0.0139558
714.856	0.0141009
714.934	0.0142587
715.012	0.0142387
715.090	0.0145200
715.168	0.0146217
715.246	0.0147407
715.325	0.0150172
715.403	0.0150120
715.481	0.0150949
715.559	0.0152743
715.637	0.0152286
715.715	0.0152654
715.793	0.0153511
715.871	0.0153160
715.950	0.0152137
716.028	0.0150256
716.106	0.0149657
716.184	0.0148910
716.262	0.0148109
716.340	0.0146655
716.418	0.0144938
716.496	0.0144223
716.575	0.0144852
716.653	0.0143999
716.731	0.0143178
716.809	0.0143779
716.887	0.0145067
716.965	0.0144493
717.043	0.0145290
717.121	0.0145016
717.200	0.0144519
717.278	0.0144801
717.356	0.0146279
717.434	0.0145479
717.512	0.0147137
717.590	0.0147560
717.668	0.0146246
717.746	0.0148112
717.825	0.0149902
717.903	0.0150287
717.981	0.0149044
718.059	0.0149185
718.137	0.0148454
718.215	0.0149463
718.293	0.0149550
718.371	0.0149458
718.450	0.0148715
718.528	0.0148811
718.606	0.0148621
718.684	0.0148867
718.762	0.0148492
718.840	0.0147231
718.918	0.0145589
718.996	0.0145184
719.075	0.0144886
719.153	0.0144817
719.231	0.0142233
719.309	0.0140811
719.387	0.0140740
719.465	0.0141351
719.543	0.0140493
719.621	0.0141417
719.700	0.0139193
719.778	0.0140823
719.856	0.0141622
719.934	0.0142635
720.012	0.0143329
720.090	0.0146227
720.168	0.0146024
720.246	0.0147444
720.325	0.0147879
720.403	0.0150334
720.481	0.0150221
720.559	0.0151123
720.637	0.0151306
720.715	0.0148956
720.793	0.0149603
720.871	0.0151933
720.950	0.0149703
721.028	0.0149546
721.106	0.0148562
721.184	0.0149086
721.262	0.0148765
721.340	0.0147857
721.418	0.0146291
721.496	0.0146182
721.575	0.0145782
721.653	0.0145000
721.731	0.0143671
721.809	0.0144741
721.887	0.0145502
721.965	0.0143233
722.043	0.0144009
722.121	0.0144368
722.200	0.0143019
722.278	0.0142637
722.356	0.0142280
722.434	0.0142682
722.512	0.0142071
722.590	0.0142984
722.668	0.0142364
722.746	0.0143533
722.825	0.0145380
722.903	0.0145932
722.981	0.0146432
723.059	0.0147187
723.137	0.0146616
723.215	0.0149142
723.293	0.0148067
723.371	0.0149431
723.450	0.0149053
723.528	0.0149772
723.606	0.0149326
723.684	0.0148615
723.762	0.0148806
723.840	0.0147435
723.918	0.0148830
723.996	0.0147771
724.075	0.0147111
724.153	0.0147498
724.231	0.0147423
724.309	0.0145695
724.387	0.0146774
724.465	0.0147392
724.543	0.0145378
724.621	0.0145763
724.700	0.0146127
724.778	0.0144100
724.856	0.0144566
724.934	0.0144907
725.012	0.0142654
725.090	0.0141772
725.168	0.0143374
725.246	0.0143017
725.325	0.0142342
725.403	0.0144330
725.481	0.0143623
725.559	0.0144864
725.637	0.0146185
725.715	0.0146428
725.793	0.0147812
725.871	0.0147704
725.950	0.0148397
726.028	0.0147371
726.106	0.0148790
726.184	0.0148798
726.262	0.0147392
726.340	0.0148703
726.418	0.0148772
726.496	0.0148507
726.575	0.0146887
726.653	0.0146093
726.731	0.0144669
726.809	0.0145102
726.887	0.0145006
726.965	0.0143015
727.043	0.0144462
727.121	0.0145592
727.200	0.0143755
727.278	0.0144939
727.356	0.0144389
727.434	0.0145682
727.512	0.0146540
727.590	0.0145536
727.668	0.0146198
727.746	0.0146188
727.825	0.0147810
727.903	0.0148158
727.981	0.0146939
728.059	0.0146371
728.137	0.0147816
728.215	0.0147019
728.293	0.0146684
728.371	0.0147257
728.450	0.0149313
728.528	0.0148919
728.606	0.0148435
728.684	0.0147445
728.762	0.0146700
728.840	0.0148029
728.918	0.0147952
728.996	0.0147105
729.075	0.0146355
729.153	0.0146764
729.231	0.0145313
729.309	0.0145804
729.387	0.0145486
729.465	0.0144251
729.543	0.0144568
729.621	0.0143967
729.700	0.0144690
729.778	0.0142852
729.856	0.0143643
729.934	0.0143552
730.012	0.0143022
730.090	0.0143476
730.168	0.0144492
730.246	0.0145248
730.325	0.0145654
730.403	0.0146431
730.481	0.0145611
730.559	0.0146796
730.637	0.0147728
730.715	0.0147822
730.793	0.0146566
730.871	0.0147203
730.950	0.0148442
731.028	0.0148914
731.106	0.0147601
731.184	0.0148598
731.262	0.0148029
731.340	0.0146856
731.418	0.0147476
731.496	0.0148385
731.575	0.0148104
731.653	0.0146295
731.731	0.0145219
731.809	0.0145744
731.887	0.0145367
731.965	0.0146626
732.043	0.0146108
732.121	0.0145309
732.200	0.0144228
732.278	0.0144522
732.356	0.0144532
732.434	0.0145917
732.512	0.0146554
732.590	0.0146571
732.668	0.0147802
732.746	0.0148370
732.825	0.0148444
732.903	0.0147549
732.981	0.0147436
733.059	0.0148473
733.137	0.0149179
733.215	0.0148954
733.293	0.0147652
733.371	0.0148230
733.450	0.0148610
733.528	0.0148157
733.606	0.0146982
733.684	0.0147390
733.762	0.0148433
733.840	0.0146395
733.918	0.0145933
733.996	0.0144091
734.075	0.0144749
734.153	0.0143665
734.231	0.0143445
734.309	0.0144221
734.387	0.0143562
734.465	0.0143508
734.543	0.0144398
734.621	0.0143993
734.700	0.0144530
734.778	0.0146269
734.856	0.0146246
734.934	0.0146165
735.012	0.0147036
735.090	0.0148045
735.168	0.0148350
735.246	0.0149496
735.325	0.0149651
735.403	0.0149623
735.481	0.0150272
735.559	0.0149773
735.637	0.0150215
735.715	0.0150073
735.793	0.0150372
735.871	0.0151128
735.950	0.0150700
736.028	0.0149303
736.106	0.0147975
736.184	0.0147063
736.262	0.0147686
736.340	0.0147636
736.418	0.0145172
736.496	0.0145615
736.575	0.0146238
736.653	0.0144561
736.731	0.0143291
736.809	0.0142844
736.887	0.0142384
736.965	0.0143198
737.043	0.0142580
737.121	0.0143269
737.200	0.0144152
737.278	0.0143349
737.356	0.0144164
737.434	0.0146018
737.512	0.0145386
737.590	0.0144479
737.668	0.0146387
737.746	0.0147511
737.825	0.0147004
737.903	0.0146986
737.981	0.0147485
738.059	0.0148550
738.137	0.0148375
738.215	0.0148496
738.293	0.0148207
738.371	0.0149036
738.450	0.0148950
738.528	0.0148554
738.606	0.0149561
738.684	0.0147816
738.762	0.0146420
738.840	0.0147345
738.918	0.0146142
738.996	0.0145428
739.075	0.0144257
739.153	0.0144936
739.231	0.0144077
739.309	0.0144862
739.387	0.0144505
739.465	0.0143857
739.543	0.0143442
739.621	0.0143928
739.700	0.0144661
739.778	0.0145261
739.856	0.0146408
739.934	0.0145367
740.012	0.0145586
740.090	0.0146359
740.168	0.0147678
740.246	0.0146585
740.325	0.0146468
740.403	0.0147816
740.481	0.0148132
740.559	0.0148894
740.637	0.0148698
740.715	0.0148452
740.793	0.0148702
740.871	0.0146819
740.950	0.0146749
741.028	0.0147914
741.106	0.0148119
741.184	0.0146162
741.262	0.0146514
741.340	0.0145196
741.418	0.0145438
741.496	0.0145321
741.575	0.0144189
741.653	0.0144469
741.731	0.0144668
741.809	0.0144518
741.887	0.0144611
741.965	0.0144451
742.043	0.0144977
742.121	0.0147047
742.200	0.0146067
742.278	0.0146291
742.356	0.0146239
742.434	0.0145839
742.512	0.0145684
742.590	0.0145420
742.668	0.0145921
742.746	0.0146318
742.825	0.0145995
742.903	0.0146928
742.981	0.0147639
743.059	0.0147129
743.137	0.0147550
743.215	0.0147562
743.293	0.0146094
743.371	0.0146414
743.450	0.0149486
743.528	0.0147128
743.606	0.0147167
743.684	0.0146969
743.762	0.0145414
743.840	0.0145898
743.918	0.0145020
743.996	0.0146380
744.075	0.0145971
744.153	0.0146342
744.231	0.0145502
744.309	0.0144152
744.387	0.0144899
744.465	0.0145979
744.543	0.0145556
744.621	0.0146424
744.700	0.0145781
744.778	0.0147137
744.856	0.0144511
744.934	0.0145294
745.012	0.0146739
745.090	0.0146791
745.168	0.0147270
745.246	0.0146259
745.325	0.0145636
745.403	0.0147218
745.481	0.0147041
745.559	0.0148540
745.637	0.0145992
745.715	0.0146373
745.793	0.0145679
745.871	0.0144350
745.950	0.0146021
746.028	0.0146454
746.106	0.0145377
746.184	0.0145397
746.262	0.0144550
746.340	0.0143597
746.418	0.0143530
746.496	0.0146534
746.575	0.0144810
746.653	0.0144643
746.731	0.0145541
746.809	0.0144238
746.887	0.0145785
746.965	0.0144889
747.043	0.0143813
747.121	0.0144267
747.200	0.0144318
747.278	0.0144427
747.356	0.0145528
747.434	0.0144843
747.512	0.0145229
747.590	0.0145338
747.668	0.0144300
747.746	0.0145228
747.825	0.0144755
747.903	0.0145112
747.981	0.0146306
748.059	0.0146416
748.137	0.0146738
748.215	0.0146905
748.293	0.0147200
748.371	0.0147319
748.450	0.0147546
748.528	0.0147797
748.606	0.0147845
748.684	0.0147354
748.762	0.0148203
748.840	0.0148413
748.918	0.0145722
748.996	0.0145116
749.075	0.0147325
749.153	0.0148082
749.231	0.0147382
749.309	0.0146555
749.387	0.0145919
749.465	0.0146845
749.543	0.0146804
749.621	0.0146954
749.700	0.0145454
749.778	0.0145747
749.856	0.0146808
749.934	0.0145596
750.012	0.0145401
750.090	0.0146766
750.168	0.0146678
750.246	0.0145329
750.325	0.0147255
750.403	0.0147296
750.481	0.0145430
750.559	0.0146127
750.637	0.0146365
750.715	0.0146527
750.793	0.0146594
750.871	0.0145943
750.950	0.0148561
751.028	0.0146870
751.106	0.0146197
751.184	0.0146890
751.262	0.0146196
751.340	0.0147787
751.418	0.0146236
751.496	0.0146857
751.575	0.0146661
751.653	0.0147276
751.731	0.0146295
751.809	0.0146369
751.887	0.0145797
751.965	0.0146781
752.043	0.0147241
752.121	0.0146586
752.200	0.0146560
752.278	0.0147774
752.356	0.0147349
752.434	0.0148444
752.512	0.0147517
752.590	0.0148601
752.668	0.0147138
752.746	0.0148309
752.825	0.0148354
752.903	0.0146964
752.981	0.0146822
753.059	0.0148382
753.137	0.0148221
753.215	0.0148191
753.293	0.0148491
753.371	0.0147990
753.450	0.0148608
753.528	0.0148109
753.606	0.0147523
753.684	0.0146900
753.762	0.0146610
753.840	0.0146156
753.918	0.0148546
753.996	0.0147478
754.075	0.0146152
754.153	0.0147978
754.231	0.0147619
754.309	0.0147341
754.387	0.0146101
754.465	0.0146677
754.543	0.0145361
754.621	0.0144654
754.700	0.0146229
754.778	0.0145139
754.856	0.0145345
754.934	0.0145149
755.012	0.0144855
755.090	0.0145314
755.168	0.0144779
755.246	0.0145889
755.325	0.0146338
755.403	0.0145066
755.481	0.0146421
755.559	0.0146889
755.637	0.0146197
755.715	0.0147711
755.793	0.0146163
755.871	0.0147076
755.950	0.0147729
756.028	0.0147902
756.106	0.0147508
756.184	0.0147871
756.262	0.0148689
756.340	0.0148735
756.418	0.0148801
756.496	0.0148349
756.575	0.0147630
756.653	0.0147569
756.731	0.0147769
756.809	0.0146873
756.887	0.0147268
756.965	0.0147213
757.043	0.0146594
757.121	0.0146480
757.200	0.0145923
757.278	0.0147095
757.356	0.0146206
757.434	0.0145940
757.512	0.0146082
757.590	0.0146391
757.668	0.0144782
757.746	0.0145499
757.825	0.0146082
757.903	0.0146429
757.981	0.0146732
758.059	0.0145368
758.137	0.0146122
758.215	0.0146681
758.293	0.0147587
758.371	0.0148044
758.450	0.0147103
758.528	0.0147485
758.606	0.0149523
758.684	0.0146713
758.762	0.0146310
758.840	0.0146706
758.918	0.0148891
758.996	0.0147017
759.075	0.0146517
759.153	0.0145485
759.231	0.0146277
759.309	0.0146728
759.387	0.0145513
759.465	0.0145509
759.543	0.0145283
759.621	0.0146702
759.700	0.0146283
759.778	0.0146741
759.856	0.0145733
759.934	0.0145661
760.012	0.0147021
760.090	0.0146175
760.168	0.0146503
760.246	0.0145621
760.325	0.0146664
760.403	0.0147524
760.481	0.0147059
760.559	0.0148257
760.637	0.0148304
760.715	0.0148100
760.793	0.0146920
760.871	0.0147920
760.950	0.0147444
761.028	0.0147082
761.106	0.0147704
761.184	0.0147551
761.262	0.0146848
761.340	0.0146342
761.418	0.0147105
761.496	0.0146308
761.575	0.0147287
761.653	0.0146773
761.731	0.0145077
761.809	0.0146804
761.887	0.0147442
761.965	0.0146461
762.043	0.0145293
762.121	0.0145198
762.200	0.0144771
762.278	0.0145193
762.356	0.0146071
762.434	0.0144981
762.512	0.0144467
762.590	0.0144930
762.668	0.0143968
762.746	0.0145706
762.825	0.0145446
762.903	0.0146162
762.981	0.0144629
763.059	0.0144781
763.137	0.0144140
763.215	0.0144878
763.293	0.0145664
763.371	0.0145779
763.450	0.0145676
763.528	0.0146228
763.606	0.0146708
763.684	0.0145390
763.762	0.0145400
763.840	0.0146426
763.918	0.0145325
763.996	0.0144668
764.075	0.0145345
764.153	0.0145450
764.231	0.0145119
764.309	0.0144607
764.387	0.0143858
764.465	0.0144448
764.543	0.0144730
764.621	0.0144802
764.700	0.0144444
764.778	0.0145609
764.856	0.0144608
764.934	0.0145942
765.012	0.0146184
765.090	0.0145487
765.168	0.0143706
765.246	0.0144899
765.325	0.0145412
765.403	0.0145171
765.481	0.0145970
765.559	0.0145845
765.637	0.0146794
765.715	0.0145944
765.793	0.0145217
765.871	0.0145240
765.950	0.0145844
766.028	0.0146630
766.106	0.0144448
766.184	0.0146139
766.262	0.0146288
766.340	0.0145171
766.418	0.0145907
766.496	0.0145834
766.575	0.0145743
766.653	0.0145702
766.731	0.0144988
766.809	0.0145445
766.887	0.0144794
766.965	0.0145204
767.043	0.0146664
767.121	0.0145940
767.200	0.0145849
767.278	0.0145757
767.356	0.0145348
767.434	0.0145112
767.512	0.0145304
767.590	0.0144716
767.668	0.0146802
767.746	0.0144535
767.825	0.0145595
767.903	0.0144791
767.981	0.0145156
768.059	0.0146307
768.137	0.0144332
768.215	0.0143613
768.293	0.0145959
768.371	0.0146152
768.450	0.0145204
768.528	0.0144823
768.606	0.0146135
768.684	0.0145707
768.762	0.0145535
768.840	0.0145497
768.918	0.0145773
768.996	0.0145973
769.075	0.0146549
769.153	0.0145825
769.231	0.0146043
769.309	0.0148103
769.387	0.0146777
769.465	0.0146841
769.543	0.0145240
769.621	0.0145422
769.700	0.0145874
769.778	0.0146826
769.856	0.0146299
769.934	0.0146132
770.012	0.0146307
770.090	0.0147255
770.168	0.0146623
770.246	0.0146963
770.325	0.0144121
770.403	0.0145628
770.481	0.0146385
770.559	0.0146909
770.637	0.0145813
770.715	0.0145670
770.793	0.0146644
770.871	0.0145020
770.950	0.0146559
771.028	0.0147150
771.106	0.0147784
771.184	0.0147233
771.262	0.0146025
771.340	0.0146663
771.418	0.0147142
771.496	0.0147293
771.575	0.0146647
771.653	0.0146659
771.731	0.0146461
771.809	0.0145223
771.887	0.0146088
771.965	0.0146410
772.043	0.0146375
772.121	0.0144725
772.200	0.0145249
772.278	0.0146723
772.356	0.0146101
772.434	0.0145656
772.512	0.0145283
772.590	0.0145644
772.668	0.0145337
772.746	0.0146803
772.825	0.0145686
772.903	0.0145577
772.981	0.0146453
773.059	0.0146078
773.137	0.0147639
773.215	0.0148241
773.293	0.0147045
773.371	0.0147137
773.450	0.0147440
773.528	0.0146810
773.606	0.0146323
773.684	0.0147426
773.762	0.0147276
773.840	0.0147243
773.918	0.0146891
773.996	0.0146813
774.075	0.0146661
774.153	0.0146854
774.231	0.0147599
774.309	0.0146511
774.387	0.0147992
774.465	0.0145487
774.543	0.0145789
774.621	0.0147462
774.700	0.0147951
774.778	0.0146745
774.856	0.0146907
774.934	0.0146824
775.012	0.0147117
775.090	0.0147816
775.168	0.0149037
775.246	0.0148042
775.325	0.0148284
775.403	0.0147826
775.481	0.0146182
775.559	0.0147592
775.637	0.0146626
775.715	0.0147462
775.793	0.0146897
775.871	0.0146902
775.950	0.0147068
776.028	0.0146329
776.106	0.0146227
776.184	0.0145669
776.262	0.0146758
776.340	0.0145639
776.418	0.0147164
776.496	0.0145975
776.575	0.0146030
776.653	0.0146941
776.731	0.0147669
776.809	0.0147533
776.887	0.0145921
776.965	0.0146799
777.043	0.0146762
777.121	0.0147411
777.200	0.0146234
777.278	0.0145445
777.356	0.0147391
777.434	0.0146703
777.512	0.0145301
777.590	0.0146046
777.668	0.0145852
777.746	0.0145477
777.825	0.0145290
777.903	0.0145165
777.981	0.0147248
778.059	0.0147317
778.137	0.0146923
778.215	0.0147093
778.293	0.0147015
778.371	0.0146945
778.450	0.0146405
778.528	0.0147721
778.606	0.0145613
778.684	0.0147355
778.762	0.0147797
778.840	0.0147562
778.918	0.0147549
778.996	0.0147975
779.075	0.0146586
779.153	0.0146868
779.231	0.0148580
779.309	0.0147502
779.387	0.0145882
779.465	0.0145934
779.543	0.0147009
779.621	0.0148329
779.700	0.0148544
779.778	0.0146554
779.856	0.0144841
779.934	0.0146451
780.012	0.0145877
780.090	0.0145117
780.168	0.0145561
780.246	0.0147693
780.325	0.0146499
780.403	0.0145412
780.481	0.0146272
780.559	0.0146753
780.637	0.0146354
780.715	0.0145186
780.793	0.0146410
780.871	0.0144823
780.950	0.0147630
781.028	0.0147263
781.106	0.0146347
781.184	0.0147320
781.262	0.0146297
781.340	0.0147384
781.418	0.0148309
781.496	0.0147442
781.575	0.0146954
781.653	0.0145959
781.731	0.0145166
781.809	0.0145719
781.887	0.0146217
781.965	0.0144651
782.043	0.0146773
782.121	0.0146349
782.200	0.0145863
782.278	0.0145804
782.356	0.0146080
782.434	0.0146552
782.512	0.0146275
782.590	0.0145330
782.668	0.0146931
782.746	0.0146913
782.825	0.0148192
782.903	0.0147385
782.981	0.0147649
783.059	0.0147150
783.137	0.0147943
783.215	0.0147025
783.293	0.0146679
783.371	0.0146492
783.450	0.0147375
783.528	0.0147234
783.606	0.0148045
783.684	0.0148389
783.762	0.0146143
783.840	0.0145878
783.918	0.0147085
783.996	0.0146189
784.075	0.0145895
784.153	0.0147405
784.231	0.0147047
784.309	0.0146277
784.387	0.0145193
784.465	0.0147037
784.543	0.0146224
784.621	0.0145841
784.700	0.0146299
784.778	0.0145062
784.856	0.0146600
784.934	0.0146366
785.012	0.0145255
785.090	0.0146192
785.168	0.0145765
785.246	0.0144858
785.325	0.0147444
785.403	0.0147441
785.481	0.0146768
785.559	0.0146500
785.637	0.0147108
785.715	0.0147514
785.793	0.0144800
785.871	0.0147026
785.950	0.0146748
786.028	0.0146229
786.106	0.0146242
786.184	0.0146790
786.262	0.0145733
786.340	0.0146965
786.418	0.0146613
786.496	0.0145977
786.575	0.0146302
786.653	0.0145157
786.731	0.0145808
786.809	0.0146967
786.887	0.0146782
786.965	0.0146896
787.043	0.0147104
787.121	0.0147456
787.200	0.0146178
787.278	0.0147111
787.356	0.0145203
787.434	0.0145091
787.512	0.0147054
787.590	0.0147932
787.668	0.0147683
787.746	0.0146381
787.825	0.0148197
787.903	0.0146659
787.981	0.0146424
788.059	0.0145966
788.137	0.0146503
788.215	0.0146946
788.293	0.0145965
788.371	0.0148174
788.450	0.0146495
788.528	0.0146425
788.606	0.0147325
788.684	0.0146326
788.762	0.0146268
788.840	0.0145508
788.918	0.0146452
788.996	0.0146535
789.075	0.0145952
789.153	0.0146059
789.231	0.0146436
789.309	0.0146453
789.387	0.0145625
789.465	0.0145142
789.543	0.0145352
789.621	0.0145554
789.700	0.0146921
789.778	0.0145051
789.856	0.0145719
789.934	0.0146008
790.012	0.0145630
790.090	0.0146470
790.168	0.0147861
790.246	0.0147356
790.325	0.0146440
790.403	0.0145493
790.481	0.0148093
790.559	0.0146177
790.637	0.0145832
790.715	0.0146648
790.793	0.0146122
790.871	0.0145274
790.950	0.0145560
791.028	0.0146024
791.106	0.0146152
791.184	0.0145914
791.262	0.0145821
791.340	0.0145455
791.418	0.0146489
791.496	0.0146131
791.575	0.0145492
791.653	0.0146374
791.731	0.0145780
791.809	0.0146745
791.887	0.0147746
791.965	0.0146856
792.043	0.0146668
792.121	0.0146375
792.200	0.0146165
792.278	0.0147543
792.356	0.0147996
792.434	0.0148163
792.512	0.0147334
792.590	0.0146371
792.668	0.0146689
792.746	0.0146938
792.825	0.0146634
792.903	0.0147384
792.981	0.0148129
793.059	0.0147112
793.137	0.0146588
793.215	0.0146478
793.293	0.0146535
793.371	0.0147227
793.450	0.0146435
793.528	0.0146214
793.606	0.0146671
793.684	0.0146358
793.762	0.0146497
793.840	0.0146054
793.918	0.0147103
793.996	0.0144366
794.075	0.0144761
794.153	0.0145865
794.231	0.0146402
794.309	0.0146610
794.387	0.0146945
794.465	0.0146391
794.543	0.0145627
794.621	0.0145323
794.700	0.0146365
794.778	0.0145181
794.856	0.0148218
794.934	0.0147514
795.012	0.0146894
795.090	0.0147175
795.168	0.0147669
795.246	0.0147356
795.325	0.0146278
795.403	0.0146727
795.481	0.0146553
795.559	0.0146809
795.637	0.0147199
795.715	0.0146632
795.793	0.0145377
795.871	0.0144847
795.950	0.0145924
796.028	0.0145638
796.106	0.0146786
796.184	0.0146220
796.262	0.0146413
796.340	0.0145184
796.418	0.0145875
796.496	0.0147207
796.575	0.0146426
796.653	0.0146531
796.731	0.0145733
796.809	0.0146053
796.887	0.0146221
796.965	0.0146034
797.043	0.0146269
797.121	0.0146168
797.200	0.0146629
797.278	0.0146648
797.356	0.0147491
797.434	0.0145770
797.512	0.0146812
797.590	0.0147476
797.668	0.0145310
797.746	0.0145121
797.825	0.0147149
797.903	0.0147144
797.981	0.0146749
798.059	0.0146275
798.137	0.0146102
798.215	0.0146367
798.293	0.0145501
798.371	0.0145953
798.450	0.0146342
798.528	0.0145043
798.606	0.0147406
798.684	0.0145922
798.762	0.0145721
798.840	0.0144852
798.918	0.0145667
798.996	0.0143650
799.075	0.0144667
799.153	0.0144054
799.231	0.0145916
799.309	0.0145094
799.387	0.0146258
799.465	0.0146786
799.543	0.0144947
799.621	0.0144519
799.700	0.0145879
799.778	0.0145606
799.856	0.0145664
799.934	0.0145402
800.012	0.0145789
800.090	0.0146649
800.168	0.0146754
800.246	0.0146283
800.325	0.0146265
800.403	0.0146286
800.481	0.0147579
800.559	0.0145846
800.637	0.0145905
800.715	0.0146622
800.793	0.0146455
800.871	0.0146150
800.950	0.0145633
801.028	0.0144746
801.106	0.0145731
801.184	0.0146243
801.262	0.0146600
801.340	0.0144820
801.418	0.0145285
801.496	0.0145310
801.575	0.0145620
801.653	0.0145434
801.731	0.0145924
801.809	0.0146111
801.887	0.0146192
801.965	0.0146687
802.043	0.0147024
802.121	0.0146676
802.200	0.0146760
802.278	0.0146091
802.356	0.0147171
802.434	0.0148362
802.512	0.0145197
802.590	0.0146139
802.668	0.0146129
802.746	0.0146208
802.825	0.0146035
802.903	0.0147813
802.981	0.0147060
803.059	0.0145280
803.137	0.0146635
803.215	0.0146429
803.293	0.0146612
803.371	0.0146766
803.450	0.0145930
803.528	0.0146266
803.606	0.0146051
803.684	0.0145879
803.762	0.0144957
803.840	0.0146908
803.918	0.0145919
803.996	0.0147064
804.075	0.0146478
804.153	0.0146106
804.231	0.0145739
804.309	0.0145203
804.387	0.0145441
804.465	0.0145478
804.543	0.0146169
804.621	0.0147901
804.700	0.0146427
804.778	0.0145999
804.856	0.0148129
804.934	0.0146842
805.012	0.0146599
805.090	0.0146411
805.168	0.0147742
805.246	0.0147958
805.325	0.0147663
805.403	0.0147592
805.481	0.0147190
805.559	0.0146217
805.637	0.0147116
805.715	0.0146985
805.793	0.0147530
805.871	0.0145672
805.950	0.0147633
806.028	0.0146791
806.106	0.0146605
806.184	0.0146775
806.262	0.0146404
806.340	0.0147301
806.418	0.0148544
806.496	0.0146897
806.575	0.0146926
806.653	0.0146936
806.731	0.0145749
806.809	0.0145944
806.887	0.0147157
806.965	0.0146979
807.043	0.0145669
807.121	0.0146610
807.200	0.0146224
807.278	0.0147176
807.356	0.0145895
807.434	0.0147314
807.512	0.0146035
807.590	0.0146407
807.668	0.0146609
807.746	0.0145843
807.825	0.0146376
807.903	0.0146825
807.981	0.0147276
808.059	0.0148544
808.137	0.0147839
808.215	0.0146584
808.293	0.0147246
808.371	0.0146931
808.450	0.0146490
808.528	0.0147021
808.606	0.0147732
808.684	0.0145942
808.762	0.0146827
808.840	0.0149469
808.918	0.0144936
808.996	0.0146602
809.075	0.0146520
809.153	0.0146386
809.231	0.0145753
809.309	0.0147208
809.387	0.0148287
809.465	0.0146730
809.543	0.0147879
809.621	0.0147486
809.700	0.0146961
809.778	0.0146839
809.856	0.0147453
809.934	0.0146272
810.012	0.0147643
810.090	0.0146729
810.168	0.0148206
810.246	0.0148958
810.325	0.0147962
810.403	0.0146775
810.481	0.0147295
810.559	0.0148551
810.637	0.0147960
810.715	0.0147636
810.793	0.0147933
810.871	0.0147022
810.950	0.0147372
811.028	0.0145459
811.106	0.0147080
811.184	0.0147280
811.262	0.0146703
811.340	0.0146159
811.418	0.0147337
811.496	0.0146977
811.575	0.0146863
811.653	0.0146541
811.731	0.0146440
811.809	0.0145632
811.887	0.0145928
811.965	0.0146793
812.043	0.0146758
812.121	0.0147439
812.200	0.0145821
812.278	0.0146647
812.356	0.0146037
812.434	0.0145984
812.512	0.0147517
812.590	0.0146794
812.668	0.0146359
812.746	0.0147495
812.825	0.0147354
812.903	0.0146311
812.981	0.0144956
813.059	0.0147561
813.137	0.0147184
813.215	0.0146964
813.293	0.0147295
813.371	0.0147190
813.450	0.0146957
813.528	0.0146305
813.606	0.0146646
813.684	0.0146660
813.762	0.0146363
813.840	0.0147327
813.918	0.0147253
813.996	0.0148633
814.075	0.0147399
814.153	0.0147425
814.231	0.0145114
814.309	0.0146450
814.387	0.0146487
814.465	0.0147415
814.543	0.0147345
814.621	0.0147147
814.700	0.0146209
814.778	0.0146260
814.856	0.0148472
814.934	0.0147272
815.012	0.0146692
815.090	0.0146268
815.168	0.0146033
815.246	0.0147343
815.325	0.0145346
815.403	0.0145795
815.481	0.0146194
815.559	0.0146317
815.637	0.0146939
815.715	0.0146528
815.793	0.0147179
815.871	0.0148820
815.950	0.0146793
816.028	0.0146873
816.106	0.0148295
816.184	0.0147503
816.262	0.0147402
816.340	0.0147755
816.418	0.0146302
816.496	0.0146421
816.575	0.0145860
816.653	0.0147277
816.731	0.0145718
816.809	0.0145697
816.887	0.0147453
816.965	0.0146188
817.043	0.0147742
817.121	0.0147490
817.200	0.0146717
817.278	0.0146434
817.356	0.0146429
817.434	0.0147643
817.512	0.0147168
817.590	0.0146414
817.668	0.0146272
817.746	0.0146853
817.825	0.0147730
817.903	0.0147225
817.981	0.0145542
818.059	0.0147297
818.137	0.0146675
818.215	0.0146255
818.293	0.0146791
818.371	0.0146803
818.450	0.0146066
818.528	0.0146270
818.606	0.0147441
818.684	0.0147033
818.762	0.0148016
818.840	0.0146468
818.918	0.0145901
818.996	0.0147050
819.075	0.0147132
819.153	0.0147430
819.231	0.0147337
819.309	0.0147755
819.387	0.0147990
819.465	0.0147610
819.543	0.0146890
819.621	0.0148591
819.700	0.0147767
819.778	0.0147278
819.856	0.0147682
819.934	0.0146613
820.012	0.0145825
820.090	0.0145692
820.168	0.0147001
820.246	0.0146090
820.325	0.0146796
820.403	0.0146804
820.481	0.0147541
820.559	0.0146938
820.637	0.0145206
820.715	0.0145100
820.793	0.0146744
820.871	0.0147956
820.950	0.0145338
821.028	0.0145874
821.106	0.0145575
821.184	0.0146476
821.262	0.0145451
821.340	0.0145454
821.418	0.0146487
821.496	0.0146180
821.575	0.0146518
821.653	0.0146595
821.731	0.0145889
821.809	0.0144917
821.887	0.0145979
821.965	0.0146347
822.043	0.0145239
822.121	0.0145999
822.200	0.0146066
822.278	0.0146118
822.356	0.0146078
822.434	0.0147085
822.512	0.0147687
822.590	0.0146638
822.668	0.0146422
822.746	0.0146100
822.825	0.0144866
822.903	0.0145373
822.981	0.0146196
823.059	0.0145688
823.137	0.0145385
823.215	0.0145811
823.293	0.0146775
823.371	0.0145464
823.450	0.0146314
823.528	0.0145598
823.606	0.0147665
823.684	0.0147154
823.762	0.0145557
823.840	0.0145564
823.918	0.0145326
823.996	0.0146696
824.075	0.0145982
824.153	0.0147952
824.231	0.0145128
824.309	0.0144813
824.387	0.0145714
824.465	0.0146048
824.543	0.0146638
824.621	0.0146410
824.700	0.0145184
824.778	0.0146517
824.856	0.0145746
824.934	0.0145621
825.012	0.0146157
825.090	0.0145303
825.168	0.0146275
825.246	0.0145607
825.325	0.0144518
825.403	0.0145308
825.481	0.0144443
825.559	0.0144231
825.637	0.0143852
825.715	0.0144251
825.793	0.0145644
825.871	0.0145158
825.950	0.0144425
826.028	0.0144005
826.106	0.0146587
826.184	0.0145437
826.262	0.0145132
826.340	0.0145801
826.418	0.0146568
826.496	0.0144958
826.575	0.0145921
826.653	0.0144786
826.731	0.0144954
826.809	0.0144823
826.887	0.0146017
826.965	0.0145665
827.043	0.0146089
827.121	0.0146688
827.200	0.0145050
827.278	0.0146194
827.356	0.0146530
827.434	0.0146786
827.512	0.0145535
827.590	0.0145605
827.668	0.0145645
827.746	0.0147165
827.825	0.0146272
827.903	0.0146622
827.981	0.0147416
828.059	0.0146390
828.137	0.0145389
828.215	0.0145149
828.293	0.0145835
828.371	0.0146923
828.450	0.0146119
828.528	0.0145013
828.606	0.0145561
828.684	0.0145145
828.762	0.0145947
828.840	0.0144978
828.918	0.0145715
828.996	0.0146078
829.075	0.0146447
829.153	0.0147009
829.231	0.0146483
829.309	0.0144749
829.387	0.0145372
829.465	0.0146246
829.543	0.0147073
829.621	0.0146884
829.700	0.0145576
829.778	0.0145875
829.856	0.0146871
829.934	0.0146333
830.012	0.0144893
830.090	0.0146792
830.168	0.0144982
830.246	0.0147519
830.325	0.0145796
830.403	0.0146378
830.481	0.0145433
830.559	0.0146629
830.637	0.0146845
830.715	0.0145831
830.793	0.0147200
830.871	0.0144888
830.950	0.0146378
831.028	0.0146146
831.106	0.0145399
831.184	0.0145367
831.262	0.0146917
831.340	0.0147018
831.418	0.0146165
831.496	0.0147150
831.575	0.0147257
831.653	0.0148534
831.731	0.0146883
831.809	0.0145670
831.887	0.0146338
831.965	0.0145859
832.043	0.0146858
832.121	0.0146030
832.200	0.0145535
832.278	0.0146747
832.356	0.0146922
832.434	0.0146220
832.512	0.0146489
832.590	0.0147710
832.668	0.0145907
832.746	0.0146263
832.825	0.0145679
832.903	0.0145804
832.981	0.0146091
833.059	0.0146262
833.137	0.0145670
833.215	0.0145393
833.293	0.0146058
833.371	0.0146790
833.450	0.0147110
833.528	0.0146516
833.606	0.0147169
833.684	0.0146864
833.762	0.0146661
833.840	0.0146130
833.918	0.0146782
833.996	0.0146111
834.075	0.0145914
834.153	0.0146639
834.231	0.0146973
834.309	0.0147701
834.387	0.0147870
834.465	0.0146925
834.543	0.0146770
834.621	0.0147617
834.700	0.0146433
834.778	0.0147124
834.856	0.0147424
834.934	0.0147476
835.012	0.0146590
835.090	0.0146656
835.168	0.0146594
835.246	0.0145782
835.325	0.0146858
835.403	0.0147321
835.481	0.0146834
835.559	0.0146029
835.637	0.0146564
835.715	0.0147195
835.793	0.0147153
835.871	0.0146606
835.950	0.0146832
836.028	0.0146068
836.106	0.0147141
836.184	0.0147623
836.262	0.0147630
836.340	0.0147422
836.418	0.0148344
836.496	0.0146681
836.575	0.0148227
836.653	0.0148196
836.731	0.0148248
836.809	0.0148131
836.887	0.0148498
836.965	0.0148965
837.043	0.0147946
837.121	0.0147142
837.200	0.0148018
837.278	0.0146310
837.356	0.0146790
837.434	0.0147502
837.512	0.0147042
837.590	0.0147098
837.668	0.0147020
837.746	0.0145434
837.825	0.0145473
837.903	0.0147888
837.981	0.0147090
838.059	0.0145861
838.137	0.0145795
838.215	0.0146059
838.293	0.0146233
838.371	0.0146361
838.450	0.0148327
838.528	0.0146768
838.606	0.0145586
838.684	0.0147430
838.762	0.0148469
838.840	0.0146566
838.918	0.0146058
838.996	0.0145955
839.075	0.0145649
839.153	0.0146107
839.231	0.0147210
839.309	0.0146725
839.387	0.0147654
839.465	0.0147557
839.543	0.0146663
839.621	0.0147076
839.700	0.0145940
839.778	0.0148042
839.856	0.0147391
839.934	0.0146354
840.012	0.0147005
840.090	0.0147099
840.168	0.0148038
840.246	0.0147684
840.325	0.0146037
840.403	0.0145434
840.481	0.0145911
840.559	0.0145355
840.637	0.0146810
840.715	0.0145874
840.793	0.0145718
840.871	0.0147648
840.950	0.0146026
841.028	0.0145708
841.106	0.0145944
841.184	0.0145762
841.262	0.0145863
841.340	0.0147113
841.418	0.0145302
841.496	0.0146397
841.575	0.0147867
841.653	0.0147176
841.731	0.0147525
841.809	0.0147195
841.887	0.0147253
841.965	0.0147687
842.043	0.0147504
842.121	0.0148860
842.200	0.0145604
842.278	0.0145996
842.356	0.0146897
842.434	0.0146507
842.512	0.0145985
842.590	0.0146240
842.668	0.0146309
842.746	0.0147522
842.825	0.0146081
842.903	0.0144495
842.981	0.0146114
843.059	0.0145847
843.137	0.0145723
843.215	0.0145065
843.293	0.0146395
843.371	0.0144905
843.450	0.0146590
843.528	0.0145931
843.606	0.0145899
843.684	0.0146487
843.762	0.0145140
843.840	0.0146500
843.918	0.0147247
843.996	0.0147936
844.075	0.0148741
844.153	0.0147539
844.231	0.0146588
844.309	0.0146971
844.387	0.0147040
844.465	0.0145769
844.543	0.0146822
844.621	0.0146471
844.700	0.0148213
844.778	0.0146873
844.856	0.0146893
844.934	0.0144849
845.012	0.0145059
845.090	0.0146442
845.168	0.0147782
845.246	0.0145959
845.325	0.0146383
845.403	0.0147239
845.481	0.0146656
845.559	0.0146208
845.637	0.0146819
845.715	0.0146196
845.793	0.0145695
845.871	0.0146845
845.950	0.0146792
846.028	0.0145957
846.106	0.0146107
846.184	0.0144844
846.262	0.0145903
846.340	0.0146239
846.418	0.0146196
846.496	0.0145098
846.575	0.0145675
846.653	0.0145762
846.731	0.0144038
846.809	0.0144850
846.887	0.0145211
846.965	0.0144994
847.043	0.0144012
847.121	0.0145895
847.200	0.0146239
847.278	0.0145074
847.356	0.0145898
847.434	0.0146975
847.512	0.0147130
847.590	0.0145034
847.668	0.0146014
847.746	0.0146043
847.825	0.0147903
847.903	0.0147710
847.981	0.0146069
848.059	0.0145470
848.137	0.0144932
848.215	0.0144861
848.293	0.0147686
848.371	0.0146827
848.450	0.0146142
848.528	0.0145899
848.606	0.0146026
848.684	0.0145920
848.762	0.0144347
848.840	0.0146646
848.918	0.0144817
848.996	0.0144017
849.075	0.0144282
849.153	0.0145718
849.231	0.0145692
849.309	0.0145094
849.387	0.0144922
849.465	0.0146673
849.543	0.0146107
849.621	0.0145094
849.700	0.0146762
849.778	0.0146259
849.856	0.0144690
849.934	0.0146243
850.012	0.0146107
850.090	0.0146357
850.168	0.0146671
850.246	0.0145527
850.325	0.0145364
850.403	0.0145287
850.481	0.0146383
850.559	0.0146588
850.637	0.0146534
850.715	0.0146038
850.793	0.0146468
850.871	0.0147118
850.950	0.0146441
851.028	0.0145088
851.106	0.0145966
851.184	0.0145794
851.262	0.0145661
851.340	0.0147065
851.418	0.0146738
851.496	0.0146742
851.575	0.0147495
851.653	0.0145047
851.731	0.0146139
851.809	0.0146585
851.887	0.0145850
851.965	0.0145255
852.043	0.0145088
852.121	0.0145508
852.200	0.0146336
852.278	0.0147675
852.356	0.0146293
852.434	0.0145308
852.512	0.0145130
852.590	0.0146291
852.668	0.0145527
852.746	0.0146394
852.825	0.0144711
852.903	0.0146407
852.981	0.0145597
853.059	0.0145971
853.137	0.0145863
853.215	0.0147928
853.293	0.0145140
853.371	0.0146719
853.450	0.0146144
853.528	0.0146598
853.606	0.0146274
853.684	0.0146233
853.762	0.0146281
853.840	0.0145847
853.918	0.0145570
853.996	0.0146822
854.075	0.0146761
854.153	0.0145007
854.231	0.0146365
854.309	0.0146056
854.387	0.0146703
854.465	0.0146239
854.543	0.0145872
854.621	0.0146925
854.700	0.0146708
854.778	0.0145604
854.856	0.0145497
854.934	0.0145995
855.012	0.0147013
855.090	0.0146339
855.168	0.0145032
855.246	0.0146732
855.325	0.0147048
855.403	0.0146255
855.481	0.0146975
855.559	0.0147493
855.637	0.0147499
855.715	0.0147306
855.793	0.0146379
855.871	0.0148054
855.950	0.0147118
856.028	0.0147099
856.106	0.0146437
856.184	0.0148859
856.262	0.0147550
856.340	0.0146210
856.418	0.0147979
856.496	0.0148466
856.575	0.0147624
856.653	0.0145631
856.731	0.0146126
856.809	0.0146078
856.887	0.0146570
856.965	0.0147667
857.043	0.0146593
857.121	0.0146561
857.200	0.0146006
857.278	0.0146033
857.356	0.0145710
857.434	0.0146761
857.512	0.0146622
857.590	0.0146332
857.668	0.0146611
857.746	0.0146770
857.825	0.0148740
857.903	0.0146513
857.981	0.0146520
858.059	0.0146652
858.137	0.0147817
858.215	0.0147828
858.293	0.0146822
858.371	0.0148671
858.450	0.0148012
858.528	0.0146910
858.606	0.0148286
858.684	0.0146912
858.762	0.0146560
858.840	0.0146572
858.918	0.0146581
858.996	0.0146863
859.075	0.0146461
859.153	0.0146580
859.231	0.0147224
859.309	0.0145658
859.387	0.0146508
859.465	0.0146121
859.543	0.0145807
859.621	0.0146698
859.700	0.0145896
859.778	0.0147600
859.856	0.0147562
859.934	0.0145914
860.012	0.0146637
860.090	0.0147555
860.168	0.0146739
860.246	0.0148541
860.325	0.0146635
860.403	0.0145920
860.481	0.0148239
860.559	0.0147395
860.637	0.0147115
860.715	0.0148550
860.793	0.0147697
860.871	0.0147916
860.950	0.0147437
861.028	0.0148864
861.106	0.0147681
861.184	0.0146687
861.262	0.0145824
861.340	0.0147344
861.418	0.0146378
861.496	0.0146947
861.575	0.0147701
861.653	0.0146069
861.731	0.0146835
861.809	0.0146144
861.887	0.0146822
861.965	0.0146342
862.043	0.0145752
862.121	0.0146127
862.200	0.0146675
862.278	0.0147243
862.356	0.0147118
862.434	0.0147139
862.512	0.0147192
862.590	0.0148383
862.668	0.0148041
862.746	0.0147713
862.825	0.0146347
862.903	0.0147051
862.981	0.0148115
863.059	0.0145824
863.137	0.0146927
863.215	0.0146184
863.293	0.0147826
863.371	0.0147092
863.450	0.0146487
863.528	0.0146638
863.606	0.0146555
863.684	0.0146393
863.762	0.0146471
863.840	0.0146980
863.918	0.0145980
863.996	0.0145648
864.075	0.0146611
864.153	0.0146264
864.231	0.0145982
864.309	0.0147625
864.387	0.0146389
864.465	0.0146648
864.543	0.0145719
864.621	0.0146675
864.700	0.0146515
864.778	0.0146648
864.856	0.0147465
864.934	0.0147559
865.012	0.0147226
865.090	0.0146622
865.168	0.0146655
865.246	0.0146758
865.325	0.0146761
865.403	0.0146155
865.481	0.0146310
865.559	0.0146732
865.637	0.0147225
865.715	0.0147284
865.793	0.0147336
865.871	0.0147291
865.950	0.0146476
866.028	0.0146735
866.106	0.0145789
866.184	0.0146116
866.262	0.0146420
866.340	0.0147918
866.418	0.0146558
866.496	0.0146407
866.575	0.0145825
866.653	0.0145861
866.731	0.0146403
866.809	0.0146295
866.887	0.0145132
866.965	0.0145999
867.043	0.0145303
867.121	0.0145561
867.200	0.0145398
867.278	0.0145921
867.356	0.0146504
867.434	0.0147158
867.512	0.0146215
867.590	0.0146526
867.668	0.0147477
867.746	0.0145901
867.825	0.0147389
867.903	0.0147760
867.981	0.0145998
868.059	0.0146260
868.137	0.0146735
868.215	0.0145647
868.293	0.0146648
868.371	0.0145849
868.450	0.0147076
868.528	0.0146928
868.606	0.0145228
868.684	0.0144910
868.762	0.0146039
868.840	0.0144766
868.918	0.0146130
868.996	0.0147053
869.075	0.0145609
869.153	0.0144615
869.231	0.0145654
869.309	0.0145818
869.387	0.0145621
869.465	0.0146237
869.543	0.0145768
869.621	0.0144553
869.700	0.0146097
869.778	0.0146062
869.856	0.0146887
869.934	0.0146729
870.012	0.0146160
870.090	0.0144962
870.168	0.0149124
870.246	0.0147098
870.325	0.0144830
870.403	0.0146568
870.481	0.0147742
870.559	0.0147073
870.637	0.0146961
870.715	0.0147953
870.793	0.0146648
870.871	0.0145638
870.950	0.0146748
871.028	0.0147632
871.106	0.0147267
871.184	0.0145698
871.262	0.0145744
871.340	0.0146609
871.418	0.0144766
871.496	0.0146441
871.575	0.0144678
871.653	0.0144950
871.731	0.0145402
871.809	0.0144296
871.887	0.0146386
871.965	0.0144920
872.043	0.0146390
872.121	0.0145132
872.200	0.0145688
872.278	0.0145206
872.356	0.0144702
872.434	0.0147208
872.512	0.0144707
872.590	0.0147278
872.668	0.0146708
872.746	0.0145331
872.825	0.0145875
872.903	0.0146513
872.981	0.0146340
873.059	0.0146803
873.137	0.0147926
873.215	0.0147138
873.293	0.0146981
873.371	0.0146040
873.450	0.0147421
873.528	0.0147087
873.606	0.0147537
873.684	0.0145776
873.762	0.0147451
873.840	0.0147539
873.918	0.0146906
873.996	0.0147942
874.075	0.0145853
874.153	0.0145601
874.231	0.0147348
874.309	0.0146940
874.387	0.0145972
874.465	0.0146122
874.543	0.0145374
874.621	0.0145724
874.700	0.0146940
874.778	0.0145895
874.856	0.0146085
874.934	0.0146560
875.012	0.0145452
875.090	0.0144771
875.168	0.0146772
875.246	0.0147176
875.325	0.0146530
875.403	0.0146955
875.481	0.0145782
875.559	0.0146219
875.637	0.0147837
875.715	0.0146234
875.793	0.0145415
875.871	0.0146021
875.950	0.0146678
876.028	0.0148026
876.106	0.0146819
876.184	0.0146983
876.262	0.0147826
876.340	0.0146584
876.418	0.0147478
876.496	0.0148610
876.575	0.0146324
876.653	0.0146278
876.731	0.0146152
876.809	0.0145886
876.887	0.0147691
876.965	0.0146397
877.043	0.0145602
877.121	0.0145322
877.200	0.0145333
877.278	0.0146109
877.356	0.0146029
877.434	0.0145223
877.512	0.0146329
877.590	0.0145631
877.668	0.0146416
877.746	0.0146220
877.825	0.0145733
877.903	0.0145894
877.981	0.0147900
878.059	0.0146746
878.137	0.0146594
878.215	0.0146687
878.293	0.0146259
878.371	0.0146310
878.450	0.0145485
878.528	0.0146431
878.606	0.0146192
878.684	0.0147682
878.762	0.0147784
878.840	0.0147676
878.918	0.0147910
878.996	0.0148286
879.075	0.0148140
879.153	0.0146897
879.231	0.0146886
879.309	0.0147392
879.387	0.0147145
879.465	0.0145916
879.543	0.0147073
879.621	0.0146118
879.700	0.0146638
879.778	0.0147051
879.856	0.0146054
879.934	0.0146680
880.012	0.0146745
880.090	0.0147034
880.168	0.0146921
880.246	0.0146860
880.325	0.0146027
880.403	0.0144968
880.481	0.0146516
880.559	0.0146011
880.637	0.0146201
880.715	0.0147715
880.793	0.0147227
880.871	0.0145374
880.950	0.0147283
881.028	0.0145859
881.106	0.0146377
881.184	0.0145361
881.262	0.0147279
881.340	0.0148061
881.418	0.0147206
881.496	0.0146741
881.575	0.0148048
881.653	0.0147799
881.731	0.0146470
881.809	0.0146558
881.887	0.0147554
881.965	0.0147475
882.043	0.0147089
882.121	0.0146413
882.200	0.0148053
882.278	0.0146530
882.356	0.0148870
882.434	0.0146165
882.512	0.0145644
882.590	0.0146088
882.668	0.0145009
882.746	0.0146450
882.825	0.0146038
882.903	0.0146575
882.981	0.0146526
883.059	0.0145527
883.137	0.0145689
883.215	0.0146602
883.293	0.0147520
883.371	0.0146369
883.450	0.0146169
883.528	0.0147417
883.606	0.0146429
883.684	0.0146468
883.762	0.0147105
883.840	0.0145238
883.918	0.0146518
883.996	0.0146738
884.075	0.0146766
884.153	0.0146519
884.231	0.0147563
884.309	0.0146926
884.387	0.0147508
884.465	0.0146423
884.543	0.0146642
884.621	0.0146355
884.700	0.0146493
884.778	0.0146102
884.856	0.0144695
884.934	0.0147043
885.012	0.0146310
885.090	0.0145838
885.168	0.0145249
885.246	0.0143874
885.325	0.0146244
885.403	0.0146004
885.481	0.0145158
885.559	0.0145418
885.637	0.0145169
885.715	0.0144969
885.793	0.0147620
885.871	0.0147365
885.950	0.0145278
886.028	0.0148106
886.106	0.0147202
886.184	0.0147966
886.262	0.0148231
886.340	0.0147369
886.418	0.0146401
886.496	0.0147100
886.575	0.0147858
886.653	0.0145995
886.731	0.0144933
886.809	0.0144334
886.887	0.0144185
886.965	0.0145538
887.043	0.0143913
887.121	0.0144018
887.200	0.0144589
887.278	0.0145474
887.356	0.0146352
887.434	0.0144234
887.512	0.0145853
887.590	0.0146304
887.668	0.0147723
887.746	0.0146243
887.825	0.0147717
887.903	0.0145856
887.981	0.0145376
888.059	0.0147392
888.137	0.0146190
888.215	0.0146951
888.293	0.0146959
888.371	0.0146123
888.450	0.0146577
888.528	0.0147076
888.606	0.0146369
888.684	0.0147221
888.762	0.0146375
888.840	0.0146685
888.918	0.0146826
888.996	0.0145636
889.075	0.0147379
889.153	0.0146530
889.231	0.0147006
889.309	0.0146251
889.387	0.0145068
889.465	0.0144799
889.543	0.0146525
889.621	0.0145913
889.700	0.0144454
889.778	0.0144338
889.856	0.0146252
889.934	0.0145148
890.012	0.0144968
890.090	0.0146237
890.168	0.0145598
890.246	0.0145142
890.325	0.0146133
890.403	0.0146513
890.481	0.0146405
890.559	0.0146844
890.637	0.0146176
890.715	0.0146891
890.793	0.0146257
890.871	0.0145659
890.950	0.0147775
891.028	0.0145371
891.106	0.0145950
891.184	0.0146507
891.262	0.0146697
891.340	0.0145867
891.418	0.0145885
891.496	0.0147889
891.575	0.0146301
891.653	0.0146191
891.731	0.0147279
891.809	0.0147707
891.887	0.0147767
891.965	0.0147070
892.043	0.0146666
892.121	0.0146111
892.200	0.0146660
892.278	0.0146161
892.356	0.0147394
892.434	0.0146532
892.512	0.0145894
892.590	0.0146621
892.668	0.0146702
892.746	0.0145728
892.825	0.0147672
892.903	0.0147444
892.981	0.0148095
893.059	0.0146142
893.137	0.0146095
893.215	0.0146588
893.293	0.0145815
893.371	0.0147565
893.450	0.0146342
893.528	0.0146296
893.606	0.0145871
893.684	0.0146748
893.762	0.0148119
893.840	0.0147663
893.918	0.0146761
893.996	0.0147241
894.075	0.0147627
894.153	0.0147475
894.231	0.0148064
894.309	0.0147610
894.387	0.0146352
894.465	0.0147326
894.543	0.0147271
894.621	0.0145588
894.700	0.0146488
894.778	0.0145821
894.856	0.0146698
894.934	0.0146448
895.012	0.0145874
895.090	0.0144828
895.168	0.0146038
895.246	0.0146639
895.325	0.0145969
895.403	0.0145881
895.481	0.0146548
895.559	0.0146873
895.637	0.0147459
895.715	0.0146935
895.793	0.0146806
895.871	0.0147325
895.950	0.0146712
896.028	0.0145967
896.106	0.0146288
896.184	0.0147552
896.262	0.0146555
896.340	0.0146902
896.418	0.0147165
896.496	0.0147179
896.575	0.0147432
896.653	0.0147324
896.731	0.0146783
896.809	0.0147447
896.887	0.0147332
896.965	0.0147726
897.043	0.0146781
897.121	0.0147080
897.200	0.0147250
897.278	0.0147733
897.356	0.0146671
897.434	0.0146869
897.512	0.0146222
897.590	0.0144173
897.668	0.0145466
897.746	0.0145981
897.825	0.0147492
897.903	0.0147878
897.981	0.0146067
898.059	0.0145858
898.137	0.0145660
898.215	0.0146619
898.293	0.0147250
898.371	0.0147009
898.450	0.0146236
898.528	0.0147401
898.606	0.0147097
898.684	0.0147744
898.762	0.0147744
898.840	0.0145574
898.918	0.0145226
898.996	0.0146195
899.075	0.0147543
899.153	0.0145060
899.231	0.0145551
899.309	0.0145145
899.387	0.0146786
899.465	0.0146661
899.543	0.0144509
899.621	0.0144313
899.700	0.0145437
899.778	0.0145982
899.856	0.0145962
899.934	0.0145148
900.012	0.0142858
900.090	0.0145052
900.168	0.0144638
900.246	0.0147009
900.325	0.0146748
900.403	0.0146059
900.481	0.0146381
900.559	0.0146863
900.637	0.0145679
900.715	0.0145781
900.793	0.0147497
900.871	0.0145657
900.950	0.0147131
901.028	0.0145210
901.106	0.0146590
901.184	0.0146595
901.262	0.0147524
901.340	0.0147591
901.418	0.0147494
901.496	0.0145706
901.575	0.0145964
901.653	0.0146300
901.731	0.0146762
901.809	0.0145506
901.887	0.0147454
901.965	0.0147347
902.043	0.0145121
902.121	0.0146526
902.200	0.0147128
902.278	0.0145800
902.356	0.0146593
902.434	0.0147302
902.512	0.0147449
902.590	0.0146909
902.668	0.0146224
902.746	0.0146666
902.825	0.0146066
902.903	0.0146574
902.981	0.0145654
903.059	0.0145236
903.137	0.0145362
903.215	0.0146679
903.293	0.0145516
903.371	0.0148253
903.450	0.0146121
903.528	0.0144178
903.606	0.0145599
903.684	0.0145947
903.762	0.0144463
903.840	0.0146096
903.918	0.0145737
903.996	0.0145225
904.075	0.0145147
904.153	0.0146850
904.231	0.0145986
904.309	0.0146133
904.387	0.0147470
904.465	0.0146545
904.543	0.0146318
904.621	0.0145954
904.700	0.0146574
904.778	0.0145506
904.856	0.0146144
904.934	0.0148030
905.012	0.0147024
905.090	0.0146399
905.168	0.0147502
905.246	0.0147920
905.325	0.0148326
905.403	0.0147692
905.481	0.0148196
905.559	0.0147381
905.637	0.0146186
905.715	0.0145688
905.793	0.0147572
905.871	0.0148434
905.950	0.0147440
906.028	0.0146918
906.106	0.0146453
906.184	0.0147708
906.262	0.0147226
906.340	0.0146177
906.418	0.0146255
906.496	0.0147402
906.575	0.0147678
906.653	0.0146106
906.731	0.0146180
906.809	0.0145802
906.887	0.0146247
906.965	0.0147864
907.043	0.0147046
907.121	0.0146280
907.200	0.0147628
907.278	0.0146268
907.356	0.0145026
907.434	0.0145808
907.512	0.0147169
907.590	0.0146568
907.668	0.0146916
907.746	0.0146671
907.825	0.0146706
907.903	0.0146616
907.981	0.0146380
908.059	0.0145457
908.137	0.0145792
908.215	0.0146552
908.293	0.0146721
908.371	0.0147087
908.450	0.0146796
908.528	0.0145449
908.606	0.0145805
908.684	0.0146420
908.762	0.0147134
908.840	0.0146589
908.918	0.0146067
908.996	0.0146461
909.075	0.0144991
909.153	0.0144403
909.231	0.0145407
909.309	0.0145155
909.387	0.0145986
909.465	0.0146027
909.543	0.0144854
909.621	0.0145352
909.700	0.0145647
909.778	0.0146174
909.856	0.0146919
909.934	0.0146762
910.012	0.0147791
910.090	0.0145257
910.168	0.0145874
910.246	0.0145948
910.325	0.0146075
910.403	0.0146053
910.481	0.0146743
910.559	0.0146590
910.637	0.0145784
910.715	0.0146507
910.793	0.0146761
910.871	0.0146413
910.950	0.0145303
911.028	0.0144174
911.106	0.0145860
911.184	0.0145988
911.262	0.0145974
911.340	0.0146780
911.418	0.0146218
911.496	0.0146330
911.575	0.0145314
911.653	0.0146877
911.731	0.0147272
911.809	0.0147666
911.887	0.0146240
911.965	0.0147755
912.043	0.0148134
912.121	0.0146443
912.200	0.0146907
912.278	0.0147150
912.356	0.0148436
912.434	0.0146433
912.512	0.0147775
912.590	0.0148394
912.668	0.0147814
912.746	0.0147781
912.825	0.0146857
912.903	0.0145069
912.981	0.0143807
913.059	0.0148595
913.137	0.0145592
913.215	0.0146564
913.293	0.0147141
913.371	0.0147254
913.450	0.0146650
913.528	0.0145655
913.606	0.0146001
913.684	0.0146007
913.762	0.0146363
913.840	0.0146913
913.918	0.0146011
913.996	0.0146435
914.075	0.0146355
914.153	0.0145719
914.231	0.0146264
914.309	0.0146563
914.387	0.0146803
914.465	0.0147774
914.543	0.0146881
914.621	0.0146337
914.700	0.0147613
914.778	0.0146773
914.856	0.0146729
914.934	0.0148084
915.012	0.0147295
915.090	0.0147926
915.168	0.0146581
915.246	0.0146571
915.325	0.0146924
915.403	0.0145655
915.481	0.0146208
915.559	0.0145731
915.637	0.0146130
915.715	0.0146912
915.793	0.0145282
915.871	0.0144597
915.950	0.0146225
916.028	0.0146647
916.106	0.0146591
916.184	0.0146182
916.262	0.0146398
916.340	0.0145457
916.418	0.0146561
916.496	0.0146815
916.575	0.0146519
916.653	0.0145683
916.731	0.0146632
916.809	0.0145641
916.887	0.0146718
916.965	0.0146484
917.043	0.0146519
917.121	0.0147226
917.200	0.0146693
917.278	0.0146683
917.356	0.0147541
917.434	0.0147237
917.512	0.0147855
917.590	0.0146395
917.668	0.0146131
917.746	0.0147222
917.825	0.0146869
917.903	0.0146500
917.981	0.0147131
918.059	0.0145894
918.137	0.0144589
918.215	0.0147127
918.293	0.0146278
918.371	0.0146489
918.450	0.0145744
918.528	0.0145588
918.606	0.0146604
918.684	0.0146219
918.762	0.0144276
918.840	0.0146181
918.918	0.0146755
918.996	0.0145338
919.075	0.0146326
919.153	0.0146893
919.231	0.0146453
919.309	0.0147052
919.387	0.0146786
919.465	0.0146823
919.543	0.0148202
919.621	0.0146809
919.700	0.0148494
919.778	0.0147205
919.856	0.0147077
919.934	0.0146185
920.012	0.0146526
920.090	0.0147220
920.168	0.0147967
920.246	0.0147388
920.325	0.0145960
920.403	0.0146587
920.481	0.0146719
920.559	0.0146953
920.637	0.0146508
920.715	0.0146069
920.793	0.0146520
920.871	0.0145642
920.950	0.0146920
921.028	0.0144730
921.106	0.0145302
921.184	0.0146309
921.262	0.0146738
921.340	0.0145381
921.418	0.0147948
921.496	0.0145906
921.575	0.0145865
921.653	0.0146003
921.731	0.0146111
921.809	0.0148238
921.887	0.0146462
921.965	0.0147389
922.043	0.0145930
922.121	0.0147541
922.200	0.0147507
922.278	0.0147665
922.356	0.0145920
922.434	0.0146072
922.512	0.0147311
922.590	0.0146172
922.668	0.0147173
922.746	0.0148494
922.825	0.0147198
922.903	0.0145784
922.981	0.0146158
923.059	0.0146781
923.137	0.0147778
923.215	0.0147303
923.293	0.0145432
923.371	0.0146730
923.450	0.0147289
923.528	0.0146421
923.606	0.0145151
923.684	0.0147339
923.762	0.0146391
923.840	0.0146210
923.918	0.0146031
923.996	0.0147267
924.075	0.0147818
924.153	0.0147186
924.231	0.0146061
924.309	0.0146136
924.387	0.0146316
924.465	0.0147813
924.543	0.0148734
924.621	0.0146420
924.700	0.0145646
924.778	0.0146542
924.856	0.0147914
924.934	0.0145742
925.012	0.0144730
925.090	0.0146599
925.168	0.0146822
925.246	0.0146548
925.325	0.0146099
925.403	0.0146495
925.481	0.0146295
925.559	0.0146612
925.637	0.0145676
925.715	0.0146088
925.793	0.0144766
925.871	0.0146880
925.950	0.0145596
926.028	0.0145448
926.106	0.0146295
926.184	0.0145509
926.262	0.0144923
926.340	0.0146304
926.418	0.0145004
926.496	0.0145773
926.575	0.0145595
926.653	0.0145478
926.731	0.0146994
926.809	0.0147125
926.887	0.0147002
926.965	0.0146647
927.043	0.0146909
927.121	0.0145937
927.200	0.0144833
927.278	0.0145694
927.356	0.0145747
927.434	0.0146793
927.512	0.0146455
927.590	0.0147135
927.668	0.0146405
927.746	0.0146289
927.825	0.0146887
927.903	0.0145860
927.981	0.0145249
928.059	0.0146041
928.137	0.0145712
928.215	0.0145882
928.293	0.0145580
928.371	0.0145126
928.450	0.0145187
928.528	0.0145247
928.606	0.0145496
928.684	0.0144870
928.762	0.0143977
928.840	0.0145506
928.918	0.0145554
928.996	0.0145136
929.075	0.0145256
929.153	0.0146097
929.231	0.0145007
929.309	0.0145209
929.387	0.0145883
929.465	0.0146613
929.543	0.0146843
929.621	0.0145162
929.700	0.0146822
929.778	0.0147024
929.856	0.0145326
929.934	0.0145493
930.012	0.0144836
930.090	0.0146498
930.168	0.0145816
930.246	0.0146548
930.325	0.0144740
930.403	0.0146553
930.481	0.0145723
930.559	0.0146890
930.637	0.0147046
930.715	0.0146397
930.793	0.0145425
930.871	0.0145817
930.950	0.0146501
931.028	0.0146464
931.106	0.0146136
931.184	0.0145852
931.262	0.0146793
931.340	0.0145589
931.418	0.0146114
931.496	0.0147453
931.575	0.0145650
931.653	0.0146690
931.731	0.0148366
931.809	0.0147538
931.887	0.0146516
931.965	0.0148317
932.043	0.0147194
932.121	0.0146896
932.200	0.0147934
932.278	0.0148206
932.356	0.0146470
932.434	0.0146495
932.512	0.0147208
932.590	0.0146753
932.668	0.0146947
932.746	0.0148462
932.825	0.0146633
932.903	0.0147818
932.981	0.0146400
933.059	0.0146133
933.137	0.0148419
933.215	0.0146151
933.293	0.0146735
933.371	0.0147504
933.450	0.0147584
933.528	0.0147942
933.606	0.0145980
933.684	0.0147542
933.762	0.0148641
933.840	0.0148027
933.918	0.0147670
933.996	0.0145880
934.075	0.0145866
934.153	0.0147319
934.231	0.0146404
934.309	0.0145991
934.387	0.0146188
934.465	0.0145734
934.543	0.0147095
934.621	0.0146517
934.700	0.0145412
934.778	0.0144844
934.856	0.0146590
934.934	0.0145185
935.012	0.0146441
935.090	0.0147042
935.168	0.0146057
935.246	0.0146220
935.325	0.0147024
935.403	0.0146723
935.481	0.0146309
935.559	0.0146175
935.637	0.0145983
935.715	0.0146620
935.793	0.0147263
935.871	0.0147334
935.950	0.0147073
936.028	0.0146616
936.106	0.0146394
936.184	0.0146574
936.262	0.0145953
936.340	0.0146609
936.418	0.0146488
936.496	0.0146465
936.575	0.0146109
936.653	0.0146574
936.731	0.0146501
936.809	0.0145160
936.887	0.0146719
936.965	0.0145577
937.043	0.0146536
937.121	0.0146039
937.200	0.0147103
937.278	0.0147060
937.356	0.0146380
937.434	0.0145324
937.512	0.0147124
937.590	0.0148132
937.668	0.0146236
937.746	0.0147626
937.825	0.0148091
937.903	0.0147637
937.981	0.0147789
938.059	0.0147259
938.137	0.0146997
938.215	0.0147649
938.293	0.0147482
938.371	0.0147583
938.450	0.0146372
938.528	0.0146295
938.606	0.0146369
938.684	0.0146883
938.762	0.0146529
938.840	0.0145776
938.918	0.0147099
938.996	0.0145830
939.075	0.0144675
939.153	0.0145049
939.231	0.0144772
939.309	0.0146069
939.387	0.0146141
939.465	0.0145869
939.543	0.0146209
939.621	0.0146146
939.700	0.0145895
939.778	0.0144054
939.856	0.0147086
939.934	0.0147395
940.012	0.0144714
940.090	0.0145612
940.168	0.0145837
940.246	0.0146416
940.325	0.0146476
940.403	0.0145696
940.481	0.0147592
940.559	0.0145099
940.637	0.0145140
940.715	0.0145873
940.793	0.0145923
940.871	0.0146660
940.950	0.0146389
941.028	0.0146546
941.106	0.0145612
941.184	0.0145805
941.262	0.0145356
941.340	0.0147519
941.418	0.0146563
941.496	0.0144362
941.575	0.0146052
941.653	0.0147024
941.731	0.0146075
941.809	0.0145175
941.887	0.0146907
941.965	0.0146262
942.043	0.0147453
942.121	0.0147382
942.200	0.0146839
942.278	0.0145821
942.356	0.0146585
942.434	0.0147249
942.512	0.0147040
942.590	0.0145570
942.668	0.0146495
942.746	0.0146712
942.825	0.0146116
942.903	0.0145224
942.981	0.0146655
943.059	0.0146781
943.137	0.0144670
943.215	0.0145512
943.293	0.0146751
943.371	0.0145406
943.450	0.0148051
943.528	0.0147180
943.606	0.0146918
943.684	0.0145421
943.762	0.0146818
943.840	0.0147183
943.918	0.0145499
943.996	0.0145264
944.075	0.0148341
944.153	0.0145497
944.231	0.0145617
944.309	0.0146494
944.387	0.0146651
944.465	0.0146159
944.543	0.0147131
944.621	0.0145711
944.700	0.0145397
944.778	0.0145444
944.856	0.0144538
944.934	0.0145625
945.012	0.0146080
945.090	0.0146646
945.168	0.0145356
945.246	0.0146455
945.325	0.0146616
945.403	0.0144924
945.481	0.0146353
945.559	0.0145657
945.637	0.0146000
945.715	0.0147047
945.793	0.0147004
945.871	0.0147742
945.950	0.0146731
946.028	0.0146661
946.106	0.0147043
946.184	0.0147312
946.262	0.0147548
946.340	0.0146928
946.418	0.0146736
946.496	0.0146170
946.575	0.0144656
946.653	0.0146187
946.731	0.0146406
946.809	0.0146143
946.887	0.0145880
946.965	0.0145271
947.043	0.0145515
947.121	0.0145729
947.200	0.0145335
947.278	0.0146626
947.356	0.0146339
947.434	0.0147704
947.512	0.0148034
947.590	0.0146922
947.668	0.0146391
947.746	0.0147556
947.825	0.0146532
947.903	0.0146577
947.981	0.0148025
948.059	0.0146786
948.137	0.0146391
948.215	0.0146689
948.293	0.0146204
948.371	0.0145710
948.450	0.0147019
948.528	0.0146324
948.606	0.0145570
948.684	0.0146063
948.762	0.0146180
948.840	0.0145558
948.918	0.0146454
948.996	0.0145632
949.075	0.0145541
949.153	0.0146913
949.231	0.0146741
949.309	0.0145497
949.387	0.0144538
949.465	0.0144360
949.543	0.0145832
949.621	0.0146027
949.700	0.0146112
949.778	0.0146539
949.856	0.0145490
949.934	0.0146832
950.012	0.0145735
950.090	0.0145795
950.168	0.0145880
950.246	0.0145886
950.325	0.0148119
950.403	0.0145327
950.481	0.0145358
950.559	0.0146383
950.637	0.0147289
950.715	0.0146886
950.793	0.0147132
950.871	0.0146380
950.950	0.0145868
951.028	0.0146301
951.106	0.0147676
951.184	0.0146394
951.262	0.0144640
951.340	0.0146519
951.418	0.0146209
951.496	0.0146550
951.575	0.0145472
951.653	0.0146464
951.731	0.0143727
951.809	0.0145132
951.887	0.0145463
951.965	0.0146609
952.043	0.0145620
952.121	0.0145342
952.200	0.0146404
952.278	0.0145212
952.356	0.0146365
952.434	0.0146297
952.512	0.0146358
952.590	0.0146162
952.668	0.0146482
952.746	0.0146336
952.825	0.0146355
952.903	0.0147409
952.981	0.0146783
953.059	0.0147721
953.137	0.0147462
953.215	0.0147865
953.293	0.0147236
953.371	0.0146736
953.450	0.0146743
953.528	0.0146313
953.606	0.0148020
953.684	0.0148310
953.762	0.0146655
953.840	0.0146455
953.918	0.0144303
953.996	0.0145690
954.075	0.0146552
954.153	0.0145673
954.231	0.0146851
954.309	0.0145663
954.387	0.0145329
954.465	0.0145896
954.543	0.0146669
954.621	0.0146464
954.700	0.0146709
954.778	0.0145689
954.856	0.0146030
954.934	0.0145745
955.012	0.0147099
955.090	0.0147861
955.168	0.0147298
955.246	0.0148056
955.325	0.0147595
955.403	0.0147163
955.481	0.0147648
955.559	0.0147488
955.637	0.0146130
955.715	0.0145911
955.793	0.0146765
955.871	0.0147282
955.950	0.0148576
956.028	0.0147023
956.106	0.0148910
956.184	0.0147350
956.262	0.0147073
956.340	0.0146814
956.418	0.0147074
956.496	0.0146634
956.575	0.0146671
956.653	0.0146841
956.731	0.0147162
956.809	0.0146648
956.887	0.0147839
956.965	0.0146366
957.043	0.0147216
957.121	0.0146973
957.200	0.0146020
957.278	0.0146601
957.356	0.0147328
957.434	0.0148505
957.512	0.0146340
957.590	0.0144763
957.668	0.0146962
957.746	0.0145994
957.825	0.0145479
957.903	0.0146584
957.981	0.0147142
958.059	0.0146133
958.137	0.0145748
958.215	0.0148491
958.293	0.0146866
958.371	0.0147324
958.450	0.0146725
958.528	0.0146052
958.606	0.0146806
958.684	0.0146540
958.762	0.0146960
958.840	0.0146675
958.918	0.0148119
958.996	0.0147404
959.075	0.0146500
959.153	0.0147086
959.231	0.0148164
959.309	0.0146621
959.387	0.0145740
959.465	0.0145604
959.543	0.0144426
959.621	0.0145623
959.700	0.0147195
959.778	0.0147388
959.856	0.0145258
959.934	0.0145870
960.012	0.0147896
960.090	0.0145625
960.168	0.0147665
960.246	0.0147414
960.325	0.0147152
960.403	0.0147617
960.481	0.0147157
960.559	0.0148368
960.637	0.0148088
960.715	0.0146795
960.793	0.0147810
960.871	0.0147821
960.950	0.0148091
961.028	0.0146976
961.106	0.0146967
961.184	0.0146873
961.262	0.0146642
961.340	0.0146385
961.418	0.0146163
961.496	0.0146278
961.575	0.0145484
961.653	0.0146512
961.731	0.0146896
961.809	0.0145773
961.887	0.0145710
961.965	0.0146883
962.043	0.0146170
962.121	0.0146180
962.200	0.0146436
962.278	0.0145689
962.356	0.0147371
962.434	0.0148221
962.512	0.0147252
962.590	0.0145958
962.668	0.0145608
962.746	0.0146322
962.825	0.0147668
962.903	0.0148652
962.981	0.0148260
963.059	0.0147076
963.137	0.0146610
963.215	0.0146345
963.293	0.0145766
963.371	0.0146374
963.450	0.0145914
963.528	0.0146445
963.606	0.0146339
963.684	0.0145686
963.762	0.0145694
963.840	0.0145676
963.918	0.0146300
963.996	0.0146107
964.075	0.0146183
964.153	0.0145760
964.231	0.0144908
964.309	0.0146021
964.387	0.0146873
964.465	0.0148286
964.543	0.0147096
964.621	0.0146455
964.700	0.0147067
964.778	0.0145753
964.856	0.0146386
964.934	0.0147539
965.012	0.0147403
965.090	0.0147311
965.168	0.0146552
965.246	0.0146390
965.325	0.0145767
965.403	0.0146458
965.481	0.0144868
965.559	0.0145810
965.637	0.0145911
965.715	0.0145913
965.793	0.0146687
965.871	0.0145844
965.950	0.0144761
966.028	0.0144667
966.106	0.0145209
966.184	0.0143665
966.262	0.0144713
966.340	0.0146086
966.418	0.0146706
966.496	0.0145859
966.575	0.0145769
966.653	0.0145877
966.731	0.0145747
966.809	0.0145888
966.887	0.0145251
966.965	0.0146967
967.043	0.0147768
967.121	0.0147760
967.200	0.0146439
967.278	0.0147008
967.356	0.0146319
967.434	0.0146086
967.512	0.0146419
967.590	0.0146817
967.668	0.0146117
967.746	0.0145687
967.825	0.0146958
967.903	0.0146219
967.981	0.0145834
968.059	0.0147399
968.137	0.0147213
968.215	0.0146579
968.293	0.0146418
968.371	0.0146699
968.450	0.0147584
968.528	0.0145666
968.606	0.0147477
968.684	0.0146748
968.762	0.0146644
968.840	0.0147700
968.918	0.0146914
968.996	0.0145924
969.075	0.0146719
969.153	0.0147795
969.231	0.0147192
969.309	0.0147692
969.387	0.0147093
969.465	0.0147492
969.543	0.0147336
969.621	0.0147021
969.700	0.0147229
969.778	0.0147761
969.856	0.0144457
969.934	0.0145791
970.012	0.0147048
970.090	0.0146222
970.168	0.0146218
970.246	0.0145618
970.325	0.0146008
970.403	0.0146742
970.481	0.0146549
970.559	0.0145050
970.637	0.0144794
970.715	0.0147076
970.793	0.0146301
970.871	0.0146073
970.950	0.0144701
971.028	0.0147678
971.106	0.0146041
971.184	0.0146137
971.262	0.0146391
971.340	0.0147538
971.418	0.0148072
971.496	0.0147378
971.575	0.0147878
971.653	0.0147285
971.731	0.0148631
971.809	0.0146800
971.887	0.0146908
971.965	0.0146687
972.043	0.0145524
972.121	0.0145409
972.200	0.0146445
972.278	0.0145691
972.356	0.0145097
972.434	0.0146566
972.512	0.0146111
972.590	0.0147829
972.668	0.0147463
972.746	0.0145658
972.825	0.0146243
972.903	0.0146577
972.981	0.0146125
973.059	0.0145169
973.137	0.0147267
973.215	0.0146391
973.293	0.0144507
973.371	0.0146049
973.450	0.0145599
973.528	0.0144208
973.606	0.0145264
973.684	0.0145990
973.762	0.0145197
973.840	0.0147203
973.918	0.0146502
973.996	0.0145737
974.075	0.0146312
974.153	0.0146888
974.231	0.0146542
974.309	0.0147339
974.387	0.0147900
974.465	0.0146834
974.543	0.0146428
974.621	0.0147779
974.700	0.0148418
974.778	0.0146502
974.856	0.0147549
974.934	0.0146979
975.012	0.0145646
975.090	0.0147279
975.168	0.0146024
975.246	0.0146724
975.325	0.0147460
975.403	0.0146902
975.481	0.0146641
975.559	0.0147196
975.637	0.0147649
975.715	0.0147906
975.793	0.0147201
975.871	0.0147129
975.950	0.0148065
976.028	0.0148388
976.106	0.0146802
976.184	0.0145905
976.262	0.0145811
976.340	0.0146778
976.418	0.0147708
976.496	0.0146003
976.575	0.0147009
976.653	0.0147223
976.731	0.0146348
976.809	0.0149159
976.887	0.0147762
976.965	0.0147980
977.043	0.0146474
977.121	0.0147678
977.200	0.0147980
977.278	0.0146019
977.356	0.0147639
977.434	0.0147994
977.512	0.0147112
977.590	0.0145242
977.668	0.0145412
977.746	0.0146027
977.825	0.0145297
977.903	0.0146164
977.981	0.0146719
978.059	0.0144172
978.137	0.0144948
978.215	0.0144371
978.293	0.0146179
978.371	0.0145187
978.450	0.0144991
978.528	0.0146264
978.606	0.0145576
978.684	0.0146604
978.762	0.0145170
978.840	0.0146028
978.918	0.0146035
978.996	0.0145483
979.075	0.0146922
979.153	0.0146686
979.231	0.0146029
979.309	0.0145911
979.387	0.0146665
979.465	0.0146996
979.543	0.0146402
979.621	0.0145900
979.700	0.0145840
979.778	0.0147209
979.856	0.0147157
979.934	0.0146173
980.012	0.0146133
980.090	0.0146233
980.168	0.0145983
980.246	0.0146984
980.325	0.0145603
980.403	0.0144566
980.481	0.0146580
980.559	0.0144896
980.637	0.0145206
980.715	0.0146566
980.793	0.0145566
980.871	0.0145879
980.950	0.0145658
981.028	0.0144623
981.106	0.0145995
981.184	0.0146893
981.262	0.0147276
981.340	0.0145946
981.418	0.0146355
981.496	0.0146502
981.575	0.0146448
981.653	0.0146729
981.731	0.0146468
981.809	0.0145757
981.887	0.0145071
981.965	0.0146177
982.043	0.0145538
982.121	0.0146478
982.200	0.0146127
982.278	0.0145489
982.356	0.0144795
982.434	0.0146382
982.512	0.0144975
982.590	0.0144884
982.668	0.0145433
982.746	0.0145102
982.825	0.0146785
982.903	0.0146004
982.981	0.0145283
983.059	0.0145764
983.137	0.0145917
983.215	0.0144571
983.293	0.0146490
983.371	0.0146588
983.450	0.0146934
983.528	0.0146242
983.606	0.0148081
983.684	0.0146891
983.762	0.0146623
983.840	0.0146088
983.918	0.0147382
983.996	0.0146140
984.075	0.0146896
984.153	0.0146839
984.231	0.0146876
984.309	0.0147511
984.387	0.0147295
984.465	0.0147133
984.543	0.0145778
984.621	0.0146714
984.700	0.0145353
984.778	0.0145425
984.856	0.0145734
984.934	0.0147571
985.012	0.0146728
985.090	0.0146027
985.168	0.0144991
985.246	0.0146091
985.325	0.0145206
985.403	0.0146270
985.481	0.0146780
985.559	0.0146465
985.637	0.0146573
985.715	0.0146281
985.793	0.0145406
985.871	0.0145264
985.950	0.0145908
986.028	0.0145792
986.106	0.0144733
986.184	0.0145395
986.262	0.0145717
986.340	0.0145525
986.418	0.0145575
986.496	0.0145436
986.575	0.0145604
986.653	0.0146505
986.731	0.0147202
986.809	0.0146181
986.887	0.0146992
986.965	0.0146835
987.043	0.0146886
987.121	0.0146506
987.200	0.0146727
987.278	0.0147807
987.356	0.0146530
987.434	0.0146597
987.512	0.0145808
987.590	0.0146429
987.668	0.0147092
987.746	0.0146979
987.825	0.0146024
987.903	0.0146083
987.981	0.0146870
988.059	0.0146349
988.137	0.0145876
988.215	0.0144953
988.293	0.0142970
988.371	0.0144193
988.450	0.0144736
988.528	0.0145974
988.606	0.0145098
988.684	0.0144511
988.762	0.0145927
988.840	0.0145299
988.918	0.0145281
988.996	0.0144089
989.075	0.0145094
989.153	0.0145687
989.231	0.0145887
989.309	0.0145487
989.387	0.0146457
989.465	0.0146637
989.543	0.0147661
989.621	0.0146712
989.700	0.0147807
989.778	0.0148783
989.856	0.0150011
989.934	0.0149874
990.012	0.0148493
990.090	0.0148517
990.168	0.0147355
990.246	0.0149094
990.325	0.0148140
990.403	0.0147392
990.481	0.0146075
990.559	0.0146343
990.637	0.0146735
990.715	0.0145947
990.793	0.0146002
990.871	0.0145918
990.950	0.0145333
991.028	0.0146314
991.106	0.0145547
991.184	0.0145438
991.262	0.0146072
991.340	0.0147184
991.418	0.0145734
991.496	0.0146149
991.575	0.0145895
991.653	0.0146080
991.731	0.0146102
991.809	0.0146737
991.887	0.0147070
991.965	0.0146995
992.043	0.0145629
992.121	0.0147662
992.200	0.0147878
992.278	0.0147301
992.356	0.0146684
992.434	0.0146490
992.512	0.0146775
992.590	0.0148992
992.668	0.0148352
992.746	0.0148945
992.825	0.0148631
992.903	0.0148170
992.981	0.0147800
993.059	0.0147386
993.137	0.0149491
993.215	0.0148964
993.293	0.0147873
993.371	0.0147847
993.450	0.0148104
993.528	0.0147066
993.606	0.0146490
993.684	0.0147003
993.762	0.0147242
993.840	0.0145053
993.918	0.0145846
993.996	0.0145734
994.075	0.0145824
994.153	0.0144998
994.231	0.0145781
994.309	0.0145274
994.387	0.0145065
994.465	0.0144566
994.543	0.0146852
994.621	0.0146835
994.700	0.0147225
994.778	0.0146510
994.856	0.0146760
994.934	0.0147072
995.012	0.0148026
995.090	0.0146050
995.168	0.0147839
995.246	0.0146467
995.325	0.0146964
995.403	0.0148758
995.481	0.0146658
995.559	0.0147189
995.637	0.0148344
995.715	0.0149001
995.793	0.0146269
995.871	0.0146821
995.950	0.0147573
996.028	0.0147964
996.106	0.0146464
996.184	0.0146947
996.262	0.0146235
996.340	0.0147526
996.418	0.0147027
996.496	0.0147086
996.575	0.0147776
996.653	0.0146688
996.731	0.0147289
996.809	0.0147229
996.887	0.0146465
996.965	0.0146680
997.043	0.0145784
997.121	0.0146162
997.200	0.0144798
997.278	0.0144380
997.356	0.0145718
997.434	0.0145167
997.512	0.0145708
997.590	0.0145278
997.668	0.0145484
997.746	0.0146362
997.825	0.0145110
997.903	0.0146084
997.981	0.0147027
998.059	0.0147379
998.137	0.0145620
998.215	0.0147886
998.293	0.0148078
998.371	0.0147373
998.450	0.0148052
998.528	0.0146698
998.606	0.0146937
998.684	0.0148357
998.762	0.0146883
998.840	0.0146985
998.918	0.0146693
