05/04/2022	21:27:38	Ver.	4.1	UNKNOWN
Optical Delay	678.996401	Delta X		0.078125	Sweeps	1	Scan Rate	0/0
Coordinates	Axis 1	NaN	Axis 2	NaN	Axis 3	NaN	Axis 4	NaN	Axis 5	NaN	Axis 6	0.000000
TX Power	0.000000	RX Power	0.000000

678.996	0.0144865
679.075	0.0143906
679.153	0.0143056
679.231	0.0145180
679.309	0.0145472
679.387	0.0145039
679.465	0.0144511
679.543	0.0145737
679.621	0.0145959
679.700	0.0145876
679.778	0.0146593
679.856	0.0145151
679.934	0.0145586
680.012	0.0145454
680.090	0.0145235
680.168	0.0145971
680.246	0.0146078
680.325	0.0146537
680.403	0.0145758
680.481	0.0145741
680.559	0.0146023
680.637	0.0145834
680.715	0.0145356
680.793	0.0145448
680.871	0.0145131
680.950	0.0146525
681.028	0.0147013
681.106	0.0145483
681.184	0.0145414
681.262	0.0145105
681.340	0.0145712
681.418	0.0143931
681.496	0.0144876
681.575	0.0145973
681.653	0.0146706
681.731	0.0145603
681.809	0.0145348
681.887	0.0144338
681.965	0.0145217
682.043	0.0145615
682.121	0.0144580
682.200	0.0144858
682.278	0.0145339
682.356	0.0146001
682.434	0.0147392
682.512	0.0146148
682.590	0.0144551
682.668	0.0144606
682.746	0.0144583
682.825	0.0144524
682.903	0.0144968
682.981	0.0144746
683.059	0.0144714
683.137	0.0145359
683.215	0.0144736
683.293	0.0144098
683.371	0.0146004
683.450	0.0145107
683.528	0.0145036
683.606	0.0145344
683.684	0.0145370
683.762	0.0145454
683.840	0.0145354
683.918	0.0144540
683.996	0.0145768
684.075	0.0145453
684.153	0.0146796
684.231	0.0145062
684.309	0.0144077
684.387	0.0145340
684.465	0.0144794
684.543	0.0144440
684.621	0.0143749
684.700	0.0144896
684.778	0.0144347
684.856	0.0143408
684.934	0.0144339
685.012	0.0144041
685.090	0.0144100
685.168	0.0144205
685.246	0.0144476
685.325	0.0144415
685.403	0.0144559
685.481	0.0145729
685.559	0.0146406
685.637	0.0145796
685.715	0.0146039
685.793	0.0146282
685.871	0.0146272
685.950	0.0147308
686.028	0.0147253
686.106	0.0148431
686.184	0.0148161
686.262	0.0147044
686.340	0.0147064
686.418	0.0147594
686.496	0.0145948
686.575	0.0147972
686.653	0.0144921
686.731	0.0146095
686.809	0.0145380
686.887	0.0143740
686.965	0.0144806
687.043	0.0143047
687.121	0.0143630
687.200	0.0143787
687.278	0.0143405
687.356	0.0145042
687.434	0.0145394
687.512	0.0144665
687.590	0.0144407
687.668	0.0145152
687.746	0.0146109
687.825	0.0145798
687.903	0.0147700
687.981	0.0148006
688.059	0.0146964
688.137	0.0147327
688.215	0.0147900
688.293	0.0146850
688.371	0.0147931
688.450	0.0147540
688.528	0.0147787
688.606	0.0147318
688.684	0.0147632
688.762	0.0146371
688.840	0.0146085
688.918	0.0146966
688.996	0.0146680
689.075	0.0145811
689.153	0.0145814
689.231	0.0145608
689.309	0.0143984
689.387	0.0143086
689.465	0.0141853
689.543	0.0141716
689.621	0.0140795
689.700	0.0141209
689.778	0.0141676
689.856	0.0141820
689.934	0.0142974
690.012	0.0145113
690.090	0.0145368
690.168	0.0147083
690.246	0.0148349
690.325	0.0147772
690.403	0.0149538
690.481	0.0149461
690.559	0.0150736
690.637	0.0148671
690.715	0.0149059
690.793	0.0150718
690.871	0.0148890
690.950	0.0147623
691.028	0.0149430
691.106	0.0148510
691.184	0.0146095
691.262	0.0146239
691.340	0.0143780
691.418	0.0144296
691.496	0.0142086
691.575	0.0142094
691.653	0.0140044
691.731	0.0139199
691.809	0.0139786
691.887	0.0138473
691.965	0.0138019
692.043	0.0139670
692.121	0.0138252
692.200	0.0139185
692.278	0.0140386
692.356	0.0141653
692.434	0.0141382
692.512	0.0143725
692.590	0.0145982
692.668	0.0147892
692.746	0.0148658
692.825	0.0149283
692.903	0.0151911
692.981	0.0152098
693.059	0.0153165
693.137	0.0154980
693.215	0.0154872
693.293	0.0153870
693.371	0.0152972
693.450	0.0151137
693.528	0.0150046
693.606	0.0147543
693.684	0.0144667
693.762	0.0142260
693.840	0.0138760
693.918	0.0138670
693.996	0.0137089
694.075	0.0135480
694.153	0.0136661
694.231	0.0135787
694.309	0.0136017
694.387	0.0137579
694.465	0.0139523
694.543	0.0140112
694.621	0.0140327
694.700	0.0141051
694.778	0.0142405
694.856	0.0142283
694.934	0.0143371
695.012	0.0143202
695.090	0.0145063
695.168	0.0145490
695.246	0.0147221
695.325	0.0148042
695.403	0.0149501
695.481	0.0150114
695.559	0.0150817
695.637	0.0151756
695.715	0.0152670
695.793	0.0152457
695.871	0.0151775
695.950	0.0149634
696.028	0.0150327
696.106	0.0148677
696.184	0.0148489
696.262	0.0147401
696.340	0.0144603
696.418	0.0142571
696.496	0.0140681
696.575	0.0138469
696.653	0.0137123
696.731	0.0136244
696.809	0.0135777
696.887	0.0135352
696.965	0.0136723
697.043	0.0136607
697.121	0.0139100
697.200	0.0142593
697.278	0.0142970
697.356	0.0145618
697.434	0.0147487
697.512	0.0146613
697.590	0.0148111
697.668	0.0148020
697.746	0.0148566
697.825	0.0147598
697.903	0.0147623
697.981	0.0147698
698.059	0.0147593
698.137	0.0146309
698.215	0.0145159
698.293	0.0146127
698.371	0.0146957
698.450	0.0148174
698.528	0.0146037
698.606	0.0147152
698.684	0.0146573
698.762	0.0147018
698.840	0.0146701
698.918	0.0145588
698.996	0.0145341
699.075	0.0143588
699.153	0.0143073
699.231	0.0144566
699.309	0.0142190
699.387	0.0142205
699.465	0.0140766
699.543	0.0140169
699.621	0.0140725
699.700	0.0140025
699.778	0.0140560
699.856	0.0139927
699.934	0.0141363
700.012	0.0142100
700.090	0.0141337
700.168	0.0144026
700.246	0.0145041
700.325	0.0146062
700.403	0.0148911
700.481	0.0150078
700.559	0.0148663
700.637	0.0149815
700.715	0.0148600
700.793	0.0149469
700.871	0.0149531
700.950	0.0147297
701.028	0.0145609
701.106	0.0145641
701.184	0.0146873
701.262	0.0144319
701.340	0.0144065
701.418	0.0144895
701.496	0.0146185
701.575	0.0144588
701.653	0.0144082
701.731	0.0142059
701.809	0.0141721
701.887	0.0142239
701.965	0.0141129
702.043	0.0139864
702.121	0.0140292
702.200	0.0139466
702.278	0.0140775
702.356	0.0143110
702.434	0.0144542
702.512	0.0145365
702.590	0.0147066
702.668	0.0149397
702.746	0.0148042
702.825	0.0148206
702.903	0.0148721
702.981	0.0149722
703.059	0.0149245
703.137	0.0148662
703.215	0.0148487
703.293	0.0148473
703.371	0.0148827
703.450	0.0148362
703.528	0.0146220
703.606	0.0146973
703.684	0.0146800
703.762	0.0147797
703.840	0.0146485
703.918	0.0146957
703.996	0.0147608
704.075	0.0147494
704.153	0.0146705
704.231	0.0146137
704.309	0.0144951
704.387	0.0144056
704.465	0.0142045
704.543	0.0141270
704.621	0.0141929
704.700	0.0140440
704.778	0.0139091
704.856	0.0140204
704.934	0.0139834
705.012	0.0140203
705.090	0.0139648
705.168	0.0142255
705.246	0.0144389
705.325	0.0144230
705.403	0.0145088
705.481	0.0147577
705.559	0.0148443
705.637	0.0148972
705.715	0.0149609
705.793	0.0150058
705.871	0.0151406
705.950	0.0150826
706.028	0.0150018
706.106	0.0150660
706.184	0.0148690
706.262	0.0146918
706.340	0.0145602
706.418	0.0144516
706.496	0.0142052
706.575	0.0141808
706.653	0.0140839
706.731	0.0141547
706.809	0.0140974
706.887	0.0141426
706.965	0.0141010
707.043	0.0142274
707.121	0.0140488
707.200	0.0144895
707.278	0.0145406
707.356	0.0146519
707.434	0.0147120
707.512	0.0147871
707.590	0.0149847
707.668	0.0150019
707.746	0.0149209
707.825	0.0151292
707.903	0.0151461
707.981	0.0149135
708.059	0.0146877
708.137	0.0147672
708.215	0.0145177
708.293	0.0144743
708.371	0.0143977
708.450	0.0143900
708.528	0.0141851
708.606	0.0143656
708.684	0.0142445
708.762	0.0143317
708.840	0.0145304
708.918	0.0145106
708.996	0.0146519
709.075	0.0147584
709.153	0.0148207
709.231	0.0147993
709.309	0.0146571
709.387	0.0148041
709.465	0.0147796
709.543	0.0148190
709.621	0.0146964
709.700	0.0145648
709.778	0.0145540
709.856	0.0145255
709.934	0.0146025
710.012	0.0146812
710.090	0.0146143
710.168	0.0146629
710.246	0.0146366
710.325	0.0147318
710.403	0.0145920
710.481	0.0144997
710.559	0.0146964
710.637	0.0146136
710.715	0.0143681
710.793	0.0145933
710.871	0.0144246
710.950	0.0144601
711.028	0.0144640
711.106	0.0142620
711.184	0.0143517
711.262	0.0143048
711.340	0.0142902
711.418	0.0143731
711.496	0.0146082
711.575	0.0143970
711.653	0.0143835
711.731	0.0144190
711.809	0.0145689
711.887	0.0146864
711.965	0.0147729
712.043	0.0148342
712.121	0.0148853
712.200	0.0148976
712.278	0.0148904
712.356	0.0149100
712.434	0.0150443
712.512	0.0149191
712.590	0.0147556
712.668	0.0147187
712.746	0.0145925
712.825	0.0144604
712.903	0.0145184
712.981	0.0142485
713.059	0.0141914
713.137	0.0140056
713.215	0.0140359
713.293	0.0139646
713.371	0.0138698
713.450	0.0138414
713.528	0.0140168
713.606	0.0140808
713.684	0.0142995
713.762	0.0142313
713.840	0.0144170
713.918	0.0146343
713.996	0.0146684
714.075	0.0146613
714.153	0.0148417
714.231	0.0148550
714.309	0.0148775
714.387	0.0148701
714.465	0.0148206
714.543	0.0148398
714.621	0.0150064
714.700	0.0149876
714.778	0.0148447
714.856	0.0146366
714.934	0.0144418
715.012	0.0145483
715.090	0.0143888
715.168	0.0143392
715.246	0.0143513
715.325	0.0141983
715.403	0.0142782
715.481	0.0141317
715.559	0.0142287
715.637	0.0142438
715.715	0.0142205
715.793	0.0142274
715.871	0.0141035
715.950	0.0142317
716.028	0.0143340
716.106	0.0142693
716.184	0.0144614
716.262	0.0144814
716.340	0.0144527
716.418	0.0146662
716.496	0.0146707
716.575	0.0145992
716.653	0.0148308
716.731	0.0147108
716.809	0.0147902
716.887	0.0147131
716.965	0.0148466
717.043	0.0147569
717.121	0.0146432
717.200	0.0146284
717.278	0.0147892
717.356	0.0147385
717.434	0.0145889
717.512	0.0144702
717.590	0.0144686
717.668	0.0144281
717.746	0.0141920
717.825	0.0141875
717.903	0.0142042
717.981	0.0140029
718.059	0.0140359
718.137	0.0141187
718.215	0.0138752
718.293	0.0139453
718.371	0.0140350
718.450	0.0140752
718.528	0.0141934
718.606	0.0142706
718.684	0.0145344
718.762	0.0146374
718.840	0.0146603
718.918	0.0147139
718.996	0.0147857
719.075	0.0148370
719.153	0.0148550
719.231	0.0149519
719.309	0.0148943
719.387	0.0148841
719.465	0.0148048
719.543	0.0148023
719.621	0.0147250
719.700	0.0146669
719.778	0.0146569
719.856	0.0145187
719.934	0.0144643
720.012	0.0145802
720.090	0.0146399
720.168	0.0144813
720.246	0.0143952
720.325	0.0144675
720.403	0.0145230
720.481	0.0143510
720.559	0.0142788
720.637	0.0144778
720.715	0.0143410
720.793	0.0142950
720.871	0.0142323
720.950	0.0141064
721.028	0.0141800
721.106	0.0143825
721.184	0.0142818
721.262	0.0143246
721.340	0.0143273
721.418	0.0145482
721.496	0.0145148
721.575	0.0144881
721.653	0.0145695
721.731	0.0146552
721.809	0.0148004
721.887	0.0147723
721.965	0.0148114
722.043	0.0148505
722.121	0.0148138
722.200	0.0146173
722.278	0.0146693
722.356	0.0146838
722.434	0.0147150
722.512	0.0146039
722.590	0.0146065
722.668	0.0144886
722.746	0.0144955
722.825	0.0145766
722.903	0.0144767
722.981	0.0145272
723.059	0.0145853
723.137	0.0145838
723.215	0.0144638
723.293	0.0144058
723.371	0.0144470
723.450	0.0144452
723.528	0.0144101
723.606	0.0143260
723.684	0.0142549
723.762	0.0142932
723.840	0.0141613
723.918	0.0141766
723.996	0.0143114
724.075	0.0142728
724.153	0.0143595
724.231	0.0144189
724.309	0.0144388
724.387	0.0144524
724.465	0.0146887
724.543	0.0146938
724.621	0.0147802
724.700	0.0147441
724.778	0.0147794
724.856	0.0147692
724.934	0.0147202
725.012	0.0147106
725.090	0.0144878
725.168	0.0143982
725.246	0.0144039
725.325	0.0144296
725.403	0.0143535
725.481	0.0142135
725.559	0.0142808
725.637	0.0142480
725.715	0.0143201
725.793	0.0142310
725.871	0.0142245
725.950	0.0143502
726.028	0.0144137
726.106	0.0144554
726.184	0.0144785
726.262	0.0145728
726.340	0.0146303
726.418	0.0146838
726.496	0.0146481
726.575	0.0146455
726.653	0.0148659
726.731	0.0148781
726.809	0.0147486
726.887	0.0147578
726.965	0.0149100
727.043	0.0147497
727.121	0.0148101
727.200	0.0147834
727.278	0.0147118
727.356	0.0147092
727.434	0.0147033
727.512	0.0146342
727.590	0.0144987
727.668	0.0145452
727.746	0.0146010
727.825	0.0145238
727.903	0.0143945
727.981	0.0144459
728.059	0.0143701
728.137	0.0142662
728.215	0.0142130
728.293	0.0141615
728.371	0.0143314
728.450	0.0144162
728.528	0.0143453
728.606	0.0144836
728.684	0.0143743
728.762	0.0142300
728.840	0.0144524
728.918	0.0143980
728.996	0.0144910
729.075	0.0144936
729.153	0.0146507
729.231	0.0146472
729.309	0.0146794
729.387	0.0145736
729.465	0.0147437
729.543	0.0148293
729.621	0.0147660
729.700	0.0147256
729.778	0.0146642
729.856	0.0147559
729.934	0.0148946
730.012	0.0146419
730.090	0.0145499
730.168	0.0146102
730.246	0.0146524
730.325	0.0144814
730.403	0.0144743
730.481	0.0143106
730.559	0.0144544
730.637	0.0142711
730.715	0.0144176
730.793	0.0143350
730.871	0.0145420
730.950	0.0144889
731.028	0.0143759
731.106	0.0143932
731.184	0.0145263
731.262	0.0146365
731.340	0.0147120
731.418	0.0148020
731.496	0.0147275
731.575	0.0147464
731.653	0.0147398
731.731	0.0146953
731.809	0.0147726
731.887	0.0147432
731.965	0.0148316
732.043	0.0148368
732.121	0.0147925
732.200	0.0146884
732.278	0.0145626
732.356	0.0146222
732.434	0.0144605
732.512	0.0144499
732.590	0.0144275
732.668	0.0142858
732.746	0.0143262
732.825	0.0141648
732.903	0.0141010
732.981	0.0140038
733.059	0.0141199
733.137	0.0142698
733.215	0.0141867
733.293	0.0142419
733.371	0.0142685
733.450	0.0143423
733.528	0.0142725
733.606	0.0144935
733.684	0.0144959
733.762	0.0146410
733.840	0.0148203
733.918	0.0148538
733.996	0.0148193
734.075	0.0146957
734.153	0.0149392
734.231	0.0148982
734.309	0.0149493
734.387	0.0149468
734.465	0.0149087
734.543	0.0147533
734.621	0.0147208
734.700	0.0147382
734.778	0.0145379
734.856	0.0144706
734.934	0.0145458
735.012	0.0143163
735.090	0.0143491
735.168	0.0144991
735.246	0.0143600
735.325	0.0142383
735.403	0.0142513
735.481	0.0140662
735.559	0.0140326
735.637	0.0141892
735.715	0.0141471
735.793	0.0141933
735.871	0.0142392
735.950	0.0141423
736.028	0.0142836
736.106	0.0142429
736.184	0.0144007
736.262	0.0144608
736.340	0.0144528
736.418	0.0146733
736.496	0.0147186
736.575	0.0148020
736.653	0.0146024
736.731	0.0146586
736.809	0.0146516
736.887	0.0147065
736.965	0.0147453
737.043	0.0145231
737.121	0.0146405
737.200	0.0146371
737.278	0.0146378
737.356	0.0146357
737.434	0.0144638
737.512	0.0145480
737.590	0.0144201
737.668	0.0143817
737.746	0.0143765
737.825	0.0143406
737.903	0.0143102
737.981	0.0142857
738.059	0.0142822
738.137	0.0142723
738.215	0.0144283
738.293	0.0144170
738.371	0.0144366
738.450	0.0143472
738.528	0.0145781
738.606	0.0142975
738.684	0.0144790
738.762	0.0145671
738.840	0.0145106
738.918	0.0146833
738.996	0.0146683
739.075	0.0146841
739.153	0.0146602
739.231	0.0145627
739.309	0.0145786
739.387	0.0147562
739.465	0.0146732
739.543	0.0146429
739.621	0.0145831
739.700	0.0145131
739.778	0.0145402
739.856	0.0143587
739.934	0.0142576
740.012	0.0143587
740.090	0.0141654
740.168	0.0142143
740.246	0.0143261
740.325	0.0142301
740.403	0.0142523
740.481	0.0144041
740.559	0.0142817
740.637	0.0142413
740.715	0.0141841
740.793	0.0143106
740.871	0.0143392
740.950	0.0144456
741.028	0.0144740
741.106	0.0142834
741.184	0.0143667
741.262	0.0145029
741.340	0.0143842
741.418	0.0145399
741.496	0.0145722
741.575	0.0145805
741.653	0.0146445
741.731	0.0146877
741.809	0.0146545
741.887	0.0146679
741.965	0.0146025
742.043	0.0146774
742.121	0.0146471
742.200	0.0146516
742.278	0.0145126
742.356	0.0144804
742.434	0.0144460
742.512	0.0144814
742.590	0.0143252
742.668	0.0143302
742.746	0.0144392
742.825	0.0142522
742.903	0.0143155
742.981	0.0142460
743.059	0.0141932
743.137	0.0143009
743.215	0.0143703
743.293	0.0144539
743.371	0.0143046
743.450	0.0143235
743.528	0.0142527
743.606	0.0144573
743.684	0.0144579
743.762	0.0144077
743.840	0.0145248
743.918	0.0147311
743.996	0.0146535
744.075	0.0146027
744.153	0.0146001
744.231	0.0146509
744.309	0.0146146
744.387	0.0146461
744.465	0.0146515
744.543	0.0147050
744.621	0.0145855
744.700	0.0146562
744.778	0.0146803
744.856	0.0144885
744.934	0.0144080
745.012	0.0144707
745.090	0.0144365
745.168	0.0144128
745.246	0.0144477
745.325	0.0142895
745.403	0.0143636
745.481	0.0143608
745.559	0.0143414
745.637	0.0142821
745.715	0.0143391
745.793	0.0143845
745.871	0.0143240
745.950	0.0144601
746.028	0.0144898
746.106	0.0145457
746.184	0.0146335
746.262	0.0145885
746.340	0.0145966
746.418	0.0147047
746.496	0.0148325
746.575	0.0147225
746.653	0.0146613
746.731	0.0147978
746.809	0.0148060
746.887	0.0148815
746.965	0.0147226
747.043	0.0147060
747.121	0.0147118
747.200	0.0147066
747.278	0.0145066
747.356	0.0145909
747.434	0.0145625
747.512	0.0145695
747.590	0.0143909
747.668	0.0143822
747.746	0.0146178
747.825	0.0145131
747.903	0.0144749
747.981	0.0143674
748.059	0.0145232
748.137	0.0145341
748.215	0.0144683
748.293	0.0145433
748.371	0.0144746
748.450	0.0144093
748.528	0.0144234
748.606	0.0145451
748.684	0.0146091
748.762	0.0144785
748.840	0.0146037
748.918	0.0144236
748.996	0.0144180
749.075	0.0143974
749.153	0.0144765
749.231	0.0145267
749.309	0.0146259
749.387	0.0145267
749.465	0.0145883
749.543	0.0147268
749.621	0.0147693
749.700	0.0145065
749.778	0.0145408
749.856	0.0146575
749.934	0.0146593
750.012	0.0145558
750.090	0.0144819
750.168	0.0144292
750.246	0.0145365
750.325	0.0144965
750.403	0.0143829
750.481	0.0146771
750.559	0.0145108
750.637	0.0145043
750.715	0.0144791
750.793	0.0144737
750.871	0.0146114
750.950	0.0144791
751.028	0.0146050
751.106	0.0145662
751.184	0.0144375
751.262	0.0145361
751.340	0.0146287
751.418	0.0146029
751.496	0.0145849
751.575	0.0146055
751.653	0.0146897
751.731	0.0146407
751.809	0.0147443
751.887	0.0146023
751.965	0.0147277
752.043	0.0145308
752.121	0.0147686
752.200	0.0145804
752.278	0.0145176
752.356	0.0145642
752.434	0.0146906
752.512	0.0146400
752.590	0.0146096
752.668	0.0143582
752.746	0.0145289
752.825	0.0144167
752.903	0.0144942
752.981	0.0145099
753.059	0.0144741
753.137	0.0143594
753.215	0.0143481
753.293	0.0144462
753.371	0.0143880
753.450	0.0144792
753.528	0.0144924
753.606	0.0143884
753.684	0.0144134
753.762	0.0145077
753.840	0.0144760
753.918	0.0146221
753.996	0.0146515
754.075	0.0145641
754.153	0.0145668
754.231	0.0146195
754.309	0.0145969
754.387	0.0145681
754.465	0.0145113
754.543	0.0146066
754.621	0.0146339
754.700	0.0145459
754.778	0.0147392
754.856	0.0146340
754.934	0.0145551
755.012	0.0145822
755.090	0.0145943
755.168	0.0146078
755.246	0.0147452
755.325	0.0146336
755.403	0.0145370
755.481	0.0145598
755.559	0.0145131
755.637	0.0144161
755.715	0.0146346
755.793	0.0144545
755.871	0.0144230
755.950	0.0144847
756.028	0.0145958
756.106	0.0146320
756.184	0.0145559
756.262	0.0145000
756.340	0.0144981
756.418	0.0144970
756.496	0.0144463
756.575	0.0145954
756.653	0.0144868
756.731	0.0142861
756.809	0.0143031
756.887	0.0145194
756.965	0.0144838
757.043	0.0144491
757.121	0.0144321
757.200	0.0144339
757.278	0.0144894
757.356	0.0143587
757.434	0.0143016
757.512	0.0144213
757.590	0.0144286
757.668	0.0144897
757.746	0.0143932
757.825	0.0144288
757.903	0.0141817
757.981	0.0144056
758.059	0.0146432
758.137	0.0143029
758.215	0.0144028
758.293	0.0144788
758.371	0.0143389
758.450	0.0143869
758.528	0.0146798
758.606	0.0146452
758.684	0.0144424
758.762	0.0144154
758.840	0.0144492
758.918	0.0145490
758.996	0.0144487
759.075	0.0145745
759.153	0.0144308
759.231	0.0144357
759.309	0.0145109
759.387	0.0145005
759.465	0.0143915
759.543	0.0144928
759.621	0.0144331
759.700	0.0145660
759.778	0.0144154
759.856	0.0143970
759.934	0.0143982
760.012	0.0144020
760.090	0.0144850
760.168	0.0143420
760.246	0.0143919
760.325	0.0143941
760.403	0.0144221
760.481	0.0144569
760.559	0.0143941
760.637	0.0143340
760.715	0.0145540
760.793	0.0143797
760.871	0.0144765
760.950	0.0145629
761.028	0.0143848
761.106	0.0143781
761.184	0.0144414
761.262	0.0142949
761.340	0.0144625
761.418	0.0144060
761.496	0.0143027
761.575	0.0143861
761.653	0.0142541
761.731	0.0143591
761.809	0.0143621
761.887	0.0143798
761.965	0.0143887
762.043	0.0144984
762.121	0.0144855
762.200	0.0142989
762.278	0.0143673
762.356	0.0144384
762.434	0.0143310
762.512	0.0144696
762.590	0.0143951
762.668	0.0143653
762.746	0.0142748
762.825	0.0144297
762.903	0.0145994
762.981	0.0144362
763.059	0.0144700
763.137	0.0145625
763.215	0.0144637
763.293	0.0145123
763.371	0.0144369
763.450	0.0143643
763.528	0.0143752
763.606	0.0145135
763.684	0.0145143
763.762	0.0143919
763.840	0.0144327
763.918	0.0145267
763.996	0.0142950
764.075	0.0143459
764.153	0.0144169
764.231	0.0145130
764.309	0.0144708
764.387	0.0143635
764.465	0.0145307
764.543	0.0144446
764.621	0.0146243
764.700	0.0145826
764.778	0.0144978
764.856	0.0143523
764.934	0.0145069
765.012	0.0145971
765.090	0.0145267
765.168	0.0144749
765.246	0.0144521
765.325	0.0145603
765.403	0.0144666
765.481	0.0145001
765.559	0.0145763
765.637	0.0144386
765.715	0.0145255
765.793	0.0145502
765.871	0.0146137
765.950	0.0144221
766.028	0.0145124
766.106	0.0145282
766.184	0.0145196
766.262	0.0144634
766.340	0.0144042
766.418	0.0144282
766.496	0.0145344
766.575	0.0145260
766.653	0.0145050
766.731	0.0145751
766.809	0.0145880
766.887	0.0144642
766.965	0.0145001
767.043	0.0146426
767.121	0.0145336
767.200	0.0145980
767.278	0.0145579
767.356	0.0145625
767.434	0.0144095
767.512	0.0145335
767.590	0.0146122
767.668	0.0144167
767.746	0.0145808
767.825	0.0146838
767.903	0.0146247
767.981	0.0145858
768.059	0.0146436
768.137	0.0145482
768.215	0.0146680
768.293	0.0146082
768.371	0.0145493
768.450	0.0145026
768.528	0.0145787
768.606	0.0145661
768.684	0.0146668
768.762	0.0146151
768.840	0.0145609
768.918	0.0143909
768.996	0.0145432
769.075	0.0145061
769.153	0.0146120
769.231	0.0146235
769.309	0.0144648
769.387	0.0145617
769.465	0.0147038
769.543	0.0146296
769.621	0.0144763
769.700	0.0144981
769.778	0.0145379
769.856	0.0146401
769.934	0.0144903
770.012	0.0145998
770.090	0.0144080
770.168	0.0144662
770.246	0.0146125
770.325	0.0145632
770.403	0.0144079
770.481	0.0145435
770.559	0.0145428
770.637	0.0145831
770.715	0.0144181
770.793	0.0146112
770.871	0.0145227
770.950	0.0146565
771.028	0.0144122
771.106	0.0144885
771.184	0.0144769
771.262	0.0145494
771.340	0.0143780
771.418	0.0144238
771.496	0.0143749
771.575	0.0145042
771.653	0.0144769
771.731	0.0144007
771.809	0.0144246
771.887	0.0144736
771.965	0.0144950
772.043	0.0144173
772.121	0.0143680
772.200	0.0145128
772.278	0.0145026
772.356	0.0144997
772.434	0.0144946
772.512	0.0145069
772.590	0.0145831
772.668	0.0145319
772.746	0.0146333
772.825	0.0147198
772.903	0.0145088
772.981	0.0144173
773.059	0.0145761
773.137	0.0144919
773.215	0.0145743
773.293	0.0144819
773.371	0.0146002
773.450	0.0144594
773.528	0.0144783
773.606	0.0144658
773.684	0.0144707
773.762	0.0146999
773.840	0.0145177
773.918	0.0144389
773.996	0.0144650
774.075	0.0145083
774.153	0.0145117
774.231	0.0145450
774.309	0.0145322
774.387	0.0144250
774.465	0.0144572
774.543	0.0144496
774.621	0.0146352
774.700	0.0145378
774.778	0.0146767
774.856	0.0145053
774.934	0.0144074
775.012	0.0144801
775.090	0.0145201
775.168	0.0145930
775.246	0.0145637
775.325	0.0145186
775.403	0.0145029
775.481	0.0143793
775.559	0.0145731
775.637	0.0144524
775.715	0.0144730
775.793	0.0144239
775.871	0.0144595
775.950	0.0145253
776.028	0.0145347
776.106	0.0146445
776.184	0.0145074
776.262	0.0145078
776.340	0.0144511
776.418	0.0145956
776.496	0.0144970
776.575	0.0144526
776.653	0.0144998
776.731	0.0146152
776.809	0.0146318
776.887	0.0145011
776.965	0.0145590
777.043	0.0145490
777.121	0.0145833
777.200	0.0147016
777.278	0.0144616
777.356	0.0146101
777.434	0.0147517
777.512	0.0145322
777.590	0.0144381
777.668	0.0145504
777.746	0.0146236
777.825	0.0144502
777.903	0.0145615
777.981	0.0145932
778.059	0.0146388
778.137	0.0147109
778.215	0.0145828
778.293	0.0146259
778.371	0.0145267
778.450	0.0145608
778.528	0.0145985
778.606	0.0144914
778.684	0.0144395
778.762	0.0144878
778.840	0.0144730
778.918	0.0144173
778.996	0.0143990
779.075	0.0145362
779.153	0.0144771
779.231	0.0144637
779.309	0.0143877
779.387	0.0144775
779.465	0.0144669
779.543	0.0144229
779.621	0.0145401
779.700	0.0145036
779.778	0.0144763
779.856	0.0144032
779.934	0.0143777
780.012	0.0145998
780.090	0.0145947
780.168	0.0145474
780.246	0.0145090
780.325	0.0145512
780.403	0.0144765
780.481	0.0144131
780.559	0.0146564
780.637	0.0143795
780.715	0.0144464
780.793	0.0146909
780.871	0.0145888
780.950	0.0145849
781.028	0.0145203
781.106	0.0144543
781.184	0.0144864
781.262	0.0146139
781.340	0.0146581
781.418	0.0145368
781.496	0.0144626
781.575	0.0144775
781.653	0.0147027
781.731	0.0146125
781.809	0.0145394
781.887	0.0146684
781.965	0.0146569
782.043	0.0145742
782.121	0.0145554
782.200	0.0145379
782.278	0.0147477
782.356	0.0145806
782.434	0.0146173
782.512	0.0145194
782.590	0.0145969
782.668	0.0144365
782.746	0.0145471
782.825	0.0145153
782.903	0.0145211
782.981	0.0145639
783.059	0.0145285
783.137	0.0145307
783.215	0.0145585
783.293	0.0144673
783.371	0.0144485
783.450	0.0145531
783.528	0.0144157
783.606	0.0143987
783.684	0.0143769
783.762	0.0144253
783.840	0.0142711
783.918	0.0144785
783.996	0.0144839
784.075	0.0145343
784.153	0.0144086
784.231	0.0143975
784.309	0.0144769
784.387	0.0145428
784.465	0.0146402
784.543	0.0144931
784.621	0.0144623
784.700	0.0145036
784.778	0.0145123
784.856	0.0145464
784.934	0.0145090
785.012	0.0146055
785.090	0.0145812
785.168	0.0144052
785.246	0.0144269
785.325	0.0144703
785.403	0.0145027
785.481	0.0145789
785.559	0.0144659
785.637	0.0144779
785.715	0.0144846
785.793	0.0144361
785.871	0.0145282
785.950	0.0145135
786.028	0.0144112
786.106	0.0144059
786.184	0.0144703
786.262	0.0144409
786.340	0.0144006
786.418	0.0144193
786.496	0.0144804
786.575	0.0143409
786.653	0.0144461
786.731	0.0145544
786.809	0.0144147
786.887	0.0144242
786.965	0.0145174
787.043	0.0145433
787.121	0.0145791
787.200	0.0145311
787.278	0.0145260
787.356	0.0146938
787.434	0.0145531
787.512	0.0145821
787.590	0.0144523
787.668	0.0145632
787.746	0.0146678
787.825	0.0146148
787.903	0.0144743
787.981	0.0144344
788.059	0.0146525
788.137	0.0144517
788.215	0.0144048
788.293	0.0145380
788.371	0.0144566
788.450	0.0145382
788.528	0.0143782
788.606	0.0143572
788.684	0.0143909
788.762	0.0145604
788.840	0.0144382
788.918	0.0144701
788.996	0.0144735
789.075	0.0144868
789.153	0.0145527
789.231	0.0145016
789.309	0.0146122
789.387	0.0145248
789.465	0.0145950
789.543	0.0144699
789.621	0.0145291
789.700	0.0144526
789.778	0.0145638
789.856	0.0145238
789.934	0.0146599
790.012	0.0146399
790.090	0.0146113
790.168	0.0144656
790.246	0.0145750
790.325	0.0145499
790.403	0.0145388
790.481	0.0144497
790.559	0.0145502
790.637	0.0144597
790.715	0.0144981
790.793	0.0143542
790.871	0.0145422
790.950	0.0145127
791.028	0.0144633
791.106	0.0144107
791.184	0.0144692
791.262	0.0143726
791.340	0.0143452
791.418	0.0143669
791.496	0.0144806
791.575	0.0144804
791.653	0.0144053
791.731	0.0144981
791.809	0.0144495
791.887	0.0145323
791.965	0.0143238
792.043	0.0144362
792.121	0.0146370
792.200	0.0145209
792.278	0.0145689
792.356	0.0144530
792.434	0.0145414
792.512	0.0145334
792.590	0.0144380
792.668	0.0144705
792.746	0.0144508
792.825	0.0144670
792.903	0.0144601
792.981	0.0143378
793.059	0.0144897
793.137	0.0144516
793.215	0.0144988
793.293	0.0144069
793.371	0.0144254
793.450	0.0145252
793.528	0.0143726
793.606	0.0144669
793.684	0.0144128
793.762	0.0145168
793.840	0.0143990
793.918	0.0144705
793.996	0.0144582
794.075	0.0143157
794.153	0.0142446
794.231	0.0144428
794.309	0.0145170
794.387	0.0144300
794.465	0.0143179
794.543	0.0143989
794.621	0.0144579
794.700	0.0143401
794.778	0.0143112
794.856	0.0144982
794.934	0.0144239
795.012	0.0143360
795.090	0.0144640
795.168	0.0143531
795.246	0.0144229
795.325	0.0144687
795.403	0.0144006
795.481	0.0145064
795.559	0.0144054
795.637	0.0143720
795.715	0.0143147
795.793	0.0142444
795.871	0.0144187
795.950	0.0144382
796.028	0.0144090
796.106	0.0143909
796.184	0.0143152
796.262	0.0145222
796.340	0.0144633
796.418	0.0143096
796.496	0.0144600
796.575	0.0144827
796.653	0.0143571
796.731	0.0143642
796.809	0.0144532
796.887	0.0144279
796.965	0.0144887
797.043	0.0143023
797.121	0.0143150
797.200	0.0143252
797.278	0.0142799
797.356	0.0144044
797.434	0.0143703
797.512	0.0143793
797.590	0.0144038
797.668	0.0143560
797.746	0.0144047
797.825	0.0144035
797.903	0.0144837
797.981	0.0144707
798.059	0.0144036
798.137	0.0145346
798.215	0.0145226
798.293	0.0143277
798.371	0.0144106
798.450	0.0144177
798.528	0.0144191
798.606	0.0144253
798.684	0.0145553
798.762	0.0144958
798.840	0.0145259
798.918	0.0145550
798.996	0.0144989
799.075	0.0144272
799.153	0.0144337
799.231	0.0145683
799.309	0.0144723
799.387	0.0145611
799.465	0.0147012
799.543	0.0146431
799.621	0.0144997
799.700	0.0144321
799.778	0.0144484
799.856	0.0145085
799.934	0.0145396
800.012	0.0144183
800.090	0.0146451
800.168	0.0144457
800.246	0.0145754
800.325	0.0145615
800.403	0.0145752
800.481	0.0144872
800.559	0.0144685
800.637	0.0144978
800.715	0.0145278
800.793	0.0145210
800.871	0.0144960
800.950	0.0143627
801.028	0.0144460
801.106	0.0144613
801.184	0.0144874
801.262	0.0144396
801.340	0.0144074
801.418	0.0145911
801.496	0.0144791
801.575	0.0144622
801.653	0.0145125
801.731	0.0145628
801.809	0.0143801
801.887	0.0144903
801.965	0.0146156
802.043	0.0145002
802.121	0.0144572
802.200	0.0145622
802.278	0.0144916
802.356	0.0145435
802.434	0.0145641
802.512	0.0145828
802.590	0.0145059
802.668	0.0144817
802.746	0.0144828
802.825	0.0144878
802.903	0.0146062
802.981	0.0144636
803.059	0.0145696
803.137	0.0144891
803.215	0.0145971
803.293	0.0146085
803.371	0.0145970
803.450	0.0145954
803.528	0.0144751
803.606	0.0144807
803.684	0.0146677
803.762	0.0146611
803.840	0.0146006
803.918	0.0145560
803.996	0.0144769
804.075	0.0145070
804.153	0.0145470
804.231	0.0145367
804.309	0.0145894
804.387	0.0145863
804.465	0.0145059
804.543	0.0145566
804.621	0.0144380
804.700	0.0144751
804.778	0.0145462
804.856	0.0145597
804.934	0.0147295
805.012	0.0145196
805.090	0.0144481
805.168	0.0145044
805.246	0.0146449
805.325	0.0144808
805.403	0.0146479
805.481	0.0145187
805.559	0.0145298
805.637	0.0144828
805.715	0.0144650
805.793	0.0143980
805.871	0.0144970
805.950	0.0145499
806.028	0.0146535
806.106	0.0143259
806.184	0.0144378
806.262	0.0144886
806.340	0.0145138
806.418	0.0144839
806.496	0.0145731
806.575	0.0145623
806.653	0.0145816
806.731	0.0144601
806.809	0.0145078
806.887	0.0146678
806.965	0.0145673
807.043	0.0144844
807.121	0.0145467
807.200	0.0144694
807.278	0.0145287
807.356	0.0147109
807.434	0.0145002
807.512	0.0145696
807.590	0.0145770
807.668	0.0143227
807.746	0.0144745
807.825	0.0145815
807.903	0.0146537
807.981	0.0145974
808.059	0.0145821
808.137	0.0145370
808.215	0.0145090
808.293	0.0146638
808.371	0.0146220
808.450	0.0145961
808.528	0.0145098
808.606	0.0144262
808.684	0.0144520
808.762	0.0144756
808.840	0.0145797
808.918	0.0145376
808.996	0.0146342
809.075	0.0145370
809.153	0.0145363
809.231	0.0145522
809.309	0.0144915
809.387	0.0143751
809.465	0.0145234
809.543	0.0145748
809.621	0.0144771
809.700	0.0145101
809.778	0.0145134
809.856	0.0144698
809.934	0.0145087
810.012	0.0144469
810.090	0.0145151
810.168	0.0143501
810.246	0.0143966
810.325	0.0144613
810.403	0.0145124
810.481	0.0143925
810.559	0.0145054
810.637	0.0144342
810.715	0.0145265
810.793	0.0147188
810.871	0.0144940
810.950	0.0144155
811.028	0.0144662
811.106	0.0144338
811.184	0.0143556
811.262	0.0146332
811.340	0.0145963
811.418	0.0145702
811.496	0.0145959
811.575	0.0145917
811.653	0.0144983
811.731	0.0146090
811.809	0.0145114
811.887	0.0145174
811.965	0.0146070
812.043	0.0145739
812.121	0.0145657
812.200	0.0146091
812.278	0.0146256
812.356	0.0145308
812.434	0.0144295
812.512	0.0145763
812.590	0.0145720
812.668	0.0145266
812.746	0.0144392
812.825	0.0144659
812.903	0.0146268
812.981	0.0144866
813.059	0.0144453
813.137	0.0145104
813.215	0.0144131
813.293	0.0145073
813.371	0.0145025
813.450	0.0145905
813.528	0.0145164
813.606	0.0145292
813.684	0.0144924
813.762	0.0145964
813.840	0.0145235
813.918	0.0145480
813.996	0.0145596
814.075	0.0146347
814.153	0.0145766
814.231	0.0145426
814.309	0.0146030
814.387	0.0146641
814.465	0.0145138
814.543	0.0144247
814.621	0.0145727
814.700	0.0145467
814.778	0.0143990
814.856	0.0145383
814.934	0.0145845
815.012	0.0144580
815.090	0.0144870
815.168	0.0144089
815.246	0.0145393
815.325	0.0144596
815.403	0.0146724
815.481	0.0144975
815.559	0.0143907
815.637	0.0144085
815.715	0.0144551
815.793	0.0144652
815.871	0.0145950
815.950	0.0145403
816.028	0.0144437
816.106	0.0143895
816.184	0.0145840
816.262	0.0143388
816.340	0.0144494
816.418	0.0145572
816.496	0.0144437
816.575	0.0144209
816.653	0.0145253
816.731	0.0143930
816.809	0.0145826
816.887	0.0144897
816.965	0.0145136
817.043	0.0144243
817.121	0.0143556
817.200	0.0144449
817.278	0.0145283
817.356	0.0143357
817.434	0.0144229
817.512	0.0144291
817.590	0.0145972
817.668	0.0145322
817.746	0.0145531
817.825	0.0145399
817.903	0.0145732
817.981	0.0144467
818.059	0.0145049
818.137	0.0144445
818.215	0.0144851
818.293	0.0145515
818.371	0.0143745
818.450	0.0143642
818.528	0.0144147
818.606	0.0144196
818.684	0.0144812
818.762	0.0144604
818.840	0.0144934
818.918	0.0144099
818.996	0.0144130
819.075	0.0144574
819.153	0.0143449
819.231	0.0142213
819.309	0.0142093
819.387	0.0143583
819.465	0.0144544
819.543	0.0144127
819.621	0.0145544
819.700	0.0143850
819.778	0.0143509
819.856	0.0143738
819.934	0.0144620
820.012	0.0143330
820.090	0.0143828
820.168	0.0144005
820.246	0.0144696
820.325	0.0144016
820.403	0.0143591
820.481	0.0145369
820.559	0.0143552
820.637	0.0144832
820.715	0.0144684
820.793	0.0143697
820.871	0.0143737
820.950	0.0143816
821.028	0.0144604
821.106	0.0144502
821.184	0.0145906
821.262	0.0144968
821.340	0.0144391
821.418	0.0144089
821.496	0.0143968
821.575	0.0143047
821.653	0.0143659
821.731	0.0143633
821.809	0.0146225
821.887	0.0143407
821.965	0.0143910
822.043	0.0143604
822.121	0.0143900
822.200	0.0143328
822.278	0.0144064
822.356	0.0145559
822.434	0.0144621
822.512	0.0144297
822.590	0.0144136
822.668	0.0144438
822.746	0.0142910
822.825	0.0144926
822.903	0.0145244
822.981	0.0145167
823.059	0.0145187
823.137	0.0145838
823.215	0.0145972
823.293	0.0145428
823.371	0.0145654
823.450	0.0144038
823.528	0.0144138
823.606	0.0145075
823.684	0.0143957
823.762	0.0143408
823.840	0.0145275
823.918	0.0145087
823.996	0.0144451
824.075	0.0144334
824.153	0.0144524
824.231	0.0144471
824.309	0.0143428
824.387	0.0143399
824.465	0.0143885
824.543	0.0143773
824.621	0.0144267
824.700	0.0144152
824.778	0.0145810
824.856	0.0143732
824.934	0.0144759
825.012	0.0143525
825.090	0.0144233
825.168	0.0143861
825.246	0.0146283
825.325	0.0145129
825.403	0.0144865
825.481	0.0144553
825.559	0.0145591
825.637	0.0145164
825.715	0.0145702
825.793	0.0145094
825.871	0.0145866
825.950	0.0145718
826.028	0.0145441
826.106	0.0145426
826.184	0.0145594
826.262	0.0145622
826.340	0.0143774
826.418	0.0145943
826.496	0.0145437
826.575	0.0144736
826.653	0.0145042
826.731	0.0144766
826.809	0.0145705
826.887	0.0143311
826.965	0.0143517
827.043	0.0145047
827.121	0.0145229
827.200	0.0144921
827.278	0.0144493
827.356	0.0144566
827.434	0.0145474
827.512	0.0144334
827.590	0.0143875
827.668	0.0145142
827.746	0.0144309
827.825	0.0144473
827.903	0.0143314
827.981	0.0144481
828.059	0.0146239
828.137	0.0145711
828.215	0.0145674
828.293	0.0144389
828.371	0.0145930
828.450	0.0144167
828.528	0.0145840
828.606	0.0145446
828.684	0.0145959
828.762	0.0146239
828.840	0.0146348
828.918	0.0145190
828.996	0.0145792
829.075	0.0147083
829.153	0.0144917
829.231	0.0146205
829.309	0.0145493
829.387	0.0145787
829.465	0.0146584
829.543	0.0146161
829.621	0.0145142
829.700	0.0146057
829.778	0.0146178
829.856	0.0146403
829.934	0.0146220
830.012	0.0145885
830.090	0.0144057
830.168	0.0145328
830.246	0.0144674
830.325	0.0146700
830.403	0.0145745
830.481	0.0145004
830.559	0.0145078
830.637	0.0145214
830.715	0.0145844
830.793	0.0147079
830.871	0.0146870
830.950	0.0146764
831.028	0.0145638
831.106	0.0146602
831.184	0.0146947
831.262	0.0145225
831.340	0.0147820
831.418	0.0146214
831.496	0.0146149
831.575	0.0145654
831.653	0.0146226
831.731	0.0145357
831.809	0.0144772
831.887	0.0145677
831.965	0.0145849
832.043	0.0145142
832.121	0.0144835
832.200	0.0145035
832.278	0.0145771
832.356	0.0145850
832.434	0.0144215
832.512	0.0145171
832.590	0.0144945
832.668	0.0145903
832.746	0.0144951
832.825	0.0146379
832.903	0.0146596
832.981	0.0146320
833.059	0.0145423
833.137	0.0145471
833.215	0.0146235
833.293	0.0145854
833.371	0.0145471
833.450	0.0145995
833.528	0.0146065
833.606	0.0145761
833.684	0.0145115
833.762	0.0147001
833.840	0.0145897
833.918	0.0146140
833.996	0.0146999
834.075	0.0145189
834.153	0.0146132
834.231	0.0145689
834.309	0.0144955
834.387	0.0146738
834.465	0.0144855
834.543	0.0146454
834.621	0.0145406
834.700	0.0145618
834.778	0.0146215
834.856	0.0145632
834.934	0.0145292
835.012	0.0145345
835.090	0.0144765
835.168	0.0145134
835.246	0.0145925
835.325	0.0146004
835.403	0.0145749
835.481	0.0145284
835.559	0.0146020
835.637	0.0145772
835.715	0.0144910
835.793	0.0145570
835.871	0.0144598
835.950	0.0146021
836.028	0.0145199
836.106	0.0144785
836.184	0.0144601
836.262	0.0145226
836.340	0.0144787
836.418	0.0144463
836.496	0.0145023
836.575	0.0143931
836.653	0.0143810
836.731	0.0144682
836.809	0.0145024
836.887	0.0143903
836.965	0.0143536
837.043	0.0144423
837.121	0.0146116
837.200	0.0145284
837.278	0.0144103
837.356	0.0145557
837.434	0.0144940
837.512	0.0145597
837.590	0.0145116
837.668	0.0145251
837.746	0.0144859
837.825	0.0144722
837.903	0.0146101
837.981	0.0144825
838.059	0.0144753
838.137	0.0144431
838.215	0.0144374
838.293	0.0145007
838.371	0.0143496
838.450	0.0144242
838.528	0.0142729
838.606	0.0143675
838.684	0.0144190
838.762	0.0143359
838.840	0.0143412
838.918	0.0145539
838.996	0.0144453
839.075	0.0146034
839.153	0.0145928
839.231	0.0144893
839.309	0.0144594
839.387	0.0146146
839.465	0.0146390
839.543	0.0145912
839.621	0.0146784
839.700	0.0147267
839.778	0.0145535
839.856	0.0146592
839.934	0.0145464
840.012	0.0145145
840.090	0.0145716
840.168	0.0145940
840.246	0.0144813
840.325	0.0144016
840.403	0.0145503
840.481	0.0144257
840.559	0.0143359
840.637	0.0144279
840.715	0.0143945
840.793	0.0144226
840.871	0.0143391
840.950	0.0143311
841.028	0.0144924
841.106	0.0143677
841.184	0.0142686
841.262	0.0144041
841.340	0.0144391
841.418	0.0143626
841.496	0.0145380
841.575	0.0144944
841.653	0.0145140
841.731	0.0144676
841.809	0.0145303
841.887	0.0146047
841.965	0.0144848
842.043	0.0144743
842.121	0.0145839
842.200	0.0144568
842.278	0.0144245
842.356	0.0146548
842.434	0.0146971
842.512	0.0144914
842.590	0.0144849
842.668	0.0144420
842.746	0.0144019
842.825	0.0144149
842.903	0.0144229
842.981	0.0144050
843.059	0.0143581
843.137	0.0142816
843.215	0.0141648
843.293	0.0142716
843.371	0.0143575
843.450	0.0144557
843.528	0.0143238
843.606	0.0143109
843.684	0.0144782
843.762	0.0143366
843.840	0.0144103
843.918	0.0145067
843.996	0.0144302
844.075	0.0144351
844.153	0.0143979
844.231	0.0145282
844.309	0.0145569
844.387	0.0144152
844.465	0.0144437
844.543	0.0144896
844.621	0.0143340
844.700	0.0144682
844.778	0.0144060
844.856	0.0145657
844.934	0.0145336
845.012	0.0144515
845.090	0.0144401
845.168	0.0145126
845.246	0.0146079
845.325	0.0146052
845.403	0.0145177
845.481	0.0145396
845.559	0.0145290
845.637	0.0144839
845.715	0.0144711
845.793	0.0145064
845.871	0.0142697
845.950	0.0143440
846.028	0.0145346
846.106	0.0143508
846.184	0.0145588
846.262	0.0144285
846.340	0.0144645
846.418	0.0143836
846.496	0.0143924
846.575	0.0144389
846.653	0.0144569
846.731	0.0144058
846.809	0.0144296
846.887	0.0144669
846.965	0.0144882
847.043	0.0145218
847.121	0.0145400
847.200	0.0146053
847.278	0.0145242
847.356	0.0145373
847.434	0.0145686
847.512	0.0146445
847.590	0.0144756
847.668	0.0144671
847.746	0.0145384
847.825	0.0146110
847.903	0.0144732
847.981	0.0144669
848.059	0.0144637
848.137	0.0145222
848.215	0.0144389
848.293	0.0144635
848.371	0.0143855
848.450	0.0142330
848.528	0.0144576
848.606	0.0144125
848.684	0.0143548
848.762	0.0145018
848.840	0.0145212
848.918	0.0143862
848.996	0.0145130
849.075	0.0145349
849.153	0.0144270
849.231	0.0145941
849.309	0.0146476
849.387	0.0145690
849.465	0.0144296
849.543	0.0145506
849.621	0.0144787
849.700	0.0144662
849.778	0.0144354
849.856	0.0145606
849.934	0.0145186
850.012	0.0145078
850.090	0.0144639
850.168	0.0145680
850.246	0.0144852
850.325	0.0146321
850.403	0.0146181
850.481	0.0145471
850.559	0.0144725
850.637	0.0144681
850.715	0.0145646
850.793	0.0145793
850.871	0.0144850
850.950	0.0144110
851.028	0.0143951
851.106	0.0144708
851.184	0.0145332
851.262	0.0144402
851.340	0.0143829
851.418	0.0145094
851.496	0.0145844
851.575	0.0145759
851.653	0.0145153
851.731	0.0144889
851.809	0.0144511
851.887	0.0144984
851.965	0.0144822
852.043	0.0145083
852.121	0.0145026
852.200	0.0144679
852.278	0.0145871
852.356	0.0146124
852.434	0.0145098
852.512	0.0145605
852.590	0.0145535
852.668	0.0146712
852.746	0.0145255
852.825	0.0145534
852.903	0.0145750
852.981	0.0146132
853.059	0.0146071
853.137	0.0144709
853.215	0.0146436
853.293	0.0146317
853.371	0.0146022
853.450	0.0144873
853.528	0.0144870
853.606	0.0144239
853.684	0.0147846
853.762	0.0145399
853.840	0.0144682
853.918	0.0145500
853.996	0.0144620
854.075	0.0145978
854.153	0.0145409
854.231	0.0145494
854.309	0.0146012
854.387	0.0145625
854.465	0.0145647
854.543	0.0146531
854.621	0.0143867
854.700	0.0145766
854.778	0.0145485
854.856	0.0145074
854.934	0.0145477
855.012	0.0144823
855.090	0.0146396
855.168	0.0145392
855.246	0.0146404
855.325	0.0146102
855.403	0.0145589
855.481	0.0145565
855.559	0.0145626
855.637	0.0145824
855.715	0.0144546
855.793	0.0145802
855.871	0.0146587
855.950	0.0145236
856.028	0.0145756
856.106	0.0146136
856.184	0.0145028
856.262	0.0145510
856.340	0.0145374
856.418	0.0145998
856.496	0.0146912
856.575	0.0145603
856.653	0.0145265
856.731	0.0145751
856.809	0.0146290
856.887	0.0145493
856.965	0.0145281
857.043	0.0145560
857.121	0.0145085
857.200	0.0144389
857.278	0.0144694
857.356	0.0146140
857.434	0.0144733
857.512	0.0145000
857.590	0.0147321
857.668	0.0145644
857.746	0.0144929
857.825	0.0146445
857.903	0.0145121
857.981	0.0144818
858.059	0.0145966
858.137	0.0146520
858.215	0.0145813
858.293	0.0144820
858.371	0.0145509
858.450	0.0146248
858.528	0.0146008
858.606	0.0146450
858.684	0.0144983
858.762	0.0146460
858.840	0.0145940
858.918	0.0145264
858.996	0.0146059
859.075	0.0146930
859.153	0.0145621
859.231	0.0145635
859.309	0.0146095
859.387	0.0146357
859.465	0.0145725
859.543	0.0145898
859.621	0.0145261
859.700	0.0144350
859.778	0.0145378
859.856	0.0146405
859.934	0.0146629
860.012	0.0145374
860.090	0.0145049
860.168	0.0145322
860.246	0.0146117
860.325	0.0145875
860.403	0.0144992
860.481	0.0146411
860.559	0.0146046
860.637	0.0144128
860.715	0.0144976
860.793	0.0146716
860.871	0.0144652
860.950	0.0145063
861.028	0.0144934
861.106	0.0145393
861.184	0.0143902
861.262	0.0144021
861.340	0.0146465
861.418	0.0145329
861.496	0.0144323
861.575	0.0144463
861.653	0.0145039
861.731	0.0144524
861.809	0.0146653
861.887	0.0145104
861.965	0.0144299
862.043	0.0144834
862.121	0.0144942
862.200	0.0146404
862.278	0.0144164
862.356	0.0144041
862.434	0.0145278
862.512	0.0145414
862.590	0.0144736
862.668	0.0143390
862.746	0.0144874
862.825	0.0145321
862.903	0.0143833
862.981	0.0145081
863.059	0.0145921
863.137	0.0144804
863.215	0.0146064
863.293	0.0144849
863.371	0.0144655
863.450	0.0145880
863.528	0.0145755
863.606	0.0144423
863.684	0.0145899
863.762	0.0145973
863.840	0.0146488
863.918	0.0145618
863.996	0.0145811
864.075	0.0146423
864.153	0.0146002
864.231	0.0145625
864.309	0.0145481
864.387	0.0144750
864.465	0.0146571
864.543	0.0146107
864.621	0.0144967
864.700	0.0144902
864.778	0.0145812
864.856	0.0145209
864.934	0.0144858
865.012	0.0146008
865.090	0.0145680
865.168	0.0144516
865.246	0.0144951
865.325	0.0145161
865.403	0.0143191
865.481	0.0145368
865.559	0.0144749
865.637	0.0144135
865.715	0.0145879
865.793	0.0145263
865.871	0.0145238
865.950	0.0143580
866.028	0.0143799
866.106	0.0143677
866.184	0.0144392
866.262	0.0144838
866.340	0.0144640
866.418	0.0143503
866.496	0.0143159
866.575	0.0143669
866.653	0.0144116
866.731	0.0144485
866.809	0.0143574
866.887	0.0144291
866.965	0.0144261
867.043	0.0143735
867.121	0.0145383
867.200	0.0144028
867.278	0.0144002
867.356	0.0144962
867.434	0.0145224
867.512	0.0145110
867.590	0.0145592
867.668	0.0144632
867.746	0.0144566
867.825	0.0145960
867.903	0.0145914
867.981	0.0145861
868.059	0.0144765
868.137	0.0145683
868.215	0.0146156
868.293	0.0146555
868.371	0.0146586
868.450	0.0145473
868.528	0.0146935
868.606	0.0145808
868.684	0.0146392
868.762	0.0146346
868.840	0.0145816
868.918	0.0145589
868.996	0.0146661
869.075	0.0146292
869.153	0.0143906
869.231	0.0144896
869.309	0.0145884
869.387	0.0145988
869.465	0.0143704
869.543	0.0145031
869.621	0.0144848
869.700	0.0145180
869.778	0.0144942
869.856	0.0144816
869.934	0.0143465
870.012	0.0145808
870.090	0.0145235
870.168	0.0145633
870.246	0.0146445
870.325	0.0144879
870.403	0.0144542
870.481	0.0145512
870.559	0.0144948
870.637	0.0145837
870.715	0.0146188
870.793	0.0145619
870.871	0.0145902
870.950	0.0145747
871.028	0.0146896
871.106	0.0146512
871.184	0.0146242
871.262	0.0143515
871.340	0.0144443
871.418	0.0146113
871.496	0.0145579
871.575	0.0145861
871.653	0.0145390
871.731	0.0145865
871.809	0.0145155
871.887	0.0144463
871.965	0.0143903
872.043	0.0145509
872.121	0.0144839
872.200	0.0144444
872.278	0.0143816
872.356	0.0143781
872.434	0.0143414
872.512	0.0144288
872.590	0.0144366
872.668	0.0145793
872.746	0.0144181
872.825	0.0145067
872.903	0.0145718
872.981	0.0145262
873.059	0.0145440
873.137	0.0146104
873.215	0.0145458
873.293	0.0145219
873.371	0.0145285
873.450	0.0146096
873.528	0.0147427
873.606	0.0145403
873.684	0.0145345
873.762	0.0144717
873.840	0.0146078
873.918	0.0146235
873.996	0.0144736
874.075	0.0145209
874.153	0.0145888
874.231	0.0145326
874.309	0.0146705
874.387	0.0144863
874.465	0.0146054
874.543	0.0144584
874.621	0.0146511
874.700	0.0145035
874.778	0.0144618
874.856	0.0144301
874.934	0.0145024
875.012	0.0144510
875.090	0.0144241
875.168	0.0144627
875.246	0.0144230
875.325	0.0144797
875.403	0.0145538
875.481	0.0144569
875.559	0.0144358
875.637	0.0144817
875.715	0.0144836
875.793	0.0143759
875.871	0.0143995
875.950	0.0142249
876.028	0.0143934
876.106	0.0146783
876.184	0.0145470
876.262	0.0145465
876.340	0.0146031
876.418	0.0145398
876.496	0.0145654
876.575	0.0144791
876.653	0.0146924
876.731	0.0145811
876.809	0.0146307
876.887	0.0145142
876.965	0.0145345
877.043	0.0144586
877.121	0.0144582
877.200	0.0145940
877.278	0.0145611
877.356	0.0146858
877.434	0.0145327
877.512	0.0145630
877.590	0.0146260
877.668	0.0145263
877.746	0.0145364
877.825	0.0145399
877.903	0.0146746
877.981	0.0145641
878.059	0.0144727
878.137	0.0145013
878.215	0.0145078
878.293	0.0146163
878.371	0.0144788
878.450	0.0144906
878.528	0.0144022
878.606	0.0144479
878.684	0.0144642
878.762	0.0144508
878.840	0.0144316
878.918	0.0145950
878.996	0.0144718
879.075	0.0143454
879.153	0.0146369
879.231	0.0144411
879.309	0.0144496
879.387	0.0144945
879.465	0.0147281
879.543	0.0144732
879.621	0.0145464
879.700	0.0145070
879.778	0.0144735
879.856	0.0145348
879.934	0.0145723
880.012	0.0145903
880.090	0.0147012
880.168	0.0145009
880.246	0.0145108
880.325	0.0146751
880.403	0.0145711
880.481	0.0145204
880.559	0.0146825
880.637	0.0144866
880.715	0.0145242
880.793	0.0145315
880.871	0.0144585
880.950	0.0144395
881.028	0.0144730
881.106	0.0144341
881.184	0.0144042
881.262	0.0144102
881.340	0.0145602
881.418	0.0143845
881.496	0.0143141
881.575	0.0144694
881.653	0.0144791
881.731	0.0144327
881.809	0.0145117
881.887	0.0144177
881.965	0.0144312
882.043	0.0145979
882.121	0.0145570
882.200	0.0144399
882.278	0.0145483
882.356	0.0146089
882.434	0.0144983
882.512	0.0145417
882.590	0.0147369
882.668	0.0145776
882.746	0.0145274
882.825	0.0146449
882.903	0.0145897
882.981	0.0145453
883.059	0.0144718
883.137	0.0144790
883.215	0.0143717
883.293	0.0142667
883.371	0.0144576
883.450	0.0145594
883.528	0.0143956
883.606	0.0143378
883.684	0.0143542
883.762	0.0144116
883.840	0.0144805
883.918	0.0145426
883.996	0.0143356
884.075	0.0144003
884.153	0.0144653
884.231	0.0146428
884.309	0.0145401
884.387	0.0145361
884.465	0.0146777
884.543	0.0145903
884.621	0.0146363
884.700	0.0146027
884.778	0.0145344
884.856	0.0146899
884.934	0.0147666
885.012	0.0146583
885.090	0.0144397
885.168	0.0144425
885.246	0.0143832
885.325	0.0144393
885.403	0.0144438
885.481	0.0143816
885.559	0.0144254
885.637	0.0144771
885.715	0.0144527
885.793	0.0142855
885.871	0.0143587
885.950	0.0144578
886.028	0.0144903
886.106	0.0143743
886.184	0.0146461
886.262	0.0145341
886.340	0.0144568
886.418	0.0144016
886.496	0.0146737
886.575	0.0147091
886.653	0.0145107
886.731	0.0144627
886.809	0.0144658
886.887	0.0145885
886.965	0.0147003
887.043	0.0144878
887.121	0.0146392
887.200	0.0147765
887.278	0.0145588
887.356	0.0145470
887.434	0.0145448
887.512	0.0145594
887.590	0.0145953
887.668	0.0145152
887.746	0.0146449
887.825	0.0144788
887.903	0.0144791
887.981	0.0144178
888.059	0.0144213
888.137	0.0145958
888.215	0.0144664
888.293	0.0143443
888.371	0.0145805
888.450	0.0144479
888.528	0.0144817
888.606	0.0144350
888.684	0.0142975
888.762	0.0145615
888.840	0.0145242
888.918	0.0144859
888.996	0.0145074
889.075	0.0144152
889.153	0.0145815
889.231	0.0143486
889.309	0.0144846
889.387	0.0146719
889.465	0.0145585
889.543	0.0145274
889.621	0.0145332
889.700	0.0145383
889.778	0.0145132
889.856	0.0145313
889.934	0.0144346
890.012	0.0144254
890.090	0.0146876
890.168	0.0144841
890.246	0.0144212
890.325	0.0143773
890.403	0.0145293
890.481	0.0144918
890.559	0.0145432
890.637	0.0144006
890.715	0.0144842
890.793	0.0145819
890.871	0.0144353
890.950	0.0145635
891.028	0.0145362
891.106	0.0146535
891.184	0.0146113
891.262	0.0146091
891.340	0.0144674
891.418	0.0147665
891.496	0.0145833
891.575	0.0145574
891.653	0.0146430
891.731	0.0146505
891.809	0.0147542
891.887	0.0145618
891.965	0.0147040
892.043	0.0147117
892.121	0.0145526
892.200	0.0145319
892.278	0.0146609
892.356	0.0146400
892.434	0.0146426
892.512	0.0145105
892.590	0.0144726
892.668	0.0145107
892.746	0.0144128
892.825	0.0145831
892.903	0.0144880
892.981	0.0144286
893.059	0.0144369
893.137	0.0142878
893.215	0.0143699
893.293	0.0144069
893.371	0.0143546
893.450	0.0144073
893.528	0.0142867
893.606	0.0144287
893.684	0.0145143
893.762	0.0144082
893.840	0.0145271
893.918	0.0145197
893.996	0.0146150
894.075	0.0144773
894.153	0.0144049
894.231	0.0144391
894.309	0.0145337
894.387	0.0147540
894.465	0.0146674
894.543	0.0144473
894.621	0.0145572
894.700	0.0145283
894.778	0.0145396
894.856	0.0144913
894.934	0.0144701
895.012	0.0144591
895.090	0.0144829
895.168	0.0144566
895.246	0.0146227
895.325	0.0145296
895.403	0.0144873
895.481	0.0145644
895.559	0.0145991
895.637	0.0145564
895.715	0.0145068
895.793	0.0145750
895.871	0.0145965
895.950	0.0145052
896.028	0.0144836
896.106	0.0144473
896.184	0.0145315
896.262	0.0144451
896.340	0.0145274
896.418	0.0144418
896.496	0.0144514
896.575	0.0143728
896.653	0.0145428
896.731	0.0144956
896.809	0.0146573
896.887	0.0146278
896.965	0.0146241
897.043	0.0146817
897.121	0.0145618
897.200	0.0145647
897.278	0.0145943
897.356	0.0145541
897.434	0.0146065
897.512	0.0145033
897.590	0.0145086
897.668	0.0146510
897.746	0.0144513
897.825	0.0145460
897.903	0.0145099
897.981	0.0145304
898.059	0.0143832
898.137	0.0143005
898.215	0.0143293
898.293	0.0142039
898.371	0.0141682
898.450	0.0143390
898.528	0.0144598
898.606	0.0143773
898.684	0.0143935
898.762	0.0144888
898.840	0.0145065
898.918	0.0144719
898.996	0.0144416
899.075	0.0145451
899.153	0.0146971
899.231	0.0145285
899.309	0.0146255
899.387	0.0146058
899.465	0.0146520
899.543	0.0147390
899.621	0.0145795
899.700	0.0147173
899.778	0.0147124
899.856	0.0147109
899.934	0.0146539
900.012	0.0147012
900.090	0.0145344
900.168	0.0144672
900.246	0.0146696
900.325	0.0145003
900.403	0.0144466
900.481	0.0144530
900.559	0.0145964
900.637	0.0144379
900.715	0.0144270
900.793	0.0144810
900.871	0.0145643
900.950	0.0144836
901.028	0.0144920
901.106	0.0145338
901.184	0.0145906
901.262	0.0145599
901.340	0.0146015
901.418	0.0144763
901.496	0.0146071
901.575	0.0145451
901.653	0.0145428
901.731	0.0144831
901.809	0.0144730
901.887	0.0146145
901.965	0.0145660
902.043	0.0145278
902.121	0.0145252
902.200	0.0144464
902.278	0.0144664
902.356	0.0145287
902.434	0.0145021
902.512	0.0144076
902.590	0.0144991
902.668	0.0144778
902.746	0.0143574
902.825	0.0144049
902.903	0.0144894
902.981	0.0144443
903.059	0.0143928
903.137	0.0144142
903.215	0.0144149
903.293	0.0144136
903.371	0.0143847
903.450	0.0144579
903.528	0.0144331
903.606	0.0144540
903.684	0.0145391
903.762	0.0146378
903.840	0.0144164
903.918	0.0145716
903.996	0.0145568
904.075	0.0144817
904.153	0.0145060
904.231	0.0144809
904.309	0.0144794
904.387	0.0144720
904.465	0.0145241
904.543	0.0145066
904.621	0.0145480
904.700	0.0143553
904.778	0.0143202
904.856	0.0144530
904.934	0.0145430
905.012	0.0144707
905.090	0.0144406
905.168	0.0144613
905.246	0.0145661
905.325	0.0145736
905.403	0.0145019
905.481	0.0145382
905.559	0.0145356
905.637	0.0145068
905.715	0.0143504
905.793	0.0145893
905.871	0.0146420
905.950	0.0146590
906.028	0.0145538
906.106	0.0146603
906.184	0.0145027
906.262	0.0144289
906.340	0.0145485
906.418	0.0145084
906.496	0.0144336
906.575	0.0146574
906.653	0.0145199
906.731	0.0144083
906.809	0.0143076
906.887	0.0144228
906.965	0.0144376
907.043	0.0144759
907.121	0.0144201
907.200	0.0144695
907.278	0.0145426
907.356	0.0144642
907.434	0.0145347
907.512	0.0144386
907.590	0.0144044
907.668	0.0144402
907.746	0.0144922
907.825	0.0143960
907.903	0.0145112
907.981	0.0145375
908.059	0.0144971
908.137	0.0144731
908.215	0.0145676
908.293	0.0146067
908.371	0.0144200
908.450	0.0145649
908.528	0.0145897
908.606	0.0147137
908.684	0.0143517
908.762	0.0144941
908.840	0.0145383
908.918	0.0145648
908.996	0.0145460
909.075	0.0143781
909.153	0.0145394
909.231	0.0144289
909.309	0.0144051
909.387	0.0144338
909.465	0.0142932
909.543	0.0145190
909.621	0.0145556
909.700	0.0143556
909.778	0.0143877
909.856	0.0143021
909.934	0.0143041
910.012	0.0143633
910.090	0.0144984
910.168	0.0142960
910.246	0.0143240
910.325	0.0146410
910.403	0.0146378
910.481	0.0145677
910.559	0.0145247
910.637	0.0144774
910.715	0.0146394
910.793	0.0146103
910.871	0.0145908
910.950	0.0144933
911.028	0.0145168
911.106	0.0144498
911.184	0.0145048
911.262	0.0146103
911.340	0.0144155
911.418	0.0143923
911.496	0.0145305
911.575	0.0145127
911.653	0.0144614
911.731	0.0144313
911.809	0.0144771
911.887	0.0143886
911.965	0.0144687
912.043	0.0145272
912.121	0.0144852
912.200	0.0144622
912.278	0.0144631
912.356	0.0145597
912.434	0.0144899
912.512	0.0143798
912.590	0.0144052
912.668	0.0144199
912.746	0.0144418
912.825	0.0144713
912.903	0.0142420
912.981	0.0145013
913.059	0.0144611
913.137	0.0144372
913.215	0.0144457
913.293	0.0145634
913.371	0.0146402
913.450	0.0145763
913.528	0.0145243
913.606	0.0146042
913.684	0.0146646
913.762	0.0144974
913.840	0.0145189
913.918	0.0145609
913.996	0.0145232
914.075	0.0144188
914.153	0.0145226
914.231	0.0145916
914.309	0.0144516
914.387	0.0144511
914.465	0.0144833
914.543	0.0145667
914.621	0.0144791
914.700	0.0144762
914.778	0.0145065
914.856	0.0146712
914.934	0.0145979
915.012	0.0145425
915.090	0.0145198
915.168	0.0145996
915.246	0.0143755
915.325	0.0144502
915.403	0.0147004
915.481	0.0145213
915.559	0.0145289
915.637	0.0145018
915.715	0.0144838
915.793	0.0144952
915.871	0.0147312
915.950	0.0145768
916.028	0.0144906
916.106	0.0146039
916.184	0.0145523
916.262	0.0146189
916.340	0.0145934
916.418	0.0144936
916.496	0.0145866
916.575	0.0145947
916.653	0.0146107
916.731	0.0146694
916.809	0.0144437
916.887	0.0145033
916.965	0.0146023
917.043	0.0145921
917.121	0.0145113
917.200	0.0144632
917.278	0.0146216
917.356	0.0145480
917.434	0.0145152
917.512	0.0145155
917.590	0.0144207
917.668	0.0145507
917.746	0.0145010
917.825	0.0144891
917.903	0.0145358
917.981	0.0144808
918.059	0.0144935
918.137	0.0145746
918.215	0.0146217
918.293	0.0145988
918.371	0.0144149
918.450	0.0145157
918.528	0.0144864
918.606	0.0147195
918.684	0.0145811
918.762	0.0143578
918.840	0.0144746
918.918	0.0146031
918.996	0.0145168
919.075	0.0144756
919.153	0.0145409
919.231	0.0145721
919.309	0.0145847
919.387	0.0144664
919.465	0.0143911
919.543	0.0143776
919.621	0.0144897
919.700	0.0144115
919.778	0.0145627
919.856	0.0146076
919.934	0.0144886
920.012	0.0147021
920.090	0.0145387
920.168	0.0144469
920.246	0.0143555
920.325	0.0144452
920.403	0.0145936
920.481	0.0145115
920.559	0.0145689
920.637	0.0144381
920.715	0.0144224
920.793	0.0143813
920.871	0.0146355
920.950	0.0145098
921.028	0.0144627
921.106	0.0145070
921.184	0.0145313
921.262	0.0145615
921.340	0.0144308
921.418	0.0146144
921.496	0.0145667
921.575	0.0144129
921.653	0.0143335
921.731	0.0147117
921.809	0.0145965
921.887	0.0143732
921.965	0.0143830
922.043	0.0143910
922.121	0.0144781
922.200	0.0144704
922.278	0.0144252
922.356	0.0145469
922.434	0.0143822
922.512	0.0143747
922.590	0.0144298
922.668	0.0143894
922.746	0.0143427
922.825	0.0144198
922.903	0.0143434
922.981	0.0143626
923.059	0.0144609
923.137	0.0142895
923.215	0.0144142
923.293	0.0145309
923.371	0.0144530
923.450	0.0144733
923.528	0.0145406
923.606	0.0143404
923.684	0.0143427
923.762	0.0144086
923.840	0.0143287
923.918	0.0144043
923.996	0.0144994
924.075	0.0143418
924.153	0.0143490
924.231	0.0144450
924.309	0.0145509
924.387	0.0143708
924.465	0.0144007
924.543	0.0146109
924.621	0.0145419
924.700	0.0144836
924.778	0.0145284
924.856	0.0144977
924.934	0.0144699
925.012	0.0144653
925.090	0.0144115
925.168	0.0145914
925.246	0.0145263
925.325	0.0143750
925.403	0.0145462
925.481	0.0146295
925.559	0.0145997
925.637	0.0145942
925.715	0.0146127
925.793	0.0145439
925.871	0.0146362
925.950	0.0145972
926.028	0.0147234
926.106	0.0146703
926.184	0.0144668
926.262	0.0146054
926.340	0.0145139
926.418	0.0144918
926.496	0.0145826
926.575	0.0146027
926.653	0.0143980
926.731	0.0144771
926.809	0.0146416
926.887	0.0145297
926.965	0.0145254
927.043	0.0146051
927.121	0.0145934
927.200	0.0146108
927.278	0.0144688
927.356	0.0146010
927.434	0.0146878
927.512	0.0144849
927.590	0.0145381
927.668	0.0145539
927.746	0.0145869
927.825	0.0146410
927.903	0.0146858
927.981	0.0146056
928.059	0.0144807
928.137	0.0143971
928.215	0.0145029
928.293	0.0145626
928.371	0.0146705
928.450	0.0145347
928.528	0.0145227
928.606	0.0145866
928.684	0.0144695
928.762	0.0144464
928.840	0.0146645
928.918	0.0147187
928.996	0.0144735
929.075	0.0144565
929.153	0.0144955
929.231	0.0146516
929.309	0.0145088
929.387	0.0145045
929.465	0.0144965
929.543	0.0145399
929.621	0.0144477
929.700	0.0145530
929.778	0.0146102
929.856	0.0145441
929.934	0.0146532
930.012	0.0145058
930.090	0.0144795
930.168	0.0145921
930.246	0.0145982
930.325	0.0145615
930.403	0.0144345
930.481	0.0146647
930.559	0.0145978
930.637	0.0144958
930.715	0.0145118
930.793	0.0145967
930.871	0.0146723
930.950	0.0146124
931.028	0.0145276
931.106	0.0146438
931.184	0.0145341
931.262	0.0145411
931.340	0.0146294
931.418	0.0144924
931.496	0.0146024
931.575	0.0145756
931.653	0.0146239
931.731	0.0145449
931.809	0.0145335
931.887	0.0145911
931.965	0.0145069
932.043	0.0146470
932.121	0.0145315
932.200	0.0144827
932.278	0.0146326
932.356	0.0146340
932.434	0.0146054
932.512	0.0147192
932.590	0.0146001
932.668	0.0145564
932.746	0.0144885
932.825	0.0145360
932.903	0.0145515
932.981	0.0145556
933.059	0.0145793
933.137	0.0145875
933.215	0.0145656
933.293	0.0145094
933.371	0.0144871
933.450	0.0144256
933.528	0.0145087
933.606	0.0146456
933.684	0.0145068
933.762	0.0145464
933.840	0.0146291
933.918	0.0144934
933.996	0.0144815
934.075	0.0145490
934.153	0.0145122
934.231	0.0143313
934.309	0.0143728
934.387	0.0144244
934.465	0.0145435
934.543	0.0145621
934.621	0.0144869
934.700	0.0143966
934.778	0.0145213
934.856	0.0143661
934.934	0.0143994
935.012	0.0145396
935.090	0.0145718
935.168	0.0145531
935.246	0.0144819
935.325	0.0144936
935.403	0.0146988
935.481	0.0145879
935.559	0.0145887
935.637	0.0146112
935.715	0.0145191
935.793	0.0145087
935.871	0.0146309
935.950	0.0146693
936.028	0.0145094
936.106	0.0145123
936.184	0.0145369
936.262	0.0146484
936.340	0.0145376
936.418	0.0145097
936.496	0.0145702
936.575	0.0145256
936.653	0.0144215
936.731	0.0144149
936.809	0.0144440
936.887	0.0144774
936.965	0.0143764
937.043	0.0143298
937.121	0.0144754
937.200	0.0144442
937.278	0.0144794
937.356	0.0144616
937.434	0.0143444
937.512	0.0143540
937.590	0.0145965
937.668	0.0145657
937.746	0.0144778
937.825	0.0145578
937.903	0.0145512
937.981	0.0145048
938.059	0.0144505
938.137	0.0144481
938.215	0.0144022
938.293	0.0144975
938.371	0.0144556
938.450	0.0144175
938.528	0.0144386
938.606	0.0143526
938.684	0.0143825
938.762	0.0144306
938.840	0.0143180
938.918	0.0144695
938.996	0.0145155
939.075	0.0143618
939.153	0.0143949
939.231	0.0144247
939.309	0.0144749
939.387	0.0145338
939.465	0.0144575
939.543	0.0146028
939.621	0.0145966
939.700	0.0144861
939.778	0.0145728
939.856	0.0145858
939.934	0.0144006
940.012	0.0145242
940.090	0.0145039
940.168	0.0146155
940.246	0.0145390
940.325	0.0145626
940.403	0.0144615
940.481	0.0144012
940.559	0.0145446
940.637	0.0143950
940.715	0.0143906
940.793	0.0146148
940.871	0.0144205
940.950	0.0146422
941.028	0.0146487
941.106	0.0146860
941.184	0.0145101
941.262	0.0146716
941.340	0.0145947
941.418	0.0144646
941.496	0.0145389
941.575	0.0144611
941.653	0.0145827
941.731	0.0145226
941.809	0.0144726
941.887	0.0143999
941.965	0.0144415
942.043	0.0143739
942.121	0.0144726
942.200	0.0143613
942.278	0.0144292
942.356	0.0143924
942.434	0.0144159
942.512	0.0144437
942.590	0.0144669
942.668	0.0145637
942.746	0.0144297
942.825	0.0144948
942.903	0.0144331
942.981	0.0143418
943.059	0.0143063
943.137	0.0143262
943.215	0.0144576
943.293	0.0145004
943.371	0.0144794
943.450	0.0145992
943.528	0.0145381
943.606	0.0144714
943.684	0.0145518
943.762	0.0146133
943.840	0.0144339
943.918	0.0144029
943.996	0.0145418
944.075	0.0144880
944.153	0.0144276
944.231	0.0144526
944.309	0.0144577
944.387	0.0144582
944.465	0.0144462
944.543	0.0143641
944.621	0.0144938
944.700	0.0144403
944.778	0.0142519
944.856	0.0144247
944.934	0.0143915
945.012	0.0143695
945.090	0.0143459
945.168	0.0143840
945.246	0.0144095
945.325	0.0144797
945.403	0.0143290
945.481	0.0144360
945.559	0.0144666
945.637	0.0143974
945.715	0.0145061
945.793	0.0145644
945.871	0.0143522
945.950	0.0143934
946.028	0.0143517
946.106	0.0144682
946.184	0.0144091
946.262	0.0143452
946.340	0.0144641
946.418	0.0143581
946.496	0.0143000
946.575	0.0143541
946.653	0.0145046
946.731	0.0144382
946.809	0.0144620
946.887	0.0144652
946.965	0.0144173
947.043	0.0145963
947.121	0.0145777
947.200	0.0145075
947.278	0.0145245
947.356	0.0144654
947.434	0.0144012
947.512	0.0145490
947.590	0.0143601
947.668	0.0144048
947.746	0.0145804
947.825	0.0145258
947.903	0.0144500
947.981	0.0144233
948.059	0.0144566
948.137	0.0144244
948.215	0.0144541
948.293	0.0145379
948.371	0.0145633
948.450	0.0146270
948.528	0.0146619
948.606	0.0145663
948.684	0.0145589
948.762	0.0145546
948.840	0.0145962
948.918	0.0145505
948.996	0.0146594
949.075	0.0145589
949.153	0.0145521
949.231	0.0145999
949.309	0.0144875
949.387	0.0146449
949.465	0.0146333
949.543	0.0145800
949.621	0.0146018
949.700	0.0145170
949.778	0.0145544
949.856	0.0146916
949.934	0.0145392
950.012	0.0144772
950.090	0.0146256
950.168	0.0145075
950.246	0.0145444
950.325	0.0144406
950.403	0.0146076
950.481	0.0145474
950.559	0.0146391
950.637	0.0146755
950.715	0.0147476
950.793	0.0146242
950.871	0.0146723
950.950	0.0145673
951.028	0.0145642
951.106	0.0148150
951.184	0.0147754
951.262	0.0145621
951.340	0.0146218
951.418	0.0145689
951.496	0.0145681
951.575	0.0145288
951.653	0.0146467
951.731	0.0144903
951.809	0.0143861
951.887	0.0146049
951.965	0.0144768
952.043	0.0145479
952.121	0.0144733
952.200	0.0143648
952.278	0.0144070
952.356	0.0145692
952.434	0.0144873
952.512	0.0143939
952.590	0.0144928
952.668	0.0144263
952.746	0.0144766
952.825	0.0144561
952.903	0.0144363
952.981	0.0144713
953.059	0.0144531
953.137	0.0144641
953.215	0.0144753
953.293	0.0146149
953.371	0.0146283
953.450	0.0145180
953.528	0.0144511
953.606	0.0146039
953.684	0.0145376
953.762	0.0145049
953.840	0.0145890
953.918	0.0145702
953.996	0.0146038
954.075	0.0145264
954.153	0.0144972
954.231	0.0144617
954.309	0.0146247
954.387	0.0146354
954.465	0.0144852
954.543	0.0145190
954.621	0.0145247
954.700	0.0144637
954.778	0.0144873
954.856	0.0144947
954.934	0.0144841
955.012	0.0145135
955.090	0.0145440
955.168	0.0143902
955.246	0.0143464
955.325	0.0145896
955.403	0.0145152
955.481	0.0144966
955.559	0.0143743
955.637	0.0145487
955.715	0.0145377
955.793	0.0146281
955.871	0.0144733
955.950	0.0144265
956.028	0.0144770
956.106	0.0145093
956.184	0.0145037
956.262	0.0144498
956.340	0.0145638
956.418	0.0144424
956.496	0.0144714
956.575	0.0145723
956.653	0.0145597
956.731	0.0144669
956.809	0.0144035
956.887	0.0144883
956.965	0.0145420
957.043	0.0143568
957.121	0.0145018
957.200	0.0144069
957.278	0.0145034
957.356	0.0144260
957.434	0.0144172
957.512	0.0144127
957.590	0.0144360
957.668	0.0143502
957.746	0.0144400
957.825	0.0144749
957.903	0.0145351
957.981	0.0144862
958.059	0.0143771
958.137	0.0145200
958.215	0.0145243
958.293	0.0145277
958.371	0.0144756
958.450	0.0144972
958.528	0.0146211
958.606	0.0146635
958.684	0.0144598
958.762	0.0144748
958.840	0.0144595
958.918	0.0145730
958.996	0.0146065
959.075	0.0144830
959.153	0.0145241
959.231	0.0146475
959.309	0.0144497
959.387	0.0144006
959.465	0.0144852
959.543	0.0145399
959.621	0.0144400
959.700	0.0145277
959.778	0.0145034
959.856	0.0144988
959.934	0.0143607
960.012	0.0144542
960.090	0.0145541
960.168	0.0143425
960.246	0.0143138
960.325	0.0145601
960.403	0.0144823
960.481	0.0143161
960.559	0.0143195
960.637	0.0144231
960.715	0.0144319
960.793	0.0144663
960.871	0.0143304
960.950	0.0144270
961.028	0.0144559
961.106	0.0143682
961.184	0.0144209
961.262	0.0143700
961.340	0.0144814
961.418	0.0143268
961.496	0.0143226
961.575	0.0143969
961.653	0.0142523
961.731	0.0143514
961.809	0.0142925
961.887	0.0143983
961.965	0.0143771
962.043	0.0143929
962.121	0.0144176
962.200	0.0145103
962.278	0.0145712
962.356	0.0145927
962.434	0.0145596
962.512	0.0146059
962.590	0.0146564
962.668	0.0145778
962.746	0.0145972
962.825	0.0144901
962.903	0.0145536
962.981	0.0145897
963.059	0.0144817
963.137	0.0145977
963.215	0.0145985
963.293	0.0144537
963.371	0.0144176
963.450	0.0144103
963.528	0.0144746
963.606	0.0144731
963.684	0.0144348
963.762	0.0145645
963.840	0.0145410
963.918	0.0144072
963.996	0.0143151
964.075	0.0144209
964.153	0.0145063
964.231	0.0144890
964.309	0.0144949
964.387	0.0146129
964.465	0.0145119
964.543	0.0144661
964.621	0.0145279
964.700	0.0144865
964.778	0.0145245
964.856	0.0145342
964.934	0.0145883
965.012	0.0146139
965.090	0.0145554
965.168	0.0146455
965.246	0.0146334
965.325	0.0145164
965.403	0.0144373
965.481	0.0144832
965.559	0.0143506
965.637	0.0144949
965.715	0.0144835
965.793	0.0143198
965.871	0.0145052
965.950	0.0144084
966.028	0.0145002
966.106	0.0144849
966.184	0.0144238
966.262	0.0144412
966.340	0.0144468
966.418	0.0144712
966.496	0.0145377
966.575	0.0145158
966.653	0.0145885
966.731	0.0145944
966.809	0.0145167
966.887	0.0145070
966.965	0.0147308
967.043	0.0145530
967.121	0.0144928
967.200	0.0145084
967.278	0.0145375
967.356	0.0145110
967.434	0.0143020
967.512	0.0144544
967.590	0.0144716
967.668	0.0144584
967.746	0.0144361
967.825	0.0143935
967.903	0.0143687
967.981	0.0144557
968.059	0.0144884
968.137	0.0143548
968.215	0.0143731
968.293	0.0144940
968.371	0.0144646
968.450	0.0143590
968.528	0.0145700
968.606	0.0143813
968.684	0.0144659
968.762	0.0145838
968.840	0.0144370
968.918	0.0145146
968.996	0.0145279
969.075	0.0144645
969.153	0.0146719
969.231	0.0144909
969.309	0.0145789
969.387	0.0145775
969.465	0.0146654
969.543	0.0145507
969.621	0.0145398
969.700	0.0146381
969.778	0.0146918
969.856	0.0145844
969.934	0.0146082
970.012	0.0145525
970.090	0.0144753
970.168	0.0145301
970.246	0.0145233
970.325	0.0145264
970.403	0.0145302
970.481	0.0145902
970.559	0.0145621
970.637	0.0145636
970.715	0.0145708
970.793	0.0146302
970.871	0.0144870
970.950	0.0144739
971.028	0.0145621
971.106	0.0145583
971.184	0.0145504
971.262	0.0145528
971.340	0.0146259
971.418	0.0146249
971.496	0.0145902
971.575	0.0145432
971.653	0.0144250
971.731	0.0144403
971.809	0.0144304
971.887	0.0145799
971.965	0.0144844
972.043	0.0146029
972.121	0.0145883
972.200	0.0143758
972.278	0.0145816
972.356	0.0144108
972.434	0.0144368
972.512	0.0144254
972.590	0.0145154
972.668	0.0142622
972.746	0.0143691
972.825	0.0144281
972.903	0.0144715
972.981	0.0144765
973.059	0.0145226
973.137	0.0144350
973.215	0.0144317
973.293	0.0144593
973.371	0.0144133
973.450	0.0143266
973.528	0.0144035
973.606	0.0143294
973.684	0.0143017
973.762	0.0144175
973.840	0.0144751
973.918	0.0143954
973.996	0.0145369
974.075	0.0145762
974.153	0.0143302
974.231	0.0143159
974.309	0.0143736
974.387	0.0144318
974.465	0.0143610
974.543	0.0144020
974.621	0.0145200
974.700	0.0146551
974.778	0.0143586
974.856	0.0145650
974.934	0.0145124
975.012	0.0144601
975.090	0.0144488
975.168	0.0145353
975.246	0.0144343
975.325	0.0144923
975.403	0.0144979
975.481	0.0144467
975.559	0.0144901
975.637	0.0145487
975.715	0.0143382
975.793	0.0144186
975.871	0.0144336
975.950	0.0145797
976.028	0.0144908
976.106	0.0143952
976.184	0.0143997
976.262	0.0144063
976.340	0.0144311
976.418	0.0145496
976.496	0.0144968
976.575	0.0145087
976.653	0.0146069
976.731	0.0144436
976.809	0.0144532
976.887	0.0145270
976.965	0.0144709
977.043	0.0144938
977.121	0.0144453
977.200	0.0143289
977.278	0.0143752
977.356	0.0143460
977.434	0.0144375
977.512	0.0144699
977.590	0.0144464
977.668	0.0145284
977.746	0.0145084
977.825	0.0144289
977.903	0.0146198
977.981	0.0144468
978.059	0.0144775
978.137	0.0144504
978.215	0.0143256
978.293	0.0144748
978.371	0.0144460
978.450	0.0145027
978.528	0.0143854
978.606	0.0144351
978.684	0.0144417
978.762	0.0145248
978.840	0.0146230
978.918	0.0145293
978.996	0.0144893
979.075	0.0143571
979.153	0.0143275
979.231	0.0145135
979.309	0.0144941
979.387	0.0144161
979.465	0.0145589
979.543	0.0145386
979.621	0.0145483
979.700	0.0144962
979.778	0.0144211
979.856	0.0144554
979.934	0.0144545
980.012	0.0145533
980.090	0.0144704
980.168	0.0143353
980.246	0.0145049
980.325	0.0144172
980.403	0.0143251
980.481	0.0143575
980.559	0.0143804
980.637	0.0144717
980.715	0.0144626
980.793	0.0143428
980.871	0.0143547
980.950	0.0143097
981.028	0.0144696
981.106	0.0146585
981.184	0.0143092
981.262	0.0143989
981.340	0.0143951
981.418	0.0145409
981.496	0.0145428
981.575	0.0145174
981.653	0.0144608
981.731	0.0145120
981.809	0.0144300
981.887	0.0146095
981.965	0.0146460
982.043	0.0144809
982.121	0.0144766
982.200	0.0144631
982.278	0.0145581
982.356	0.0143646
982.434	0.0143556
982.512	0.0143536
982.590	0.0144964
982.668	0.0144873
982.746	0.0145100
982.825	0.0142420
982.903	0.0143617
982.981	0.0145450
983.059	0.0143702
983.137	0.0143667
983.215	0.0145289
983.293	0.0145840
983.371	0.0144240
983.450	0.0144650
983.528	0.0144341
983.606	0.0144025
983.684	0.0145020
983.762	0.0144249
983.840	0.0143990
983.918	0.0145139
983.996	0.0143793
984.075	0.0142724
984.153	0.0146428
984.231	0.0145737
984.309	0.0144998
984.387	0.0146077
984.465	0.0145220
984.543	0.0144981
984.621	0.0146287
984.700	0.0145115
984.778	0.0145596
984.856	0.0147191
984.934	0.0146268
985.012	0.0145633
985.090	0.0145454
985.168	0.0145603
985.246	0.0145761
985.325	0.0145271
985.403	0.0145871
985.481	0.0145593
985.559	0.0145541
985.637	0.0144598
985.715	0.0144220
985.793	0.0143597
985.871	0.0144996
985.950	0.0143346
986.028	0.0144701
986.106	0.0145577
986.184	0.0145056
986.262	0.0144431
986.340	0.0144709
986.418	0.0144897
986.496	0.0144267
986.575	0.0144563
986.653	0.0143852
986.731	0.0145644
986.809	0.0146003
986.887	0.0144005
986.965	0.0145996
987.043	0.0145824
987.121	0.0145763
987.200	0.0146230
987.278	0.0145708
987.356	0.0146330
987.434	0.0147377
987.512	0.0146171
987.590	0.0146837
987.668	0.0146795
987.746	0.0145796
987.825	0.0146625
987.903	0.0144962
987.981	0.0146023
988.059	0.0146117
988.137	0.0146870
988.215	0.0145767
988.293	0.0145442
988.371	0.0144240
988.450	0.0144849
988.528	0.0146375
988.606	0.0145117
988.684	0.0144676
988.762	0.0144521
988.840	0.0144334
988.918	0.0144107
988.996	0.0144816
989.075	0.0144417
989.153	0.0142992
989.231	0.0144231
989.309	0.0143424
989.387	0.0144303
989.465	0.0144300
989.543	0.0145593
989.621	0.0145649
989.700	0.0144847
989.778	0.0145243
989.856	0.0145580
989.934	0.0144803
990.012	0.0145671
990.090	0.0146792
990.168	0.0145995
990.246	0.0146310
990.325	0.0144971
990.403	0.0146880
990.481	0.0147529
990.559	0.0146551
990.637	0.0145207
990.715	0.0145570
990.793	0.0145207
990.871	0.0145252
990.950	0.0145209
991.028	0.0145412
991.106	0.0144199
991.184	0.0145328
991.262	0.0144496
991.340	0.0144242
991.418	0.0143954
991.496	0.0142984
991.575	0.0143843
991.653	0.0143241
991.731	0.0145776
991.809	0.0143909
991.887	0.0142503
991.965	0.0143740
992.043	0.0145647
992.121	0.0144782
992.200	0.0144798
992.278	0.0144595
992.356	0.0145119
992.434	0.0143861
992.512	0.0145187
992.590	0.0146138
992.668	0.0144413
992.746	0.0146088
992.825	0.0145245
992.903	0.0144969
992.981	0.0144807
993.059	0.0146344
993.137	0.0144665
993.215	0.0144786
993.293	0.0144411
993.371	0.0144762
993.450	0.0145331
993.528	0.0145965
993.606	0.0145570
993.684	0.0142705
993.762	0.0143439
993.840	0.0144212
993.918	0.0145559
993.996	0.0146091
994.075	0.0145061
994.153	0.0145633
994.231	0.0146308
994.309	0.0145093
994.387	0.0145703
994.465	0.0143283
994.543	0.0145358
994.621	0.0145313
994.700	0.0144644
994.778	0.0143184
994.856	0.0144547
994.934	0.0144915
995.012	0.0144270
995.090	0.0143203
995.168	0.0144151
995.246	0.0144449
995.325	0.0142857
995.403	0.0144556
995.481	0.0144604
995.559	0.0144416
995.637	0.0143606
995.715	0.0145222
995.793	0.0144234
995.871	0.0144379
995.950	0.0146076
996.028	0.0145989
996.106	0.0144577
996.184	0.0144508
996.262	0.0144243
996.340	0.0145629
996.418	0.0145634
996.496	0.0145083
996.575	0.0146169
996.653	0.0145604
996.731	0.0146849
996.809	0.0145835
996.887	0.0144953
996.965	0.0144888
997.043	0.0144341
997.121	0.0145109
997.200	0.0145004
997.278	0.0144092
997.356	0.0144578
997.434	0.0145048
997.512	0.0144098
997.590	0.0144033
997.668	0.0143121
997.746	0.0143520
997.825	0.0142910
997.903	0.0142720
997.981	0.0143845
998.059	0.0143294
998.137	0.0143459
998.215	0.0145340
998.293	0.0144622
998.371	0.0144849
998.450	0.0143947
998.528	0.0144964
998.606	0.0144798
998.684	0.0145145
998.762	0.0144008
998.840	0.0145094
998.918	0.0145374
