05/04/2022	20:49:41	Ver.	4.1	UNKNOWN
Optical Delay	678.996401	Delta X		0.078125	Sweeps	1	Scan Rate	0/0
Coordinates	Axis 1	NaN	Axis 2	NaN	Axis 3	NaN	Axis 4	NaN	Axis 5	NaN	Axis 6	0.000000
TX Power	0.000000	RX Power	0.000000

678.996	0.0140996
679.075	0.0140823
679.153	0.0141131
679.231	0.0140174
679.309	0.0140469
679.387	0.0141301
679.465	0.0140566
679.543	0.0140379
679.621	0.0139397
679.700	0.0140751
679.778	0.0140300
679.856	0.0141804
679.934	0.0141011
680.012	0.0141650
680.090	0.0141460
680.168	0.0141895
680.246	0.0139877
680.325	0.0141170
680.403	0.0141658
680.481	0.0140227
680.559	0.0141115
680.637	0.0141639
680.715	0.0141441
680.793	0.0140556
680.871	0.0140698
680.950	0.0141692
681.028	0.0141189
681.106	0.0140159
681.184	0.0140900
681.262	0.0141406
681.340	0.0141410
681.418	0.0140363
681.496	0.0140563
681.575	0.0139960
681.653	0.0141412
681.731	0.0140603
681.809	0.0139904
681.887	0.0141560
681.965	0.0140897
682.043	0.0140894
682.121	0.0141202
682.200	0.0139601
682.278	0.0141142
682.356	0.0141354
682.434	0.0140776
682.512	0.0140736
682.590	0.0139999
682.668	0.0139967
682.746	0.0140376
682.825	0.0140820
682.903	0.0140115
682.981	0.0140957
683.059	0.0141525
683.137	0.0140979
683.215	0.0141162
683.293	0.0142173
683.371	0.0141216
683.450	0.0141045
683.528	0.0138937
683.606	0.0140900
683.684	0.0141671
683.762	0.0142342
683.840	0.0141930
683.918	0.0140070
683.996	0.0140204
684.075	0.0140572
684.153	0.0141518
684.231	0.0140625
684.309	0.0141872
684.387	0.0142019
684.465	0.0140679
684.543	0.0140398
684.621	0.0140308
684.700	0.0142054
684.778	0.0140830
684.856	0.0141695
684.934	0.0141024
685.012	0.0140728
685.090	0.0141061
685.168	0.0140881
685.246	0.0141646
685.325	0.0141084
685.403	0.0141717
685.481	0.0142825
685.559	0.0141968
685.637	0.0141348
685.715	0.0140855
685.793	0.0141813
685.871	0.0141996
685.950	0.0140787
686.028	0.0141130
686.106	0.0141925
686.184	0.0140424
686.262	0.0141457
686.340	0.0141238
686.418	0.0140792
686.496	0.0140772
686.575	0.0139905
686.653	0.0141830
686.731	0.0140249
686.809	0.0142341
686.887	0.0142896
686.965	0.0142229
687.043	0.0140737
687.121	0.0141989
687.200	0.0142213
687.278	0.0141279
687.356	0.0142551
687.434	0.0141452
687.512	0.0142287
687.590	0.0140768
687.668	0.0142076
687.746	0.0141394
687.825	0.0140472
687.903	0.0142067
687.981	0.0141929
688.059	0.0140160
688.137	0.0141790
688.215	0.0140945
688.293	0.0140906
688.371	0.0141515
688.450	0.0140994
688.528	0.0141909
688.606	0.0140438
688.684	0.0141551
688.762	0.0141489
688.840	0.0141340
688.918	0.0141176
688.996	0.0140699
689.075	0.0140473
689.153	0.0141209
689.231	0.0141850
689.309	0.0140855
689.387	0.0140221
689.465	0.0141090
689.543	0.0141473
689.621	0.0141020
689.700	0.0142058
689.778	0.0140590
689.856	0.0141148
689.934	0.0140515
690.012	0.0139697
690.090	0.0141929
690.168	0.0142262
690.246	0.0140393
690.325	0.0139839
690.403	0.0143221
690.481	0.0141609
690.559	0.0141613
690.637	0.0140279
690.715	0.0140305
690.793	0.0141821
690.871	0.0140448
690.950	0.0140716
691.028	0.0141467
691.106	0.0140983
691.184	0.0140845
691.262	0.0141740
691.340	0.0140044
691.418	0.0139576
691.496	0.0141040
691.575	0.0141005
691.653	0.0140760
691.731	0.0141504
691.809	0.0141338
691.887	0.0141315
691.965	0.0140954
692.043	0.0140899
692.121	0.0140969
692.200	0.0141232
692.278	0.0140820
692.356	0.0142632
692.434	0.0141478
692.512	0.0140571
692.590	0.0140402
692.668	0.0141174
692.746	0.0141918
692.825	0.0141143
692.903	0.0140542
692.981	0.0141051
693.059	0.0140483
693.137	0.0140681
693.215	0.0141642
693.293	0.0141515
693.371	0.0141581
693.450	0.0140604
693.528	0.0140347
693.606	0.0141354
693.684	0.0141502
693.762	0.0141534
693.840	0.0140109
693.918	0.0141273
693.996	0.0141292
694.075	0.0141801
694.153	0.0141921
694.231	0.0140082
694.309	0.0139944
694.387	0.0140633
694.465	0.0140248
694.543	0.0142114
694.621	0.0140689
694.700	0.0142193
694.778	0.0141648
694.856	0.0140459
694.934	0.0140753
695.012	0.0140672
695.090	0.0141441
695.168	0.0140762
695.246	0.0141083
695.325	0.0141137
695.403	0.0140561
695.481	0.0141862
695.559	0.0140285
695.637	0.0140680
695.715	0.0141311
695.793	0.0141679
695.871	0.0140774
695.950	0.0143087
696.028	0.0141363
696.106	0.0140774
696.184	0.0141036
696.262	0.0142058
696.340	0.0140663
696.418	0.0141547
696.496	0.0142020
696.575	0.0141243
696.653	0.0140463
696.731	0.0139783
696.809	0.0140782
696.887	0.0141541
696.965	0.0142104
697.043	0.0141342
697.121	0.0141185
697.200	0.0140557
697.278	0.0139966
697.356	0.0142119
697.434	0.0141930
697.512	0.0141279
697.590	0.0141123
697.668	0.0140855
697.746	0.0141624
697.825	0.0142121
697.903	0.0140951
697.981	0.0140665
698.059	0.0140906
698.137	0.0142673
698.215	0.0142947
698.293	0.0140707
698.371	0.0140283
698.450	0.0141357
698.528	0.0141068
698.606	0.0141279
698.684	0.0140958
698.762	0.0142194
698.840	0.0141752
698.918	0.0140872
698.996	0.0140653
699.075	0.0141028
699.153	0.0141662
699.231	0.0140679
699.309	0.0140072
699.387	0.0141850
699.465	0.0140907
699.543	0.0141225
699.621	0.0141147
699.700	0.0140321
699.778	0.0140128
699.856	0.0140997
699.934	0.0141930
700.012	0.0141122
700.090	0.0141873
700.168	0.0140655
700.246	0.0140719
700.325	0.0142058
700.403	0.0140272
700.481	0.0142763
700.559	0.0141338
700.637	0.0141455
700.715	0.0142823
700.793	0.0142145
700.871	0.0141531
700.950	0.0139217
701.028	0.0141380
701.106	0.0141547
701.184	0.0142317
701.262	0.0141176
701.340	0.0140990
701.418	0.0140600
701.496	0.0141791
701.575	0.0140523
701.653	0.0140660
701.731	0.0141533
701.809	0.0143465
701.887	0.0141820
701.965	0.0141428
702.043	0.0142307
702.121	0.0141367
702.200	0.0141886
702.278	0.0140579
702.356	0.0141286
702.434	0.0141947
702.512	0.0140754
702.590	0.0141449
702.668	0.0140649
702.746	0.0140428
702.825	0.0141409
702.903	0.0140481
702.981	0.0139614
703.059	0.0140393
703.137	0.0140801
703.215	0.0141083
703.293	0.0142148
703.371	0.0140601
703.450	0.0141184
703.528	0.0141927
703.606	0.0140965
703.684	0.0139983
703.762	0.0140076
703.840	0.0142842
703.918	0.0141774
703.996	0.0140911
704.075	0.0140006
704.153	0.0140681
704.231	0.0142664
704.309	0.0141653
704.387	0.0140462
704.465	0.0140613
704.543	0.0142631
704.621	0.0140994
704.700	0.0141711
704.778	0.0141637
704.856	0.0140405
704.934	0.0140639
705.012	0.0141647
705.090	0.0139771
705.168	0.0140111
705.246	0.0139896
705.325	0.0140955
705.403	0.0141806
705.481	0.0140737
705.559	0.0139385
705.637	0.0139485
705.715	0.0141068
705.793	0.0141485
705.871	0.0142660
705.950	0.0140649
706.028	0.0140597
706.106	0.0141312
706.184	0.0140293
706.262	0.0140861
706.340	0.0142738
706.418	0.0140331
706.496	0.0140456
706.575	0.0140716
706.653	0.0141412
706.731	0.0142287
706.809	0.0139935
706.887	0.0140914
706.965	0.0140872
707.043	0.0139054
707.121	0.0141385
707.200	0.0140127
707.278	0.0140368
707.356	0.0140676
707.434	0.0141524
707.512	0.0141305
707.590	0.0139801
707.668	0.0140063
707.746	0.0141448
707.825	0.0141280
707.903	0.0140935
707.981	0.0139743
708.059	0.0141071
708.137	0.0140195
708.215	0.0139644
708.293	0.0141331
708.371	0.0140433
708.450	0.0140997
708.528	0.0140688
708.606	0.0140187
708.684	0.0140749
708.762	0.0141523
708.840	0.0139902
708.918	0.0141302
708.996	0.0141170
709.075	0.0140305
709.153	0.0141759
709.231	0.0140289
709.309	0.0139257
709.387	0.0140970
709.465	0.0141725
709.543	0.0139767
709.621	0.0140372
709.700	0.0141631
709.778	0.0141031
709.856	0.0141142
709.934	0.0141650
710.012	0.0141238
710.090	0.0139611
710.168	0.0141475
710.246	0.0141468
710.325	0.0140853
710.403	0.0141428
710.481	0.0141544
710.559	0.0140913
710.637	0.0141810
710.715	0.0140342
710.793	0.0141709
710.871	0.0141632
710.950	0.0142368
711.028	0.0141006
711.106	0.0140955
711.184	0.0140160
711.262	0.0142197
711.340	0.0141582
711.418	0.0140374
711.496	0.0142685
711.575	0.0141732
711.653	0.0142779
711.731	0.0142315
711.809	0.0142079
711.887	0.0141882
711.965	0.0141108
712.043	0.0142063
712.121	0.0141613
712.200	0.0141352
712.278	0.0141476
712.356	0.0141020
712.434	0.0143263
712.512	0.0141962
712.590	0.0141959
712.668	0.0141315
712.746	0.0141058
712.825	0.0142582
712.903	0.0140556
712.981	0.0141599
713.059	0.0140675
713.137	0.0140971
713.215	0.0141847
713.293	0.0141755
713.371	0.0142455
713.450	0.0143053
713.528	0.0142844
713.606	0.0141615
713.684	0.0143085
713.762	0.0142979
713.840	0.0141246
713.918	0.0141127
713.996	0.0140196
714.075	0.0140689
714.153	0.0142379
714.231	0.0143081
714.309	0.0143417
714.387	0.0142220
714.465	0.0143889
714.543	0.0143779
714.621	0.0142911
714.700	0.0142773
714.778	0.0142606
714.856	0.0141985
714.934	0.0140839
715.012	0.0140881
715.090	0.0139409
715.168	0.0139690
715.246	0.0139443
715.325	0.0137412
715.403	0.0137202
715.481	0.0138083
715.559	0.0137411
715.637	0.0137735
715.715	0.0139500
715.793	0.0138297
715.871	0.0139146
715.950	0.0139632
716.028	0.0138993
716.106	0.0140858
716.184	0.0141994
716.262	0.0142799
716.340	0.0144814
716.418	0.0143417
716.496	0.0143343
716.575	0.0144110
716.653	0.0142654
716.731	0.0141567
716.809	0.0142456
716.887	0.0139985
716.965	0.0136725
717.043	0.0135497
717.121	0.0135670
717.200	0.0135313
717.278	0.0134913
717.356	0.0135588
717.434	0.0137166
717.512	0.0137191
717.590	0.0138781
717.668	0.0139671
717.746	0.0140282
717.825	0.0142422
717.903	0.0141875
717.981	0.0141561
718.059	0.0141229
718.137	0.0141241
718.215	0.0141112
718.293	0.0141859
718.371	0.0140915
718.450	0.0140216
718.528	0.0139389
718.606	0.0138786
718.684	0.0139973
718.762	0.0139916
718.840	0.0142210
718.918	0.0141993
718.996	0.0141003
719.075	0.0145235
719.153	0.0144939
719.231	0.0144998
719.309	0.0146420
719.387	0.0148251
719.465	0.0148372
719.543	0.0147649
719.621	0.0147918
719.700	0.0148012
719.778	0.0146160
719.856	0.0144840
719.934	0.0142567
720.012	0.0141519
720.090	0.0138914
720.168	0.0137135
720.246	0.0135577
720.325	0.0135621
720.403	0.0134660
720.481	0.0135649
720.559	0.0135072
720.637	0.0135573
720.715	0.0138242
720.793	0.0138316
720.871	0.0140838
720.950	0.0143234
721.028	0.0142587
721.106	0.0142684
721.184	0.0143238
721.262	0.0143890
721.340	0.0143224
721.418	0.0141709
721.496	0.0140772
721.575	0.0140135
721.653	0.0138308
721.731	0.0138347
721.809	0.0138002
721.887	0.0135316
721.965	0.0135870
722.043	0.0138782
722.121	0.0139742
722.200	0.0139903
722.278	0.0140009
722.356	0.0143095
722.434	0.0142463
722.512	0.0142805
722.590	0.0144505
722.668	0.0143932
722.746	0.0144778
722.825	0.0144310
722.903	0.0143586
722.981	0.0144465
723.059	0.0142400
723.137	0.0141163
723.215	0.0139982
723.293	0.0138914
723.371	0.0139528
723.450	0.0136264
723.528	0.0136636
723.606	0.0137865
723.684	0.0136271
723.762	0.0139984
723.840	0.0139860
723.918	0.0140434
723.996	0.0142103
724.075	0.0142401
724.153	0.0144072
724.231	0.0144812
724.309	0.0146565
724.387	0.0146973
724.465	0.0146263
724.543	0.0146272
724.621	0.0146654
724.700	0.0146370
724.778	0.0144695
724.856	0.0143530
724.934	0.0142361
725.012	0.0141431
725.090	0.0139868
725.168	0.0140613
725.246	0.0139776
725.325	0.0138857
725.403	0.0138032
725.481	0.0138894
725.559	0.0139227
725.637	0.0140710
725.715	0.0140607
725.793	0.0140351
725.871	0.0142805
725.950	0.0142217
726.028	0.0143011
726.106	0.0142882
726.184	0.0142332
726.262	0.0141496
726.340	0.0139973
726.418	0.0141361
726.496	0.0140512
726.575	0.0140666
726.653	0.0139628
726.731	0.0137338
726.809	0.0136074
726.887	0.0138097
726.965	0.0137842
727.043	0.0137123
727.121	0.0136413
727.200	0.0137071
727.278	0.0137326
727.356	0.0138494
727.434	0.0140199
727.512	0.0140374
727.590	0.0141695
727.668	0.0142222
727.746	0.0141432
727.825	0.0143526
727.903	0.0144824
727.981	0.0144639
728.059	0.0144146
728.137	0.0144135
728.215	0.0142925
728.293	0.0142151
728.371	0.0143598
728.450	0.0142895
728.528	0.0140456
728.606	0.0139410
728.684	0.0138786
728.762	0.0137857
728.840	0.0139043
728.918	0.0139329
728.996	0.0137306
729.075	0.0137811
729.153	0.0138921
729.231	0.0140189
729.309	0.0140665
729.387	0.0141308
729.465	0.0143213
729.543	0.0143256
729.621	0.0145097
729.700	0.0144633
729.778	0.0145319
729.856	0.0144044
729.934	0.0144391
730.012	0.0142854
730.090	0.0142152
730.168	0.0142611
730.246	0.0141660
730.325	0.0140862
730.403	0.0140950
730.481	0.0140636
730.559	0.0140453
730.637	0.0140266
730.715	0.0140499
730.793	0.0141004
730.871	0.0140977
730.950	0.0140058
731.028	0.0142033
731.106	0.0140592
731.184	0.0141544
731.262	0.0141692
731.340	0.0140491
731.418	0.0141676
731.496	0.0141901
731.575	0.0142355
731.653	0.0142417
731.731	0.0141304
731.809	0.0141201
731.887	0.0139231
731.965	0.0138812
732.043	0.0139854
732.121	0.0139309
732.200	0.0137531
732.278	0.0138261
732.356	0.0138285
732.434	0.0139262
732.512	0.0137869
732.590	0.0138675
732.668	0.0139251
732.746	0.0138794
732.825	0.0139631
732.903	0.0139182
732.981	0.0138976
733.059	0.0138400
733.137	0.0141872
733.215	0.0141205
733.293	0.0140836
733.371	0.0139832
733.450	0.0140640
733.528	0.0141120
733.606	0.0142496
733.684	0.0141543
733.762	0.0140916
733.840	0.0141312
733.918	0.0142979
733.996	0.0142601
734.075	0.0142281
734.153	0.0142329
734.231	0.0141460
734.309	0.0142905
734.387	0.0141357
734.465	0.0140998
734.543	0.0142332
734.621	0.0141927
734.700	0.0140874
734.778	0.0140434
734.856	0.0139888
734.934	0.0140845
735.012	0.0140543
735.090	0.0140401
735.168	0.0141346
735.246	0.0139781
735.325	0.0139589
735.403	0.0140557
735.481	0.0140921
735.559	0.0142015
735.637	0.0141105
735.715	0.0142949
735.793	0.0142167
735.871	0.0143544
735.950	0.0143088
736.028	0.0142815
736.106	0.0142395
736.184	0.0142337
736.262	0.0142356
736.340	0.0141701
736.418	0.0142455
736.496	0.0142884
736.575	0.0141627
736.653	0.0141463
736.731	0.0141605
736.809	0.0140263
736.887	0.0140582
736.965	0.0139030
737.043	0.0139251
737.121	0.0138696
737.200	0.0138717
737.278	0.0139831
737.356	0.0140178
737.434	0.0139548
737.512	0.0138416
737.590	0.0139527
737.668	0.0140944
737.746	0.0139514
737.825	0.0139581
737.903	0.0140136
737.981	0.0139744
738.059	0.0140408
738.137	0.0141293
738.215	0.0141457
738.293	0.0142068
738.371	0.0141484
738.450	0.0142371
738.528	0.0142347
738.606	0.0141839
738.684	0.0140854
738.762	0.0140077
738.840	0.0140199
738.918	0.0140276
738.996	0.0140443
739.075	0.0139553
739.153	0.0138680
739.231	0.0140106
739.309	0.0139804
739.387	0.0141602
739.465	0.0140228
739.543	0.0139288
739.621	0.0140794
739.700	0.0142353
739.778	0.0142669
739.856	0.0141433
739.934	0.0141872
740.012	0.0143630
740.090	0.0142451
740.168	0.0142896
740.246	0.0142671
740.325	0.0142773
740.403	0.0141811
740.481	0.0139426
740.559	0.0142281
740.637	0.0141713
740.715	0.0141325
740.793	0.0140497
740.871	0.0140859
740.950	0.0140449
741.028	0.0141180
741.106	0.0139738
741.184	0.0140084
741.262	0.0141615
741.340	0.0140028
741.418	0.0139470
741.496	0.0140192
741.575	0.0138672
741.653	0.0139143
741.731	0.0139330
741.809	0.0138808
741.887	0.0139184
741.965	0.0138040
742.043	0.0138988
742.121	0.0138884
742.200	0.0137934
742.278	0.0139226
742.356	0.0140463
742.434	0.0140423
742.512	0.0142289
742.590	0.0141669
742.668	0.0140797
742.746	0.0142856
742.825	0.0143016
742.903	0.0142487
742.981	0.0142152
743.059	0.0142081
743.137	0.0143302
743.215	0.0143247
743.293	0.0141624
743.371	0.0141472
743.450	0.0142152
743.528	0.0142236
743.606	0.0141374
743.684	0.0139675
743.762	0.0140867
743.840	0.0139910
743.918	0.0141084
743.996	0.0139806
744.075	0.0140627
744.153	0.0139515
744.231	0.0140414
744.309	0.0137864
744.387	0.0139683
744.465	0.0140543
744.543	0.0140714
744.621	0.0140769
744.700	0.0140785
744.778	0.0141936
744.856	0.0141454
744.934	0.0141962
745.012	0.0142138
745.090	0.0141735
745.168	0.0140697
745.246	0.0143068
745.325	0.0143073
745.403	0.0142822
745.481	0.0142033
745.559	0.0141387
745.637	0.0140849
745.715	0.0141409
745.793	0.0142711
745.871	0.0142069
745.950	0.0141257
746.028	0.0141190
746.106	0.0140665
746.184	0.0140414
746.262	0.0140901
746.340	0.0140870
746.418	0.0141244
746.496	0.0142542
746.575	0.0141206
746.653	0.0141707
746.731	0.0140169
746.809	0.0139655
746.887	0.0140486
746.965	0.0140203
747.043	0.0141850
747.121	0.0141480
747.200	0.0140721
747.278	0.0141499
747.356	0.0141016
747.434	0.0140388
747.512	0.0141210
747.590	0.0140475
747.668	0.0140469
747.746	0.0140874
747.825	0.0140374
747.903	0.0141159
747.981	0.0140156
748.059	0.0140102
748.137	0.0139619
748.215	0.0141341
748.293	0.0142364
748.371	0.0139474
748.450	0.0140379
748.528	0.0143037
748.606	0.0142979
748.684	0.0140610
748.762	0.0142309
748.840	0.0142443
748.918	0.0141124
748.996	0.0140687
749.075	0.0139643
749.153	0.0140559
749.231	0.0141048
749.309	0.0140752
749.387	0.0140517
749.465	0.0140418
749.543	0.0139725
749.621	0.0138588
749.700	0.0138940
749.778	0.0139923
749.856	0.0139968
749.934	0.0140038
750.012	0.0142270
750.090	0.0139412
750.168	0.0139651
750.246	0.0142789
750.325	0.0142185
750.403	0.0142920
750.481	0.0143948
750.559	0.0143198
750.637	0.0143540
750.715	0.0143950
750.793	0.0143510
750.871	0.0142497
750.950	0.0142706
751.028	0.0142230
751.106	0.0142232
751.184	0.0141026
751.262	0.0140623
751.340	0.0139981
751.418	0.0139579
751.496	0.0139655
751.575	0.0139066
751.653	0.0139630
751.731	0.0140619
751.809	0.0139274
751.887	0.0140175
751.965	0.0141421
752.043	0.0139905
752.121	0.0140835
752.200	0.0141239
752.278	0.0140975
752.356	0.0140592
752.434	0.0141716
752.512	0.0141425
752.590	0.0141471
752.668	0.0140847
752.746	0.0141011
752.825	0.0141159
752.903	0.0140912
752.981	0.0141588
753.059	0.0141170
753.137	0.0141532
753.215	0.0142191
753.293	0.0141505
753.371	0.0140556
753.450	0.0141761
753.528	0.0141808
753.606	0.0142426
753.684	0.0140622
753.762	0.0140175
753.840	0.0141265
753.918	0.0139905
753.996	0.0140185
754.075	0.0138361
754.153	0.0139714
754.231	0.0140828
754.309	0.0140208
754.387	0.0140426
754.465	0.0139871
754.543	0.0141225
754.621	0.0139974
754.700	0.0142080
754.778	0.0141661
754.856	0.0141610
754.934	0.0141709
755.012	0.0140594
755.090	0.0141030
755.168	0.0142816
755.246	0.0140414
755.325	0.0140493
755.403	0.0139063
755.481	0.0141867
755.559	0.0140343
755.637	0.0141131
755.715	0.0140881
755.793	0.0139871
755.871	0.0139942
755.950	0.0140846
756.028	0.0138863
756.106	0.0139496
756.184	0.0141640
756.262	0.0140176
756.340	0.0140814
756.418	0.0140913
756.496	0.0141316
756.575	0.0139670
756.653	0.0139925
756.731	0.0140782
756.809	0.0140162
756.887	0.0141173
756.965	0.0140120
757.043	0.0140933
757.121	0.0139883
757.200	0.0140488
757.278	0.0140301
757.356	0.0139722
757.434	0.0141401
757.512	0.0141201
757.590	0.0140563
757.668	0.0141869
757.746	0.0142523
757.825	0.0142172
757.903	0.0142442
757.981	0.0141331
758.059	0.0142241
758.137	0.0143180
758.215	0.0141701
758.293	0.0142205
758.371	0.0143831
758.450	0.0141430
758.528	0.0142513
758.606	0.0140873
758.684	0.0142091
758.762	0.0141045
758.840	0.0139745
758.918	0.0140932
758.996	0.0141005
759.075	0.0139567
759.153	0.0139994
759.231	0.0140625
759.309	0.0140341
759.387	0.0141043
759.465	0.0138585
759.543	0.0140919
759.621	0.0140369
759.700	0.0140714
759.778	0.0140447
759.856	0.0141108
759.934	0.0139285
760.012	0.0140025
760.090	0.0139488
760.168	0.0139102
760.246	0.0140353
760.325	0.0140792
760.403	0.0139615
760.481	0.0140765
760.559	0.0142089
760.637	0.0140353
760.715	0.0139171
760.793	0.0140572
760.871	0.0140237
760.950	0.0141332
761.028	0.0140565
761.106	0.0142033
761.184	0.0141068
761.262	0.0141041
761.340	0.0140878
761.418	0.0140057
761.496	0.0139875
761.575	0.0139143
761.653	0.0139833
761.731	0.0139890
761.809	0.0139031
761.887	0.0140730
761.965	0.0141090
762.043	0.0140617
762.121	0.0140132
762.200	0.0141245
762.278	0.0139848
762.356	0.0140878
762.434	0.0140858
762.512	0.0142536
762.590	0.0141627
762.668	0.0142654
762.746	0.0141327
762.825	0.0141699
762.903	0.0142582
762.981	0.0142763
763.059	0.0141949
763.137	0.0140872
763.215	0.0140657
763.293	0.0142864
763.371	0.0142130
763.450	0.0141617
763.528	0.0142184
763.606	0.0141576
763.684	0.0141840
763.762	0.0142074
763.840	0.0140726
763.918	0.0140701
763.996	0.0141387
764.075	0.0142826
764.153	0.0141448
764.231	0.0141405
764.309	0.0141273
764.387	0.0143065
764.465	0.0140991
764.543	0.0141193
764.621	0.0141238
764.700	0.0141792
764.778	0.0141722
764.856	0.0142142
764.934	0.0139593
765.012	0.0141020
765.090	0.0142264
765.168	0.0141993
765.246	0.0141321
765.325	0.0141664
765.403	0.0140268
765.481	0.0141709
765.559	0.0141062
765.637	0.0139841
765.715	0.0139829
765.793	0.0141359
765.871	0.0140409
765.950	0.0140635
766.028	0.0139941
766.106	0.0141074
766.184	0.0139970
766.262	0.0139755
766.340	0.0139669
766.418	0.0139764
766.496	0.0139157
766.575	0.0139704
766.653	0.0140285
766.731	0.0141164
766.809	0.0140322
766.887	0.0139116
766.965	0.0139608
767.043	0.0139776
767.121	0.0140452
767.200	0.0140504
767.278	0.0141741
767.356	0.0140842
767.434	0.0139242
767.512	0.0140791
767.590	0.0141607
767.668	0.0141404
767.746	0.0140141
767.825	0.0141611
767.903	0.0140979
767.981	0.0139399
768.059	0.0141086
768.137	0.0141494
768.215	0.0140835
768.293	0.0141108
768.371	0.0140998
768.450	0.0141102
768.528	0.0139885
768.606	0.0142303
768.684	0.0141709
768.762	0.0140142
768.840	0.0140571
768.918	0.0140069
768.996	0.0138857
769.075	0.0140079
769.153	0.0141664
769.231	0.0140601
769.309	0.0140443
769.387	0.0141457
769.465	0.0141018
769.543	0.0141349
769.621	0.0140434
769.700	0.0140883
769.778	0.0140938
769.856	0.0140371
769.934	0.0141611
770.012	0.0140302
770.090	0.0140224
770.168	0.0141812
770.246	0.0141382
770.325	0.0141737
770.403	0.0141337
770.481	0.0141998
770.559	0.0141252
770.637	0.0141791
770.715	0.0139548
770.793	0.0140032
770.871	0.0140896
770.950	0.0140536
771.028	0.0140404
771.106	0.0141434
771.184	0.0140378
771.262	0.0140688
771.340	0.0140891
771.418	0.0141210
771.496	0.0140715
771.575	0.0139700
771.653	0.0140653
771.731	0.0140722
771.809	0.0140960
771.887	0.0141535
771.965	0.0142754
772.043	0.0141329
772.121	0.0139942
772.200	0.0142567
772.278	0.0141965
772.356	0.0142464
772.434	0.0140264
772.512	0.0141250
772.590	0.0142607
772.668	0.0140175
772.746	0.0141233
772.825	0.0141942
772.903	0.0140302
772.981	0.0139957
773.059	0.0140300
773.137	0.0140131
773.215	0.0139883
773.293	0.0140392
773.371	0.0140588
773.450	0.0141878
773.528	0.0141489
773.606	0.0140475
773.684	0.0141772
773.762	0.0141536
773.840	0.0140404
773.918	0.0142218
773.996	0.0142979
774.075	0.0141904
774.153	0.0140531
774.231	0.0141621
774.309	0.0140209
774.387	0.0140487
774.465	0.0141067
774.543	0.0139913
774.621	0.0141719
774.700	0.0141708
774.778	0.0139323
774.856	0.0139489
774.934	0.0139587
775.012	0.0140980
775.090	0.0141531
775.168	0.0141076
775.246	0.0140098
775.325	0.0142381
775.403	0.0141168
775.481	0.0140721
775.559	0.0140401
775.637	0.0140005
775.715	0.0139855
775.793	0.0140676
775.871	0.0140221
775.950	0.0141286
776.028	0.0141806
776.106	0.0142102
776.184	0.0141737
776.262	0.0140276
776.340	0.0140072
776.418	0.0140620
776.496	0.0140354
776.575	0.0140385
776.653	0.0141496
776.731	0.0141330
776.809	0.0140438
776.887	0.0140778
776.965	0.0142339
777.043	0.0141582
777.121	0.0141759
777.200	0.0142587
777.278	0.0140441
777.356	0.0140591
777.434	0.0141643
777.512	0.0141070
777.590	0.0140366
777.668	0.0140430
777.746	0.0141813
777.825	0.0141103
777.903	0.0140138
777.981	0.0140797
778.059	0.0140484
778.137	0.0141007
778.215	0.0140257
778.293	0.0140343
778.371	0.0140959
778.450	0.0141541
778.528	0.0140242
778.606	0.0140662
778.684	0.0141172
778.762	0.0141425
778.840	0.0141530
778.918	0.0142002
778.996	0.0141893
779.075	0.0142448
779.153	0.0141119
779.231	0.0141228
779.309	0.0141582
779.387	0.0140788
779.465	0.0143935
779.543	0.0141629
779.621	0.0142013
779.700	0.0141494
779.778	0.0141897
779.856	0.0140916
779.934	0.0141602
780.012	0.0142020
780.090	0.0141334
780.168	0.0141517
780.246	0.0141541
780.325	0.0141617
780.403	0.0141551
780.481	0.0141548
780.559	0.0143599
780.637	0.0142165
780.715	0.0140667
780.793	0.0142720
780.871	0.0141740
780.950	0.0141902
781.028	0.0141566
781.106	0.0143967
781.184	0.0143528
781.262	0.0141705
781.340	0.0140850
781.418	0.0143612
781.496	0.0144529
781.575	0.0142531
781.653	0.0141077
781.731	0.0141543
781.809	0.0141003
781.887	0.0142488
781.965	0.0141793
782.043	0.0141109
782.121	0.0141264
782.200	0.0141715
782.278	0.0140874
782.356	0.0140829
782.434	0.0140926
782.512	0.0142191
782.590	0.0140338
782.668	0.0141137
782.746	0.0141938
782.825	0.0141327
782.903	0.0142016
782.981	0.0142637
783.059	0.0141058
783.137	0.0141827
783.215	0.0140661
783.293	0.0140083
783.371	0.0140119
783.450	0.0141801
783.528	0.0140873
783.606	0.0142213
783.684	0.0141706
783.762	0.0141669
783.840	0.0142707
783.918	0.0141460
783.996	0.0141673
784.075	0.0141564
784.153	0.0140566
784.231	0.0141380
784.309	0.0141186
784.387	0.0141294
784.465	0.0141439
784.543	0.0141257
784.621	0.0141208
784.700	0.0139182
784.778	0.0141541
784.856	0.0142220
784.934	0.0140631
785.012	0.0141558
785.090	0.0140917
785.168	0.0141506
785.246	0.0141335
785.325	0.0139919
785.403	0.0141422
785.481	0.0140629
785.559	0.0140149
785.637	0.0140969
785.715	0.0141869
785.793	0.0140793
785.871	0.0141573
785.950	0.0140888
786.028	0.0141221
786.106	0.0141393
786.184	0.0141093
786.262	0.0141945
786.340	0.0140617
786.418	0.0140846
786.496	0.0141701
786.575	0.0141110
786.653	0.0140122
786.731	0.0140999
786.809	0.0141113
786.887	0.0140945
786.965	0.0141267
787.043	0.0140978
787.121	0.0142652
787.200	0.0141477
787.278	0.0140453
787.356	0.0140984
787.434	0.0141422
787.512	0.0141168
787.590	0.0139838
787.668	0.0140837
787.746	0.0142164
787.825	0.0139882
787.903	0.0139605
787.981	0.0140094
788.059	0.0140986
788.137	0.0141632
788.215	0.0141460
788.293	0.0140887
788.371	0.0141729
788.450	0.0140440
788.528	0.0140887
788.606	0.0141029
788.684	0.0140689
788.762	0.0140489
788.840	0.0139508
788.918	0.0142353
788.996	0.0141009
789.075	0.0141391
789.153	0.0141618
789.231	0.0141367
789.309	0.0140651
789.387	0.0142238
789.465	0.0140900
789.543	0.0139209
789.621	0.0140468
789.700	0.0140972
789.778	0.0140274
789.856	0.0140203
789.934	0.0139796
790.012	0.0140478
790.090	0.0140691
790.168	0.0140211
790.246	0.0141012
790.325	0.0140122
790.403	0.0141755
790.481	0.0140255
790.559	0.0139935
790.637	0.0142586
790.715	0.0140626
790.793	0.0139720
790.871	0.0140417
790.950	0.0140314
791.028	0.0141164
791.106	0.0140701
791.184	0.0140691
791.262	0.0140842
791.340	0.0139882
791.418	0.0140884
791.496	0.0142348
791.575	0.0139589
791.653	0.0141190
791.731	0.0141777
791.809	0.0141398
791.887	0.0141730
791.965	0.0141991
792.043	0.0140536
792.121	0.0140404
792.200	0.0142075
792.278	0.0140078
792.356	0.0143366
792.434	0.0141681
792.512	0.0140614
792.590	0.0141431
792.668	0.0139867
792.746	0.0140000
792.825	0.0140837
792.903	0.0139960
792.981	0.0140834
793.059	0.0141519
793.137	0.0139675
793.215	0.0140845
793.293	0.0142002
793.371	0.0141396
793.450	0.0141988
793.528	0.0140984
793.606	0.0141663
793.684	0.0140266
793.762	0.0139890
793.840	0.0142680
793.918	0.0141130
793.996	0.0140584
794.075	0.0141360
794.153	0.0141520
794.231	0.0140333
794.309	0.0141240
794.387	0.0141750
794.465	0.0140915
794.543	0.0141268
794.621	0.0140382
794.700	0.0141428
794.778	0.0140571
794.856	0.0141063
794.934	0.0142388
795.012	0.0141030
795.090	0.0141750
795.168	0.0141222
795.246	0.0140606
795.325	0.0141058
795.403	0.0141084
795.481	0.0140693
795.559	0.0141418
795.637	0.0140705
795.715	0.0142244
795.793	0.0140536
795.871	0.0140173
795.950	0.0140522
796.028	0.0140736
796.106	0.0141960
796.184	0.0142218
796.262	0.0141193
796.340	0.0141834
796.418	0.0141773
796.496	0.0140477
796.575	0.0140804
796.653	0.0142024
796.731	0.0142047
796.809	0.0141488
796.887	0.0141617
796.965	0.0140406
797.043	0.0141507
797.121	0.0141178
797.200	0.0141580
797.278	0.0141476
797.356	0.0141432
797.434	0.0141259
797.512	0.0140372
797.590	0.0139721
797.668	0.0140570
797.746	0.0140324
797.825	0.0140582
797.903	0.0140406
797.981	0.0140651
798.059	0.0140797
798.137	0.0141133
798.215	0.0141231
798.293	0.0138784
798.371	0.0140339
798.450	0.0140964
798.528	0.0140726
798.606	0.0140569
798.684	0.0140697
798.762	0.0140935
798.840	0.0139791
798.918	0.0140791
798.996	0.0141122
799.075	0.0140939
799.153	0.0140598
799.231	0.0142130
799.309	0.0141184
799.387	0.0141341
799.465	0.0141380
799.543	0.0140978
799.621	0.0140808
799.700	0.0140966
799.778	0.0138934
799.856	0.0140247
799.934	0.0139863
800.012	0.0139976
800.090	0.0141165
800.168	0.0142210
800.246	0.0141734
800.325	0.0139267
800.403	0.0141138
800.481	0.0140170
800.559	0.0140316
800.637	0.0140031
800.715	0.0139640
800.793	0.0140140
800.871	0.0141852
800.950	0.0142039
801.028	0.0141398
801.106	0.0140166
801.184	0.0140587
801.262	0.0142062
801.340	0.0140139
801.418	0.0140411
801.496	0.0142330
801.575	0.0141748
801.653	0.0140430
801.731	0.0140230
801.809	0.0141338
801.887	0.0140848
801.965	0.0140671
802.043	0.0141948
802.121	0.0140966
802.200	0.0140873
802.278	0.0142371
802.356	0.0141174
802.434	0.0140353
802.512	0.0140318
802.590	0.0141254
802.668	0.0141128
802.746	0.0140379
802.825	0.0141750
802.903	0.0141046
802.981	0.0139731
803.059	0.0140821
803.137	0.0140836
803.215	0.0140233
803.293	0.0140350
803.371	0.0142039
803.450	0.0140454
803.528	0.0141054
803.606	0.0141438
803.684	0.0140877
803.762	0.0140751
803.840	0.0141528
803.918	0.0140850
803.996	0.0140446
804.075	0.0141297
804.153	0.0141759
804.231	0.0141042
804.309	0.0140870
804.387	0.0141405
804.465	0.0142215
804.543	0.0141205
804.621	0.0140932
804.700	0.0140265
804.778	0.0141457
804.856	0.0142333
804.934	0.0141020
805.012	0.0142109
805.090	0.0141970
805.168	0.0140772
805.246	0.0139567
805.325	0.0141993
805.403	0.0140568
805.481	0.0140919
805.559	0.0142104
805.637	0.0140939
805.715	0.0142109
805.793	0.0141630
805.871	0.0140150
805.950	0.0141897
806.028	0.0142233
806.106	0.0140281
806.184	0.0141558
806.262	0.0142239
806.340	0.0141911
806.418	0.0141557
806.496	0.0140559
806.575	0.0140519
806.653	0.0141975
806.731	0.0141245
806.809	0.0141354
806.887	0.0140483
806.965	0.0141564
807.043	0.0141640
807.121	0.0141311
807.200	0.0141818
807.278	0.0142501
807.356	0.0140905
807.434	0.0141603
807.512	0.0141166
807.590	0.0142176
807.668	0.0141121
807.746	0.0141750
807.825	0.0141042
807.903	0.0141299
807.981	0.0141024
808.059	0.0139892
808.137	0.0139982
808.215	0.0141491
808.293	0.0141861
808.371	0.0140980
808.450	0.0141621
808.528	0.0142510
808.606	0.0141530
808.684	0.0140827
808.762	0.0143066
808.840	0.0142622
808.918	0.0141610
808.996	0.0141448
809.075	0.0141422
809.153	0.0142124
809.231	0.0142339
809.309	0.0139923
809.387	0.0140944
809.465	0.0141508
809.543	0.0140451
809.621	0.0140530
809.700	0.0140810
809.778	0.0140105
809.856	0.0141204
809.934	0.0141319
810.012	0.0140285
810.090	0.0140024
810.168	0.0140962
810.246	0.0141293
810.325	0.0141768
810.403	0.0140087
810.481	0.0140468
810.559	0.0141730
810.637	0.0139793
810.715	0.0140391
810.793	0.0140813
810.871	0.0141427
810.950	0.0141298
811.028	0.0139367
811.106	0.0141803
811.184	0.0141973
811.262	0.0141912
811.340	0.0140688
811.418	0.0140414
811.496	0.0141346
811.575	0.0142397
811.653	0.0142033
811.731	0.0141658
811.809	0.0139999
811.887	0.0142006
811.965	0.0141794
812.043	0.0140256
812.121	0.0139550
812.200	0.0139945
812.278	0.0140317
812.356	0.0140404
812.434	0.0139604
812.512	0.0141051
812.590	0.0139083
812.668	0.0137956
812.746	0.0141046
812.825	0.0139844
812.903	0.0139644
812.981	0.0141006
813.059	0.0140421
813.137	0.0141224
813.215	0.0140111
813.293	0.0141280
813.371	0.0141371
813.450	0.0140017
813.528	0.0141179
813.606	0.0141064
813.684	0.0140475
813.762	0.0139975
813.840	0.0140206
813.918	0.0141327
813.996	0.0139892
814.075	0.0139281
814.153	0.0139791
814.231	0.0139701
814.309	0.0139823
814.387	0.0139449
814.465	0.0139911
814.543	0.0139727
814.621	0.0140060
814.700	0.0140936
814.778	0.0140060
814.856	0.0141062
814.934	0.0141245
815.012	0.0141045
815.090	0.0142433
815.168	0.0140504
815.246	0.0141012
815.325	0.0142002
815.403	0.0141248
815.481	0.0140968
815.559	0.0141559
815.637	0.0141747
815.715	0.0141204
815.793	0.0141798
815.871	0.0141080
815.950	0.0141860
816.028	0.0140862
816.106	0.0141360
816.184	0.0141615
816.262	0.0141437
816.340	0.0140665
816.418	0.0140623
816.496	0.0141046
816.575	0.0141091
816.653	0.0141048
816.731	0.0141832
816.809	0.0140996
816.887	0.0140789
816.965	0.0142398
817.043	0.0141541
817.121	0.0141394
817.200	0.0140689
817.278	0.0140842
817.356	0.0141558
817.434	0.0142280
817.512	0.0140118
817.590	0.0140852
817.668	0.0140649
817.746	0.0141319
817.825	0.0140635
817.903	0.0141293
817.981	0.0141332
818.059	0.0141331
818.137	0.0142010
818.215	0.0141829
818.293	0.0140040
818.371	0.0142918
818.450	0.0141178
818.528	0.0141061
818.606	0.0140092
818.684	0.0141324
818.762	0.0141991
818.840	0.0141529
818.918	0.0140018
818.996	0.0139315
819.075	0.0142243
819.153	0.0141058
819.231	0.0140302
819.309	0.0140578
819.387	0.0140137
819.465	0.0140204
819.543	0.0142270
819.621	0.0140345
819.700	0.0140434
819.778	0.0140256
819.856	0.0141273
819.934	0.0139925
820.012	0.0140791
820.090	0.0141069
820.168	0.0141327
820.246	0.0141876
820.325	0.0142395
820.403	0.0140802
820.481	0.0141069
820.559	0.0141412
820.637	0.0139957
820.715	0.0139883
820.793	0.0141322
820.871	0.0140057
820.950	0.0139981
821.028	0.0141286
821.106	0.0140660
821.184	0.0139661
821.262	0.0140854
821.340	0.0140720
821.418	0.0140342
821.496	0.0140657
821.575	0.0139780
821.653	0.0139768
821.731	0.0141207
821.809	0.0140026
821.887	0.0140922
821.965	0.0139726
822.043	0.0140804
822.121	0.0140408
822.200	0.0140609
822.278	0.0139812
822.356	0.0141740
822.434	0.0140403
822.512	0.0140284
822.590	0.0139667
822.668	0.0140185
822.746	0.0139061
822.825	0.0139664
822.903	0.0139452
822.981	0.0138718
823.059	0.0138753
823.137	0.0140584
823.215	0.0140638
823.293	0.0141061
823.371	0.0139104
823.450	0.0140276
823.528	0.0139851
823.606	0.0139834
823.684	0.0141136
823.762	0.0140614
823.840	0.0140880
823.918	0.0141856
823.996	0.0141401
824.075	0.0142551
824.153	0.0140870
824.231	0.0141060
824.309	0.0140821
824.387	0.0141141
824.465	0.0140624
824.543	0.0142193
824.621	0.0140678
824.700	0.0141817
824.778	0.0140632
824.856	0.0140232
824.934	0.0140531
825.012	0.0140641
825.090	0.0141483
825.168	0.0141263
825.246	0.0139952
825.325	0.0140893
825.403	0.0141013
825.481	0.0140406
825.559	0.0141496
825.637	0.0141428
825.715	0.0141372
825.793	0.0140358
825.871	0.0140715
825.950	0.0141186
826.028	0.0141805
826.106	0.0140744
826.184	0.0141572
826.262	0.0141695
826.340	0.0142349
826.418	0.0139822
826.496	0.0140263
826.575	0.0142160
826.653	0.0140797
826.731	0.0140507
826.809	0.0141092
826.887	0.0141444
826.965	0.0140371
827.043	0.0141576
827.121	0.0141263
827.200	0.0141160
827.278	0.0141376
827.356	0.0141556
827.434	0.0141247
827.512	0.0141005
827.590	0.0140103
827.668	0.0140110
827.746	0.0140859
827.825	0.0140285
827.903	0.0141583
827.981	0.0140395
828.059	0.0139982
828.137	0.0142632
828.215	0.0142553
828.293	0.0141827
828.371	0.0140974
828.450	0.0139477
828.528	0.0140680
828.606	0.0140405
828.684	0.0140055
828.762	0.0141727
828.840	0.0141150
828.918	0.0140571
828.996	0.0140952
829.075	0.0140326
829.153	0.0139549
829.231	0.0141515
829.309	0.0140888
829.387	0.0140580
829.465	0.0140688
829.543	0.0141718
829.621	0.0140797
829.700	0.0140658
829.778	0.0142155
829.856	0.0140427
829.934	0.0141483
830.012	0.0139858
830.090	0.0141451
830.168	0.0141111
830.246	0.0140403
830.325	0.0140401
830.403	0.0139635
830.481	0.0141213
830.559	0.0142616
830.637	0.0140408
830.715	0.0139741
830.793	0.0140424
830.871	0.0140738
830.950	0.0139861
831.028	0.0141749
831.106	0.0139964
831.184	0.0140094
831.262	0.0139581
831.340	0.0140525
831.418	0.0141052
831.496	0.0140081
831.575	0.0141120
831.653	0.0139156
831.731	0.0139610
831.809	0.0140076
831.887	0.0139767
831.965	0.0139290
832.043	0.0140877
832.121	0.0140188
832.200	0.0140172
832.278	0.0139654
832.356	0.0139437
832.434	0.0139997
832.512	0.0139169
832.590	0.0140458
832.668	0.0140937
832.746	0.0140247
832.825	0.0142096
832.903	0.0140851
832.981	0.0139992
833.059	0.0139927
833.137	0.0141313
833.215	0.0140066
833.293	0.0140107
833.371	0.0139699
833.450	0.0141403
833.528	0.0140680
833.606	0.0141632
833.684	0.0141252
833.762	0.0141624
833.840	0.0141260
833.918	0.0141615
833.996	0.0140330
834.075	0.0141849
834.153	0.0140395
834.231	0.0140509
834.309	0.0141036
834.387	0.0141380
834.465	0.0140865
834.543	0.0140500
834.621	0.0139423
834.700	0.0140946
834.778	0.0141125
834.856	0.0140523
834.934	0.0140309
835.012	0.0140784
835.090	0.0141260
835.168	0.0141103
835.246	0.0141968
835.325	0.0140980
835.403	0.0142107
835.481	0.0140676
835.559	0.0140115
835.637	0.0140933
835.715	0.0140681
835.793	0.0141541
835.871	0.0140568
835.950	0.0140476
836.028	0.0140076
836.106	0.0141268
836.184	0.0140672
836.262	0.0141084
836.340	0.0141095
836.418	0.0140605
836.496	0.0140411
836.575	0.0140372
836.653	0.0140908
836.731	0.0140485
836.809	0.0140586
836.887	0.0140509
836.965	0.0140972
837.043	0.0140596
837.121	0.0140880
837.200	0.0141245
837.278	0.0140985
837.356	0.0140966
837.434	0.0141087
837.512	0.0141104
837.590	0.0140651
837.668	0.0140575
837.746	0.0140403
837.825	0.0141003
837.903	0.0140544
837.981	0.0139616
838.059	0.0141578
838.137	0.0142036
838.215	0.0142570
838.293	0.0140280
838.371	0.0139721
838.450	0.0140618
838.528	0.0140958
838.606	0.0141387
838.684	0.0140623
838.762	0.0140035
838.840	0.0140254
838.918	0.0140478
838.996	0.0140395
839.075	0.0140639
839.153	0.0140472
839.231	0.0141650
839.309	0.0141684
839.387	0.0140609
839.465	0.0139797
839.543	0.0140305
839.621	0.0141071
839.700	0.0139553
839.778	0.0138470
839.856	0.0139907
839.934	0.0139499
840.012	0.0140353
840.090	0.0140205
840.168	0.0139141
840.246	0.0139606
840.325	0.0140221
840.403	0.0139941
840.481	0.0140353
840.559	0.0140938
840.637	0.0141213
840.715	0.0140446
840.793	0.0140499
840.871	0.0140701
840.950	0.0139384
841.028	0.0140833
841.106	0.0139684
841.184	0.0139725
841.262	0.0138354
841.340	0.0138832
841.418	0.0140704
841.496	0.0139484
841.575	0.0139238
841.653	0.0139606
841.731	0.0139473
841.809	0.0140750
841.887	0.0140119
841.965	0.0139207
842.043	0.0142029
842.121	0.0140389
842.200	0.0139574
842.278	0.0139478
842.356	0.0141871
842.434	0.0140985
842.512	0.0140580
842.590	0.0141540
842.668	0.0140327
842.746	0.0141428
842.825	0.0139312
842.903	0.0140494
842.981	0.0139044
843.059	0.0141021
843.137	0.0141366
843.215	0.0140515
843.293	0.0140575
843.371	0.0140747
843.450	0.0140792
843.528	0.0140083
843.606	0.0140186
843.684	0.0141341
843.762	0.0140997
843.840	0.0139958
843.918	0.0140472
843.996	0.0140783
844.075	0.0140706
844.153	0.0140920
844.231	0.0141438
844.309	0.0141216
844.387	0.0141150
844.465	0.0139939
844.543	0.0140293
844.621	0.0140729
844.700	0.0141247
844.778	0.0141028
844.856	0.0141114
844.934	0.0141450
845.012	0.0142381
845.090	0.0140373
845.168	0.0141154
845.246	0.0141032
845.325	0.0140871
845.403	0.0141006
845.481	0.0141698
845.559	0.0140463
845.637	0.0140564
845.715	0.0140954
845.793	0.0139124
845.871	0.0140681
845.950	0.0140946
846.028	0.0141105
846.106	0.0141085
846.184	0.0139311
846.262	0.0142422
846.340	0.0140269
846.418	0.0140050
846.496	0.0140534
846.575	0.0141187
846.653	0.0141290
846.731	0.0141102
846.809	0.0141056
846.887	0.0140174
846.965	0.0142007
847.043	0.0142153
847.121	0.0141007
847.200	0.0141629
847.278	0.0142326
847.356	0.0141758
847.434	0.0141076
847.512	0.0141988
847.590	0.0141010
847.668	0.0141827
847.746	0.0140738
847.825	0.0141592
847.903	0.0140043
847.981	0.0141627
848.059	0.0140340
848.137	0.0141408
848.215	0.0141289
848.293	0.0140791
848.371	0.0139720
848.450	0.0140731
848.528	0.0140293
848.606	0.0140885
848.684	0.0139780
848.762	0.0141500
848.840	0.0140762
848.918	0.0140734
848.996	0.0140951
849.075	0.0140974
849.153	0.0140706
849.231	0.0140493
849.309	0.0140396
849.387	0.0140320
849.465	0.0141290
849.543	0.0140585
849.621	0.0140886
849.700	0.0141177
849.778	0.0141208
849.856	0.0141341
849.934	0.0140158
850.012	0.0139851
850.090	0.0142054
850.168	0.0141867
850.246	0.0140527
850.325	0.0140203
850.403	0.0140800
850.481	0.0141750
850.559	0.0142519
850.637	0.0141225
850.715	0.0140919
850.793	0.0141260
850.871	0.0141267
850.950	0.0140773
851.028	0.0141360
851.106	0.0140057
851.184	0.0141223
851.262	0.0139571
851.340	0.0140345
851.418	0.0141037
851.496	0.0140885
851.575	0.0140514
851.653	0.0140909
851.731	0.0140800
851.809	0.0139093
851.887	0.0140458
851.965	0.0142003
852.043	0.0140549
852.121	0.0141567
852.200	0.0141325
852.278	0.0141151
852.356	0.0141624
852.434	0.0140690
852.512	0.0140766
852.590	0.0140884
852.668	0.0141763
852.746	0.0141532
852.825	0.0141943
852.903	0.0142310
852.981	0.0141210
853.059	0.0140849
853.137	0.0141861
853.215	0.0140398
853.293	0.0139603
853.371	0.0140599
853.450	0.0140849
853.528	0.0140211
853.606	0.0140592
853.684	0.0141413
853.762	0.0139700
853.840	0.0138931
853.918	0.0139207
853.996	0.0140127
854.075	0.0139642
854.153	0.0140439
854.231	0.0140560
854.309	0.0141287
854.387	0.0140407
854.465	0.0140305
854.543	0.0141085
854.621	0.0140871
854.700	0.0139573
854.778	0.0141035
854.856	0.0140476
854.934	0.0140084
855.012	0.0139768
855.090	0.0140963
855.168	0.0140267
855.246	0.0141656
855.325	0.0140874
855.403	0.0140894
855.481	0.0140968
855.559	0.0141449
855.637	0.0142204
855.715	0.0143272
855.793	0.0140628
855.871	0.0140646
855.950	0.0140669
856.028	0.0139690
856.106	0.0140633
856.184	0.0141677
856.262	0.0139704
856.340	0.0140022
856.418	0.0140028
856.496	0.0140857
856.575	0.0141391
856.653	0.0140443
856.731	0.0140305
856.809	0.0142247
856.887	0.0141289
856.965	0.0141140
857.043	0.0140217
857.121	0.0139764
857.200	0.0139534
857.278	0.0141749
857.356	0.0141561
857.434	0.0139636
857.512	0.0141137
857.590	0.0139893
857.668	0.0141042
857.746	0.0141492
857.825	0.0141505
857.903	0.0140372
857.981	0.0140707
858.059	0.0140688
858.137	0.0140820
858.215	0.0140723
858.293	0.0141019
858.371	0.0141105
858.450	0.0141437
858.528	0.0141180
858.606	0.0141166
858.684	0.0141675
858.762	0.0141919
858.840	0.0140917
858.918	0.0141611
858.996	0.0141322
859.075	0.0140992
859.153	0.0141081
859.231	0.0140413
859.309	0.0141013
859.387	0.0140369
859.465	0.0140666
859.543	0.0141498
859.621	0.0140206
859.700	0.0140253
859.778	0.0140072
859.856	0.0140636
859.934	0.0141480
860.012	0.0140624
860.090	0.0140456
860.168	0.0140715
860.246	0.0139926
860.325	0.0141122
860.403	0.0140838
860.481	0.0140416
860.559	0.0139883
860.637	0.0140553
860.715	0.0140246
860.793	0.0141332
860.871	0.0140647
860.950	0.0140239
861.028	0.0141890
861.106	0.0141737
861.184	0.0141622
861.262	0.0140388
861.340	0.0141766
861.418	0.0141305
861.496	0.0141926
861.575	0.0141544
861.653	0.0140936
861.731	0.0141766
861.809	0.0141354
861.887	0.0143109
861.965	0.0141015
862.043	0.0141856
862.121	0.0141882
862.200	0.0142097
862.278	0.0141569
862.356	0.0140672
862.434	0.0141552
862.512	0.0141351
862.590	0.0141180
862.668	0.0140663
862.746	0.0142194
862.825	0.0140432
862.903	0.0141470
862.981	0.0141633
863.059	0.0141230
863.137	0.0142992
863.215	0.0140829
863.293	0.0140247
863.371	0.0140612
863.450	0.0140360
863.528	0.0140758
863.606	0.0141698
863.684	0.0140263
863.762	0.0141466
863.840	0.0140481
863.918	0.0139597
863.996	0.0140331
864.075	0.0140788
864.153	0.0140397
864.231	0.0141441
864.309	0.0140492
864.387	0.0141048
864.465	0.0141908
864.543	0.0140263
864.621	0.0138803
864.700	0.0141165
864.778	0.0142020
864.856	0.0141972
864.934	0.0139828
865.012	0.0140931
865.090	0.0140627
865.168	0.0141576
865.246	0.0141000
865.325	0.0139928
865.403	0.0141489
865.481	0.0139906
865.559	0.0141173
865.637	0.0140598
865.715	0.0141991
865.793	0.0140155
865.871	0.0140446
865.950	0.0142011
866.028	0.0141114
866.106	0.0138954
866.184	0.0139503
866.262	0.0140014
866.340	0.0139976
866.418	0.0140327
866.496	0.0140466
866.575	0.0140626
866.653	0.0139866
866.731	0.0141010
866.809	0.0139994
866.887	0.0140759
866.965	0.0140240
867.043	0.0140598
867.121	0.0141086
867.200	0.0140517
867.278	0.0140634
867.356	0.0141132
867.434	0.0140034
867.512	0.0140606
867.590	0.0141363
867.668	0.0142003
867.746	0.0139575
867.825	0.0139638
867.903	0.0141121
867.981	0.0140264
868.059	0.0139552
868.137	0.0140395
868.215	0.0141209
868.293	0.0141341
868.371	0.0140419
868.450	0.0142443
868.528	0.0141805
868.606	0.0141022
868.684	0.0139680
868.762	0.0140647
868.840	0.0141412
868.918	0.0140572
868.996	0.0140615
869.075	0.0141662
869.153	0.0141103
869.231	0.0140060
869.309	0.0140442
869.387	0.0140630
869.465	0.0141464
869.543	0.0141027
869.621	0.0140884
869.700	0.0140477
869.778	0.0140067
869.856	0.0141864
869.934	0.0141205
870.012	0.0140941
870.090	0.0139618
870.168	0.0139381
870.246	0.0140472
870.325	0.0140562
870.403	0.0140317
870.481	0.0140519
870.559	0.0141747
870.637	0.0140826
870.715	0.0140823
870.793	0.0141296
870.871	0.0140782
870.950	0.0140179
871.028	0.0140330
871.106	0.0140558
871.184	0.0140722
871.262	0.0140526
871.340	0.0141576
871.418	0.0141114
871.496	0.0140749
871.575	0.0140598
871.653	0.0140968
871.731	0.0140180
871.809	0.0141311
871.887	0.0140707
871.965	0.0141047
872.043	0.0140922
872.121	0.0140871
872.200	0.0139394
872.278	0.0141623
872.356	0.0141084
872.434	0.0139995
872.512	0.0141474
872.590	0.0140834
872.668	0.0141923
872.746	0.0140910
872.825	0.0142303
872.903	0.0141228
872.981	0.0141048
873.059	0.0140923
873.137	0.0142411
873.215	0.0140553
873.293	0.0141866
873.371	0.0142510
873.450	0.0140968
873.528	0.0140503
873.606	0.0142422
873.684	0.0141931
873.762	0.0140603
873.840	0.0141659
873.918	0.0140974
873.996	0.0140677
874.075	0.0141969
874.153	0.0141068
874.231	0.0140971
874.309	0.0141248
874.387	0.0142111
874.465	0.0141418
874.543	0.0139964
874.621	0.0141155
874.700	0.0141808
874.778	0.0140696
874.856	0.0141178
874.934	0.0142439
875.012	0.0140916
875.090	0.0141555
875.168	0.0141323
875.246	0.0140719
875.325	0.0141254
875.403	0.0141782
875.481	0.0140799
875.559	0.0141777
875.637	0.0138922
875.715	0.0141361
875.793	0.0140041
875.871	0.0140130
875.950	0.0142319
876.028	0.0141472
876.106	0.0141048
876.184	0.0140968
876.262	0.0141180
876.340	0.0142215
876.418	0.0140578
876.496	0.0141398
876.575	0.0140983
876.653	0.0140879
876.731	0.0141309
876.809	0.0140724
876.887	0.0140320
876.965	0.0142303
877.043	0.0140172
877.121	0.0139638
877.200	0.0140465
877.278	0.0140849
877.356	0.0140646
877.434	0.0141160
877.512	0.0142370
877.590	0.0140871
877.668	0.0141281
877.746	0.0141642
877.825	0.0142088
877.903	0.0140852
877.981	0.0141132
878.059	0.0140762
878.137	0.0140791
878.215	0.0141110
878.293	0.0140758
878.371	0.0141082
878.450	0.0141990
878.528	0.0140740
878.606	0.0140843
878.684	0.0140852
878.762	0.0140693
878.840	0.0140347
878.918	0.0139655
878.996	0.0140770
879.075	0.0140513
879.153	0.0141269
879.231	0.0140675
879.309	0.0141166
879.387	0.0141257
879.465	0.0141566
879.543	0.0142010
879.621	0.0139999
879.700	0.0141058
879.778	0.0141762
879.856	0.0140480
879.934	0.0139674
880.012	0.0140286
880.090	0.0140672
880.168	0.0141282
880.246	0.0139208
880.325	0.0140769
880.403	0.0140974
880.481	0.0141838
880.559	0.0140886
880.637	0.0141542
880.715	0.0140675
880.793	0.0141145
880.871	0.0140867
880.950	0.0140686
881.028	0.0140450
881.106	0.0141194
881.184	0.0141469
881.262	0.0142109
881.340	0.0141190
881.418	0.0141602
881.496	0.0140707
881.575	0.0140982
881.653	0.0141264
881.731	0.0140056
881.809	0.0140456
881.887	0.0140382
881.965	0.0142234
882.043	0.0141405
882.121	0.0141238
882.200	0.0139973
882.278	0.0142068
882.356	0.0141235
882.434	0.0141369
882.512	0.0140316
882.590	0.0139898
882.668	0.0140470
882.746	0.0141888
882.825	0.0140765
882.903	0.0141695
882.981	0.0141333
883.059	0.0140747
883.137	0.0140638
883.215	0.0140659
883.293	0.0140224
883.371	0.0140849
883.450	0.0141287
883.528	0.0140840
883.606	0.0141288
883.684	0.0141370
883.762	0.0140098
883.840	0.0141337
883.918	0.0140003
883.996	0.0140659
884.075	0.0141655
884.153	0.0139591
884.231	0.0140051
884.309	0.0140897
884.387	0.0140435
884.465	0.0140599
884.543	0.0141452
884.621	0.0140631
884.700	0.0140990
884.778	0.0141284
884.856	0.0141378
884.934	0.0139991
885.012	0.0140472
885.090	0.0140906
885.168	0.0140954
885.246	0.0141261
885.325	0.0140817
885.403	0.0141357
885.481	0.0142326
885.559	0.0140951
885.637	0.0140999
885.715	0.0140213
885.793	0.0141130
885.871	0.0141315
885.950	0.0140549
886.028	0.0140654
886.106	0.0140724
886.184	0.0139879
886.262	0.0141170
886.340	0.0140717
886.418	0.0141880
886.496	0.0141698
886.575	0.0139256
886.653	0.0140273
886.731	0.0141732
886.809	0.0141965
886.887	0.0141222
886.965	0.0140703
887.043	0.0140284
887.121	0.0139249
887.200	0.0140952
887.278	0.0140184
887.356	0.0141727
887.434	0.0140427
887.512	0.0140424
887.590	0.0141243
887.668	0.0139591
887.746	0.0142359
887.825	0.0142455
887.903	0.0141974
887.981	0.0141568
888.059	0.0140466
888.137	0.0141093
888.215	0.0142117
888.293	0.0142075
888.371	0.0141698
888.450	0.0141961
888.528	0.0140708
888.606	0.0140527
888.684	0.0139410
888.762	0.0141472
888.840	0.0141013
888.918	0.0141510
888.996	0.0139835
889.075	0.0140672
889.153	0.0141528
889.231	0.0141197
889.309	0.0141794
889.387	0.0141273
889.465	0.0141271
889.543	0.0141337
889.621	0.0140581
889.700	0.0140092
889.778	0.0139813
889.856	0.0140778
889.934	0.0140977
890.012	0.0141342
890.090	0.0139975
890.168	0.0139793
890.246	0.0140658
890.325	0.0141298
890.403	0.0140710
890.481	0.0140688
890.559	0.0139766
890.637	0.0139959
890.715	0.0140874
890.793	0.0140475
890.871	0.0140611
890.950	0.0139794
891.028	0.0140772
891.106	0.0139413
891.184	0.0139291
891.262	0.0140263
891.340	0.0140434
891.418	0.0139972
891.496	0.0139999
891.575	0.0139072
891.653	0.0140666
891.731	0.0141851
891.809	0.0141284
891.887	0.0138840
891.965	0.0140471
892.043	0.0141096
892.121	0.0141241
892.200	0.0138663
892.278	0.0140654
892.356	0.0141063
892.434	0.0138586
892.512	0.0140710
892.590	0.0140782
892.668	0.0139542
892.746	0.0140781
892.825	0.0141364
892.903	0.0140372
892.981	0.0141076
893.059	0.0140952
893.137	0.0141181
893.215	0.0140916
893.293	0.0139934
893.371	0.0140691
893.450	0.0141068
893.528	0.0142105
893.606	0.0141191
893.684	0.0141216
893.762	0.0141735
893.840	0.0140395
893.918	0.0140945
893.996	0.0141764
894.075	0.0141455
894.153	0.0142528
894.231	0.0141495
894.309	0.0141274
894.387	0.0139532
894.465	0.0141102
894.543	0.0141998
894.621	0.0140683
894.700	0.0141842
894.778	0.0141733
894.856	0.0141908
894.934	0.0140993
895.012	0.0141283
895.090	0.0141254
895.168	0.0139741
895.246	0.0141145
895.325	0.0142528
895.403	0.0141271
895.481	0.0141013
895.559	0.0140021
895.637	0.0141832
895.715	0.0141577
895.793	0.0142133
895.871	0.0141128
895.950	0.0140668
896.028	0.0141527
896.106	0.0142365
896.184	0.0142358
896.262	0.0141027
896.340	0.0141585
896.418	0.0142589
896.496	0.0141681
896.575	0.0140299
896.653	0.0142328
896.731	0.0140784
896.809	0.0140951
896.887	0.0141243
896.965	0.0141418
897.043	0.0141544
897.121	0.0141322
897.200	0.0140686
897.278	0.0140766
897.356	0.0143707
897.434	0.0141450
897.512	0.0141741
897.590	0.0141680
897.668	0.0140393
897.746	0.0142270
897.825	0.0142809
897.903	0.0141449
897.981	0.0141018
898.059	0.0141596
898.137	0.0142058
898.215	0.0141607
898.293	0.0140897
898.371	0.0141762
898.450	0.0141327
898.528	0.0142580
898.606	0.0140214
898.684	0.0140241
898.762	0.0141521
898.840	0.0142239
898.918	0.0142362
898.996	0.0141932
899.075	0.0141096
899.153	0.0141500
899.231	0.0140892
899.309	0.0140910
899.387	0.0141770
899.465	0.0142011
899.543	0.0141320
899.621	0.0141505
899.700	0.0142580
899.778	0.0140960
899.856	0.0140751
899.934	0.0140630
900.012	0.0140346
900.090	0.0141994
900.168	0.0141636
900.246	0.0140755
900.325	0.0140739
900.403	0.0140907
900.481	0.0140593
900.559	0.0140121
900.637	0.0140826
900.715	0.0141060
900.793	0.0141570
900.871	0.0141547
900.950	0.0140189
901.028	0.0141613
901.106	0.0141065
901.184	0.0141205
901.262	0.0140330
901.340	0.0141138
901.418	0.0139069
901.496	0.0140150
901.575	0.0139396
901.653	0.0141021
901.731	0.0140850
901.809	0.0140575
901.887	0.0139928
901.965	0.0141096
902.043	0.0140789
902.121	0.0141158
902.200	0.0139646
902.278	0.0140425
902.356	0.0140598
902.434	0.0140424
902.512	0.0140506
902.590	0.0138922
902.668	0.0139710
902.746	0.0141830
902.825	0.0140565
902.903	0.0139664
902.981	0.0140372
903.059	0.0140656
903.137	0.0140158
903.215	0.0140570
903.293	0.0140333
903.371	0.0139315
903.450	0.0140267
903.528	0.0142528
903.606	0.0140045
903.684	0.0141118
903.762	0.0141216
903.840	0.0141419
903.918	0.0139966
903.996	0.0140814
904.075	0.0140778
904.153	0.0139244
904.231	0.0139717
904.309	0.0140926
904.387	0.0141380
904.465	0.0141502
904.543	0.0140670
904.621	0.0140301
904.700	0.0141078
904.778	0.0140637
904.856	0.0140496
904.934	0.0141056
905.012	0.0141467
905.090	0.0140022
905.168	0.0141072
905.246	0.0142171
905.325	0.0140518
905.403	0.0139926
905.481	0.0141714
905.559	0.0142297
905.637	0.0139105
905.715	0.0141326
905.793	0.0142065
905.871	0.0141029
905.950	0.0141694
906.028	0.0140845
906.106	0.0141400
906.184	0.0140950
906.262	0.0141462
906.340	0.0141512
906.418	0.0140958
906.496	0.0141406
906.575	0.0140948
906.653	0.0141187
906.731	0.0141103
906.809	0.0140263
906.887	0.0142781
906.965	0.0140720
907.043	0.0140370
907.121	0.0140717
907.200	0.0141099
907.278	0.0140779
907.356	0.0141322
907.434	0.0141099
907.512	0.0140560
907.590	0.0141659
907.668	0.0141685
907.746	0.0142007
907.825	0.0140265
907.903	0.0141238
907.981	0.0141344
908.059	0.0142012
908.137	0.0141157
908.215	0.0140676
908.293	0.0142498
908.371	0.0142839
908.450	0.0142378
908.528	0.0140443
908.606	0.0141689
908.684	0.0142154
908.762	0.0141667
908.840	0.0141684
908.918	0.0141677
908.996	0.0139524
909.075	0.0140558
909.153	0.0142680
909.231	0.0140705
909.309	0.0141173
909.387	0.0140914
909.465	0.0140113
909.543	0.0140617
909.621	0.0141351
909.700	0.0142094
909.778	0.0141018
909.856	0.0140905
909.934	0.0141083
910.012	0.0141511
910.090	0.0140329
910.168	0.0140019
910.246	0.0141753
910.325	0.0140750
910.403	0.0140265
910.481	0.0141553
910.559	0.0140296
910.637	0.0139864
910.715	0.0141279
910.793	0.0141960
910.871	0.0140259
910.950	0.0139538
911.028	0.0142268
911.106	0.0140199
911.184	0.0141104
911.262	0.0139529
911.340	0.0140968
911.418	0.0140826
911.496	0.0139256
911.575	0.0140076
911.653	0.0140772
911.731	0.0138364
911.809	0.0140289
911.887	0.0139378
911.965	0.0139574
912.043	0.0139513
912.121	0.0138033
912.200	0.0140910
912.278	0.0140454
912.356	0.0140655
912.434	0.0141541
912.512	0.0140069
912.590	0.0141182
912.668	0.0140708
912.746	0.0141063
912.825	0.0139983
912.903	0.0140347
912.981	0.0140941
913.059	0.0140189
913.137	0.0141248
913.215	0.0141665
913.293	0.0140270
913.371	0.0139640
913.450	0.0140553
913.528	0.0139438
913.606	0.0140159
913.684	0.0140919
913.762	0.0140172
913.840	0.0140511
913.918	0.0141148
913.996	0.0140696
914.075	0.0140326
914.153	0.0140272
914.231	0.0139856
914.309	0.0140180
914.387	0.0141048
914.465	0.0140581
914.543	0.0141082
914.621	0.0139203
914.700	0.0140219
914.778	0.0139388
914.856	0.0141419
914.934	0.0140536
915.012	0.0139929
915.090	0.0139219
915.168	0.0140305
915.246	0.0140657
915.325	0.0140369
915.403	0.0140152
915.481	0.0139679
915.559	0.0140678
915.637	0.0139541
915.715	0.0140767
915.793	0.0140165
915.871	0.0140471
915.950	0.0139847
916.028	0.0139245
916.106	0.0141093
916.184	0.0140659
916.262	0.0140549
916.340	0.0139873
916.418	0.0139597
916.496	0.0140746
916.575	0.0140356
916.653	0.0140231
916.731	0.0140849
916.809	0.0141464
916.887	0.0140536
916.965	0.0139399
917.043	0.0139455
917.121	0.0141796
917.200	0.0139532
917.278	0.0138932
917.356	0.0140855
917.434	0.0141890
917.512	0.0139973
917.590	0.0140125
917.668	0.0141396
917.746	0.0142219
917.825	0.0140870
917.903	0.0140159
917.981	0.0141527
918.059	0.0142134
918.137	0.0141007
918.215	0.0142086
918.293	0.0140852
918.371	0.0141685
918.450	0.0141814
918.528	0.0141058
918.606	0.0139790
918.684	0.0140827
918.762	0.0141181
918.840	0.0141409
918.918	0.0142665
918.996	0.0142317
919.075	0.0141110
919.153	0.0142115
919.231	0.0140319
919.309	0.0141064
919.387	0.0140718
919.465	0.0140948
919.543	0.0140724
919.621	0.0139560
919.700	0.0140163
919.778	0.0141722
919.856	0.0141931
919.934	0.0141647
920.012	0.0141509
920.090	0.0141370
920.168	0.0139276
920.246	0.0141705
920.325	0.0141384
920.403	0.0140945
920.481	0.0140731
920.559	0.0139269
920.637	0.0141049
920.715	0.0141539
920.793	0.0141564
920.871	0.0141901
920.950	0.0141561
921.028	0.0140925
921.106	0.0140879
921.184	0.0141404
921.262	0.0140371
921.340	0.0140239
921.418	0.0140891
921.496	0.0140223
921.575	0.0140371
921.653	0.0141037
921.731	0.0140214
921.809	0.0139710
921.887	0.0140684
921.965	0.0141996
922.043	0.0141460
922.121	0.0140565
922.200	0.0140416
922.278	0.0140186
922.356	0.0139219
922.434	0.0140858
922.512	0.0140289
922.590	0.0139579
922.668	0.0139750
922.746	0.0140633
922.825	0.0141317
922.903	0.0140839
922.981	0.0139945
923.059	0.0139365
923.137	0.0140926
923.215	0.0139640
923.293	0.0140685
923.371	0.0139584
923.450	0.0140488
923.528	0.0139607
923.606	0.0140331
923.684	0.0139917
923.762	0.0138170
923.840	0.0139336
923.918	0.0140482
923.996	0.0140948
924.075	0.0140307
924.153	0.0139368
924.231	0.0139735
924.309	0.0141518
924.387	0.0140689
924.465	0.0139758
924.543	0.0140670
924.621	0.0141014
924.700	0.0139939
924.778	0.0138859
924.856	0.0141100
924.934	0.0141287
925.012	0.0140660
925.090	0.0140771
925.168	0.0141988
925.246	0.0140568
925.325	0.0139725
925.403	0.0141174
925.481	0.0140694
925.559	0.0139419
925.637	0.0140738
925.715	0.0142245
925.793	0.0140874
925.871	0.0141338
925.950	0.0141272
926.028	0.0141010
926.106	0.0140170
926.184	0.0139828
926.262	0.0139247
926.340	0.0139024
926.418	0.0140368
926.496	0.0140022
926.575	0.0140054
926.653	0.0139243
926.731	0.0139732
926.809	0.0140987
926.887	0.0140607
926.965	0.0140038
927.043	0.0140491
927.121	0.0141013
927.200	0.0141898
927.278	0.0140389
927.356	0.0140373
927.434	0.0141536
927.512	0.0141988
927.590	0.0140681
927.668	0.0139717
927.746	0.0141595
927.825	0.0141138
927.903	0.0140753
927.981	0.0141007
928.059	0.0142258
928.137	0.0140858
928.215	0.0140467
928.293	0.0141552
928.371	0.0140137
928.450	0.0141297
928.528	0.0141306
928.606	0.0140130
928.684	0.0140274
928.762	0.0141115
928.840	0.0139563
928.918	0.0139137
928.996	0.0140456
929.075	0.0140210
929.153	0.0140981
929.231	0.0140873
929.309	0.0139570
929.387	0.0140372
929.465	0.0140805
929.543	0.0140969
929.621	0.0141089
929.700	0.0139831
929.778	0.0139233
929.856	0.0140815
929.934	0.0141349
930.012	0.0141172
930.090	0.0141395
930.168	0.0141283
930.246	0.0141718
930.325	0.0140658
930.403	0.0140128
930.481	0.0141192
930.559	0.0141531
930.637	0.0141069
930.715	0.0141112
930.793	0.0140778
930.871	0.0139571
930.950	0.0140241
931.028	0.0141655
931.106	0.0139661
931.184	0.0141068
931.262	0.0138913
931.340	0.0139646
931.418	0.0140898
931.496	0.0141231
931.575	0.0140089
931.653	0.0140231
931.731	0.0141659
931.809	0.0140717
931.887	0.0141370
931.965	0.0139081
932.043	0.0139493
932.121	0.0139679
932.200	0.0140679
932.278	0.0141296
932.356	0.0142354
932.434	0.0140998
932.512	0.0140722
932.590	0.0140855
932.668	0.0139345
932.746	0.0138847
932.825	0.0140253
932.903	0.0140871
932.981	0.0139814
933.059	0.0140215
933.137	0.0140105
933.215	0.0140654
933.293	0.0140896
933.371	0.0139561
933.450	0.0140182
933.528	0.0139018
933.606	0.0139686
933.684	0.0141238
933.762	0.0140697
933.840	0.0139703
933.918	0.0139578
933.996	0.0139435
934.075	0.0139793
934.153	0.0139093
934.231	0.0140068
934.309	0.0139709
934.387	0.0139322
934.465	0.0138895
934.543	0.0139654
934.621	0.0141562
934.700	0.0140549
934.778	0.0140370
934.856	0.0141534
934.934	0.0139478
935.012	0.0141206
935.090	0.0140935
935.168	0.0141661
935.246	0.0140383
935.325	0.0138972
935.403	0.0139713
935.481	0.0140089
935.559	0.0140357
935.637	0.0139928
935.715	0.0141257
935.793	0.0140851
935.871	0.0141124
935.950	0.0139508
936.028	0.0140061
936.106	0.0139376
936.184	0.0139904
936.262	0.0140957
936.340	0.0140101
936.418	0.0139309
936.496	0.0141367
936.575	0.0141581
936.653	0.0140232
936.731	0.0139268
936.809	0.0140392
936.887	0.0139874
936.965	0.0140339
937.043	0.0140625
937.121	0.0140958
937.200	0.0141734
937.278	0.0141186
937.356	0.0142161
937.434	0.0140721
937.512	0.0141446
937.590	0.0141536
937.668	0.0141126
937.746	0.0141924
937.825	0.0141641
937.903	0.0141389
937.981	0.0141553
938.059	0.0141107
938.137	0.0139661
938.215	0.0141515
938.293	0.0142499
938.371	0.0140787
938.450	0.0140482
938.528	0.0139928
938.606	0.0139776
938.684	0.0141019
938.762	0.0140908
938.840	0.0141922
938.918	0.0140942
938.996	0.0140974
939.075	0.0141071
939.153	0.0139737
939.231	0.0139577
939.309	0.0140080
939.387	0.0141058
939.465	0.0139616
939.543	0.0140556
939.621	0.0140650
939.700	0.0141058
939.778	0.0140490
939.856	0.0140064
939.934	0.0139442
940.012	0.0141312
940.090	0.0140804
940.168	0.0140131
940.246	0.0141302
940.325	0.0139978
940.403	0.0141530
940.481	0.0141496
940.559	0.0140221
940.637	0.0140559
940.715	0.0141446
940.793	0.0140807
940.871	0.0140873
940.950	0.0139365
941.028	0.0141177
941.106	0.0140518
941.184	0.0141032
941.262	0.0141077
941.340	0.0139514
941.418	0.0141844
941.496	0.0141037
941.575	0.0140924
941.653	0.0141559
941.731	0.0142201
941.809	0.0139619
941.887	0.0139179
941.965	0.0142008
942.043	0.0143169
942.121	0.0141595
942.200	0.0141110
942.278	0.0141812
942.356	0.0141340
942.434	0.0140838
942.512	0.0140948
942.590	0.0142337
942.668	0.0140443
942.746	0.0141218
942.825	0.0142704
942.903	0.0142365
942.981	0.0140569
943.059	0.0141611
943.137	0.0140783
943.215	0.0140042
943.293	0.0141491
943.371	0.0140636
943.450	0.0142702
943.528	0.0140804
943.606	0.0140952
943.684	0.0140446
943.762	0.0139818
943.840	0.0142364
943.918	0.0140987
943.996	0.0140831
944.075	0.0141197
944.153	0.0140447
944.231	0.0140639
944.309	0.0140411
944.387	0.0140254
944.465	0.0141300
944.543	0.0140990
944.621	0.0140681
944.700	0.0140722
944.778	0.0139767
944.856	0.0140842
944.934	0.0141181
945.012	0.0140058
945.090	0.0141193
945.168	0.0140154
945.246	0.0139709
945.325	0.0140904
945.403	0.0141792
945.481	0.0140908
945.559	0.0139884
945.637	0.0140173
945.715	0.0140678
945.793	0.0140819
945.871	0.0139999
945.950	0.0139566
946.028	0.0140257
946.106	0.0141467
946.184	0.0139154
946.262	0.0139969
946.340	0.0139761
946.418	0.0140092
946.496	0.0140737
946.575	0.0141062
946.653	0.0140568
946.731	0.0141864
946.809	0.0139622
946.887	0.0139381
946.965	0.0140646
947.043	0.0139490
947.121	0.0140130
947.200	0.0141948
947.278	0.0138548
947.356	0.0139864
947.434	0.0140697
947.512	0.0140607
947.590	0.0140817
947.668	0.0140449
947.746	0.0139936
947.825	0.0140586
947.903	0.0141169
947.981	0.0140884
948.059	0.0141166
948.137	0.0141778
948.215	0.0141080
948.293	0.0140169
948.371	0.0142303
948.450	0.0141826
948.528	0.0140618
948.606	0.0140282
948.684	0.0140778
948.762	0.0142490
948.840	0.0142308
948.918	0.0140977
948.996	0.0141011
949.075	0.0141211
949.153	0.0140724
949.231	0.0140649
949.309	0.0139941
949.387	0.0142269
949.465	0.0141656
949.543	0.0140981
949.621	0.0141644
949.700	0.0139085
949.778	0.0140510
949.856	0.0140480
949.934	0.0140697
950.012	0.0141177
950.090	0.0140199
950.168	0.0140685
950.246	0.0140665
950.325	0.0140232
950.403	0.0141077
950.481	0.0140103
950.559	0.0140008
950.637	0.0141552
950.715	0.0140936
950.793	0.0139922
950.871	0.0140394
950.950	0.0139999
951.028	0.0140048
951.106	0.0139536
951.184	0.0141142
951.262	0.0140667
951.340	0.0141674
951.418	0.0140199
951.496	0.0142794
951.575	0.0142421
951.653	0.0141188
951.731	0.0141098
951.809	0.0141495
951.887	0.0140234
951.965	0.0139899
952.043	0.0142041
952.121	0.0141303
952.200	0.0141203
952.278	0.0140725
952.356	0.0140388
952.434	0.0139871
952.512	0.0141412
952.590	0.0141269
952.668	0.0140658
952.746	0.0141552
952.825	0.0142300
952.903	0.0142738
952.981	0.0142020
953.059	0.0141189
953.137	0.0141341
953.215	0.0141095
953.293	0.0140435
953.371	0.0141787
953.450	0.0141946
953.528	0.0141946
953.606	0.0139413
953.684	0.0140685
953.762	0.0141954
953.840	0.0142593
953.918	0.0142085
953.996	0.0142026
954.075	0.0140791
954.153	0.0140762
954.231	0.0142235
954.309	0.0142375
954.387	0.0141817
954.465	0.0142702
954.543	0.0143339
954.621	0.0141430
954.700	0.0141313
954.778	0.0141595
954.856	0.0141180
954.934	0.0141531
955.012	0.0140381
955.090	0.0142242
955.168	0.0141910
955.246	0.0140302
955.325	0.0140864
955.403	0.0141158
955.481	0.0141622
955.559	0.0140582
955.637	0.0142701
955.715	0.0139825
955.793	0.0140223
955.871	0.0140219
955.950	0.0141570
956.028	0.0141915
956.106	0.0140116
956.184	0.0141478
956.262	0.0140115
956.340	0.0140920
956.418	0.0140714
956.496	0.0142049
956.575	0.0140800
956.653	0.0140693
956.731	0.0139394
956.809	0.0140426
956.887	0.0139480
956.965	0.0140007
957.043	0.0140468
957.121	0.0138858
957.200	0.0140659
957.278	0.0139645
957.356	0.0140676
957.434	0.0141438
957.512	0.0141291
957.590	0.0141953
957.668	0.0141869
957.746	0.0141986
957.825	0.0141334
957.903	0.0141680
957.981	0.0141827
958.059	0.0140681
958.137	0.0141011
958.215	0.0141827
958.293	0.0140290
958.371	0.0140125
958.450	0.0140402
958.528	0.0141642
958.606	0.0140247
958.684	0.0140822
958.762	0.0140659
958.840	0.0139607
958.918	0.0141508
958.996	0.0139407
959.075	0.0140211
959.153	0.0141591
959.231	0.0142156
959.309	0.0140384
959.387	0.0139784
959.465	0.0140060
959.543	0.0140875
959.621	0.0141171
959.700	0.0140414
959.778	0.0141061
959.856	0.0141231
959.934	0.0141145
960.012	0.0141078
960.090	0.0140289
960.168	0.0139835
960.246	0.0141016
960.325	0.0141799
960.403	0.0140449
960.481	0.0140063
960.559	0.0140368
960.637	0.0140278
960.715	0.0140521
960.793	0.0140054
960.871	0.0141406
960.950	0.0139471
961.028	0.0141013
961.106	0.0140756
961.184	0.0141952
961.262	0.0140670
961.340	0.0140165
961.418	0.0140887
961.496	0.0139889
961.575	0.0141019
961.653	0.0140652
961.731	0.0141401
961.809	0.0141166
961.887	0.0139672
961.965	0.0140681
962.043	0.0140136
962.121	0.0141125
962.200	0.0140004
962.278	0.0140103
962.356	0.0141862
962.434	0.0140399
962.512	0.0140755
962.590	0.0141070
962.668	0.0142448
962.746	0.0142016
962.825	0.0140702
962.903	0.0140026
962.981	0.0140144
963.059	0.0140659
963.137	0.0141048
963.215	0.0141161
963.293	0.0140919
963.371	0.0139948
963.450	0.0142371
963.528	0.0141145
963.606	0.0142031
963.684	0.0140898
963.762	0.0140117
963.840	0.0141592
963.918	0.0141392
963.996	0.0142030
964.075	0.0140998
964.153	0.0141623
964.231	0.0141338
964.309	0.0141425
964.387	0.0141898
964.465	0.0142965
964.543	0.0140271
964.621	0.0140370
964.700	0.0141112
964.778	0.0140970
964.856	0.0141416
964.934	0.0141685
965.012	0.0141330
965.090	0.0140239
965.168	0.0141667
965.246	0.0141445
965.325	0.0140579
965.403	0.0140724
965.481	0.0140586
965.559	0.0141676
965.637	0.0140764
965.715	0.0139928
965.793	0.0142471
965.871	0.0141953
965.950	0.0141415
966.028	0.0141933
966.106	0.0142303
966.184	0.0141761
966.262	0.0141499
966.340	0.0141770
966.418	0.0142189
966.496	0.0141894
966.575	0.0141441
966.653	0.0142001
966.731	0.0140717
966.809	0.0140754
966.887	0.0142332
966.965	0.0142483
967.043	0.0141508
967.121	0.0140201
967.200	0.0142017
967.278	0.0142825
967.356	0.0141209
967.434	0.0141544
967.512	0.0141961
967.590	0.0142039
967.668	0.0142249
967.746	0.0141942
967.825	0.0141434
967.903	0.0140337
967.981	0.0142118
968.059	0.0141725
968.137	0.0141433
968.215	0.0140871
968.293	0.0140661
968.371	0.0141318
968.450	0.0141345
968.528	0.0141590
968.606	0.0140194
968.684	0.0142174
968.762	0.0141164
968.840	0.0141290
968.918	0.0141138
968.996	0.0141837
969.075	0.0140874
969.153	0.0140921
969.231	0.0141541
969.309	0.0140520
969.387	0.0141030
969.465	0.0142235
969.543	0.0141783
969.621	0.0139896
969.700	0.0140226
969.778	0.0140192
969.856	0.0140574
969.934	0.0140849
970.012	0.0141528
970.090	0.0140313
970.168	0.0140748
970.246	0.0141214
970.325	0.0140901
970.403	0.0141204
970.481	0.0140813
970.559	0.0140520
970.637	0.0140896
970.715	0.0140430
970.793	0.0139925
970.871	0.0140605
970.950	0.0140850
971.028	0.0141511
971.106	0.0141019
971.184	0.0140819
971.262	0.0140610
971.340	0.0140942
971.418	0.0140254
971.496	0.0140669
971.575	0.0141566
971.653	0.0141984
971.731	0.0140407
971.809	0.0141891
971.887	0.0140584
971.965	0.0140488
972.043	0.0139686
972.121	0.0140757
972.200	0.0140450
972.278	0.0140447
972.356	0.0141177
972.434	0.0140690
972.512	0.0140503
972.590	0.0141956
972.668	0.0141986
972.746	0.0141089
972.825	0.0139922
972.903	0.0139751
972.981	0.0140371
973.059	0.0139956
973.137	0.0140765
973.215	0.0141404
973.293	0.0141109
973.371	0.0140087
973.450	0.0140984
973.528	0.0142691
973.606	0.0140633
973.684	0.0140842
973.762	0.0140929
973.840	0.0141137
973.918	0.0141534
973.996	0.0139439
974.075	0.0140067
974.153	0.0141364
974.231	0.0141509
974.309	0.0142278
974.387	0.0142639
974.465	0.0141944
974.543	0.0142110
974.621	0.0139917
974.700	0.0140984
974.778	0.0141648
974.856	0.0141624
974.934	0.0141256
975.012	0.0141048
975.090	0.0141467
975.168	0.0141374
975.246	0.0140070
975.325	0.0141499
975.403	0.0141099
975.481	0.0139916
975.559	0.0141113
975.637	0.0140112
975.715	0.0141269
975.793	0.0140171
975.871	0.0139232
975.950	0.0140450
976.028	0.0140266
976.106	0.0142010
976.184	0.0140787
976.262	0.0140834
976.340	0.0139098
976.418	0.0139960
976.496	0.0141061
976.575	0.0140916
976.653	0.0140496
976.731	0.0141033
976.809	0.0139734
976.887	0.0140773
976.965	0.0141557
977.043	0.0140989
977.121	0.0140826
977.200	0.0141609
977.278	0.0140591
977.356	0.0141061
977.434	0.0140192
977.512	0.0140734
977.590	0.0139688
977.668	0.0139787
977.746	0.0141895
977.825	0.0140661
977.903	0.0140830
977.981	0.0141627
978.059	0.0140572
978.137	0.0142421
978.215	0.0141442
978.293	0.0141078
978.371	0.0141225
978.450	0.0141211
978.528	0.0141068
978.606	0.0141556
978.684	0.0142224
978.762	0.0142120
978.840	0.0140510
978.918	0.0142709
978.996	0.0140415
979.075	0.0141777
979.153	0.0140491
979.231	0.0139812
979.309	0.0141211
979.387	0.0141987
979.465	0.0140921
979.543	0.0139789
979.621	0.0140552
979.700	0.0141383
979.778	0.0141158
979.856	0.0140489
979.934	0.0141341
980.012	0.0139995
980.090	0.0140211
980.168	0.0141216
980.246	0.0139886
980.325	0.0140420
980.403	0.0140150
980.481	0.0140314
980.559	0.0140958
980.637	0.0141917
980.715	0.0142558
980.793	0.0142100
980.871	0.0141380
980.950	0.0141405
981.028	0.0140845
981.106	0.0139551
981.184	0.0140807
981.262	0.0140594
981.340	0.0140436
981.418	0.0140553
981.496	0.0139029
981.575	0.0141103
981.653	0.0139516
981.731	0.0140475
981.809	0.0139662
981.887	0.0139343
981.965	0.0141338
982.043	0.0141128
982.121	0.0139849
982.200	0.0140053
982.278	0.0140922
982.356	0.0141159
982.434	0.0140517
982.512	0.0140035
982.590	0.0141293
982.668	0.0140733
982.746	0.0139595
982.825	0.0140062
982.903	0.0142002
982.981	0.0140342
983.059	0.0140033
983.137	0.0140660
983.215	0.0141274
983.293	0.0140401
983.371	0.0140118
983.450	0.0141116
983.528	0.0140291
983.606	0.0141171
983.684	0.0140788
983.762	0.0140507
983.840	0.0140040
983.918	0.0141464
983.996	0.0141790
984.075	0.0140364
984.153	0.0141688
984.231	0.0140618
984.309	0.0141196
984.387	0.0141703
984.465	0.0139360
984.543	0.0139789
984.621	0.0140607
984.700	0.0141624
984.778	0.0141140
984.856	0.0141193
984.934	0.0141080
985.012	0.0141186
985.090	0.0141082
985.168	0.0141238
985.246	0.0139931
985.325	0.0141584
985.403	0.0141771
985.481	0.0140622
985.559	0.0141715
985.637	0.0142542
985.715	0.0141616
985.793	0.0141329
985.871	0.0140185
985.950	0.0141287
986.028	0.0141020
986.106	0.0141038
986.184	0.0141421
986.262	0.0142713
986.340	0.0141723
986.418	0.0141087
986.496	0.0140086
986.575	0.0141299
986.653	0.0140638
986.731	0.0140997
986.809	0.0141632
986.887	0.0141532
986.965	0.0140588
987.043	0.0141549
987.121	0.0141464
987.200	0.0141762
987.278	0.0140842
987.356	0.0141007
987.434	0.0141576
987.512	0.0141242
987.590	0.0142295
987.668	0.0141057
987.746	0.0141320
987.825	0.0140870
987.903	0.0140600
987.981	0.0141768
988.059	0.0141727
988.137	0.0140870
988.215	0.0140853
988.293	0.0141385
988.371	0.0142178
988.450	0.0141678
988.528	0.0140548
988.606	0.0140633
988.684	0.0140926
988.762	0.0140104
988.840	0.0140241
988.918	0.0141460
988.996	0.0139674
989.075	0.0140585
989.153	0.0141176
989.231	0.0140905
989.309	0.0140983
989.387	0.0139526
989.465	0.0139931
989.543	0.0140946
989.621	0.0140402
989.700	0.0140186
989.778	0.0141470
989.856	0.0140572
989.934	0.0140367
990.012	0.0141580
990.090	0.0140593
990.168	0.0140198
990.246	0.0141885
990.325	0.0140669
990.403	0.0140508
990.481	0.0140167
990.559	0.0139925
990.637	0.0140945
990.715	0.0141290
990.793	0.0140157
990.871	0.0140597
990.950	0.0139176
991.028	0.0142050
991.106	0.0141821
991.184	0.0140395
991.262	0.0140382
991.340	0.0140199
991.418	0.0141486
991.496	0.0141396
991.575	0.0140405
991.653	0.0140293
991.731	0.0140965
991.809	0.0141569
991.887	0.0140502
991.965	0.0140616
992.043	0.0140307
992.121	0.0140089
992.200	0.0141039
992.278	0.0140057
992.356	0.0139532
992.434	0.0139902
992.512	0.0140271
992.590	0.0141028
992.668	0.0140429
992.746	0.0139377
992.825	0.0141212
992.903	0.0140630
992.981	0.0139698
993.059	0.0140462
993.137	0.0139957
993.215	0.0141411
993.293	0.0141473
993.371	0.0141085
993.450	0.0140451
993.528	0.0141345
993.606	0.0141367
993.684	0.0141943
993.762	0.0141211
993.840	0.0140631
993.918	0.0140063
993.996	0.0139265
994.075	0.0138902
994.153	0.0142284
994.231	0.0141773
994.309	0.0139516
994.387	0.0140843
994.465	0.0141511
994.543	0.0140025
994.621	0.0141214
994.700	0.0141383
994.778	0.0141459
994.856	0.0139478
994.934	0.0140241
995.012	0.0138520
995.090	0.0141857
995.168	0.0142102
995.246	0.0140980
995.325	0.0141215
995.403	0.0141595
995.481	0.0141545
995.559	0.0140574
995.637	0.0142879
995.715	0.0141267
995.793	0.0140752
995.871	0.0142267
995.950	0.0141841
996.028	0.0140771
996.106	0.0140662
996.184	0.0140675
996.262	0.0142042
996.340	0.0140755
996.418	0.0140900
996.496	0.0141184
996.575	0.0139617
996.653	0.0139335
996.731	0.0140409
996.809	0.0139718
996.887	0.0140789
996.965	0.0138784
997.043	0.0140067
997.121	0.0140855
997.200	0.0140467
997.278	0.0140847
997.356	0.0140495
997.434	0.0139236
997.512	0.0140593
997.590	0.0140150
997.668	0.0139347
997.746	0.0139876
997.825	0.0139829
997.903	0.0139173
997.981	0.0139726
998.059	0.0139856
998.137	0.0140218
998.215	0.0139004
998.293	0.0140514
998.371	0.0140977
998.450	0.0140340
998.528	0.0139999
998.606	0.0141254
998.684	0.0140357
998.762	0.0140684
998.840	0.0139102
998.918	0.0139748
