05/04/2022	21:27:58	Ver.	4.1	UNKNOWN
Optical Delay	678.996401	Delta X		0.078125	Sweeps	1	Scan Rate	0/0
Coordinates	Axis 1	NaN	Axis 2	NaN	Axis 3	NaN	Axis 4	NaN	Axis 5	NaN	Axis 6	0.000000
TX Power	0.000000	RX Power	0.000000

678.996	0.0148665
679.075	0.0149078
679.153	0.0149318
679.231	0.0150095
679.309	0.0149209
679.387	0.0149477
679.465	0.0148833
679.543	0.0149035
679.621	0.0148672
679.700	0.0149229
679.778	0.0149469
679.856	0.0149637
679.934	0.0149548
680.012	0.0148160
680.090	0.0150008
680.168	0.0150222
680.246	0.0151156
680.325	0.0148927
680.403	0.0148525
680.481	0.0149924
680.559	0.0148885
680.637	0.0148115
680.715	0.0148598
680.793	0.0149558
680.871	0.0148371
680.950	0.0148445
681.028	0.0149054
681.106	0.0149603
681.184	0.0149283
681.262	0.0147902
681.340	0.0148767
681.418	0.0147766
681.496	0.0149818
681.575	0.0148774
681.653	0.0148174
681.731	0.0147503
681.809	0.0148518
681.887	0.0148732
681.965	0.0147330
682.043	0.0149136
682.121	0.0149235
682.200	0.0149337
682.278	0.0149129
682.356	0.0147984
682.434	0.0148306
682.512	0.0149237
682.590	0.0148692
682.668	0.0148012
682.746	0.0149049
682.825	0.0149187
682.903	0.0150367
682.981	0.0149249
683.059	0.0149344
683.137	0.0149948
683.215	0.0149821
683.293	0.0148280
683.371	0.0149638
683.450	0.0147430
683.528	0.0149159
683.606	0.0150249
683.684	0.0147948
683.762	0.0148591
683.840	0.0147062
683.918	0.0147543
683.996	0.0147156
684.075	0.0147196
684.153	0.0147988
684.231	0.0148379
684.309	0.0148556
684.387	0.0148363
684.465	0.0148312
684.543	0.0147817
684.621	0.0149264
684.700	0.0150236
684.778	0.0149593
684.856	0.0149333
684.934	0.0149688
685.012	0.0150077
685.090	0.0148705
685.168	0.0148228
685.246	0.0148253
685.325	0.0148183
685.403	0.0148518
685.481	0.0148190
685.559	0.0147005
685.637	0.0147077
685.715	0.0146646
685.793	0.0147916
685.871	0.0148676
685.950	0.0147742
686.028	0.0147717
686.106	0.0147707
686.184	0.0148739
686.262	0.0149027
686.340	0.0149158
686.418	0.0148887
686.496	0.0149544
686.575	0.0149338
686.653	0.0150780
686.731	0.0149690
686.809	0.0150012
686.887	0.0150529
686.965	0.0149243
687.043	0.0149281
687.121	0.0148052
687.200	0.0148125
687.278	0.0147794
687.356	0.0147095
687.434	0.0147346
687.512	0.0145743
687.590	0.0145796
687.668	0.0145764
687.746	0.0146204
687.825	0.0147631
687.903	0.0145554
687.981	0.0146886
688.059	0.0147762
688.137	0.0146436
688.215	0.0148103
688.293	0.0148563
688.371	0.0147136
688.450	0.0148431
688.528	0.0149171
688.606	0.0150304
688.684	0.0149036
688.762	0.0149072
688.840	0.0151418
688.918	0.0150613
688.996	0.0149838
689.075	0.0149479
689.153	0.0148112
689.231	0.0148039
689.309	0.0148505
689.387	0.0147362
689.465	0.0147452
689.543	0.0147330
689.621	0.0146701
689.700	0.0145837
689.778	0.0145238
689.856	0.0146064
689.934	0.0143452
690.012	0.0144061
690.090	0.0143604
690.168	0.0144908
690.246	0.0144810
690.325	0.0145250
690.403	0.0148585
690.481	0.0149390
690.559	0.0148988
690.637	0.0150617
690.715	0.0151328
690.793	0.0151830
690.871	0.0151367
690.950	0.0152508
691.028	0.0152876
691.106	0.0152699
691.184	0.0153202
691.262	0.0152670
691.340	0.0150183
691.418	0.0149284
691.496	0.0150632
691.575	0.0149969
691.653	0.0148789
691.731	0.0146567
691.809	0.0146326
691.887	0.0145551
691.965	0.0144363
692.043	0.0143053
692.121	0.0142589
692.200	0.0143704
692.278	0.0140668
692.356	0.0143517
692.434	0.0143085
692.512	0.0143710
692.590	0.0143601
692.668	0.0143769
692.746	0.0143910
692.825	0.0146075
692.903	0.0146928
692.981	0.0148758
693.059	0.0149638
693.137	0.0152167
693.215	0.0152832
693.293	0.0154244
693.371	0.0156480
693.450	0.0156809
693.528	0.0156958
693.606	0.0156696
693.684	0.0157286
693.762	0.0156854
693.840	0.0155054
693.918	0.0151984
693.996	0.0149030
694.075	0.0147705
694.153	0.0146158
694.231	0.0143072
694.309	0.0141615
694.387	0.0141785
694.465	0.0140326
694.543	0.0140839
694.621	0.0142455
694.700	0.0141203
694.778	0.0144508
694.856	0.0144540
694.934	0.0144451
695.012	0.0143916
695.090	0.0144881
695.168	0.0146534
695.246	0.0146751
695.325	0.0145952
695.403	0.0147223
695.481	0.0147722
695.559	0.0148067
695.637	0.0149745
695.715	0.0151671
695.793	0.0151238
695.871	0.0152459
695.950	0.0155364
696.028	0.0156012
696.106	0.0156139
696.184	0.0155226
696.262	0.0155551
696.340	0.0154017
696.418	0.0153227
696.496	0.0153476
696.575	0.0152495
696.653	0.0150364
696.731	0.0149628
696.809	0.0147699
696.887	0.0146727
696.965	0.0143289
697.043	0.0142599
697.121	0.0140177
697.200	0.0140128
697.278	0.0139497
697.356	0.0141296
697.434	0.0141164
697.512	0.0143920
697.590	0.0146213
697.668	0.0146172
697.746	0.0148477
697.825	0.0151111
697.903	0.0152178
697.981	0.0151770
698.059	0.0153314
698.137	0.0152626
698.215	0.0151723
698.293	0.0151380
698.371	0.0151634
698.450	0.0149505
698.528	0.0149419
698.606	0.0149529
698.684	0.0151044
698.762	0.0150555
698.840	0.0150105
698.918	0.0151598
698.996	0.0151637
699.075	0.0152977
699.153	0.0150922
699.231	0.0151276
699.309	0.0148367
699.387	0.0150172
699.465	0.0148004
699.543	0.0145721
699.621	0.0146419
699.700	0.0145492
699.778	0.0144720
699.856	0.0144286
699.934	0.0145216
700.012	0.0144611
700.090	0.0144689
700.168	0.0144646
700.246	0.0144501
700.325	0.0146808
700.403	0.0145542
700.481	0.0146548
700.559	0.0149117
700.637	0.0149094
700.715	0.0151122
700.793	0.0152240
700.871	0.0153331
700.950	0.0152570
701.028	0.0155325
701.106	0.0154823
701.184	0.0156337
701.262	0.0153162
701.340	0.0152703
701.418	0.0151889
701.496	0.0150436
701.575	0.0149711
701.653	0.0148777
701.731	0.0146932
701.809	0.0148811
701.887	0.0149113
701.965	0.0148179
702.043	0.0147236
702.121	0.0147762
702.200	0.0145875
702.278	0.0145909
702.356	0.0146508
702.434	0.0146830
702.512	0.0147124
702.590	0.0146291
702.668	0.0147134
702.746	0.0145427
702.825	0.0147231
702.903	0.0149397
702.981	0.0150334
703.059	0.0150141
703.137	0.0152662
703.215	0.0151566
703.293	0.0153333
703.371	0.0154400
703.450	0.0153982
703.528	0.0152081
703.606	0.0151420
703.684	0.0149974
703.762	0.0150534
703.840	0.0149333
703.918	0.0149434
703.996	0.0151214
704.075	0.0149939
704.153	0.0149751
704.231	0.0151537
704.309	0.0150591
704.387	0.0149502
704.465	0.0150014
704.543	0.0149603
704.621	0.0148441
704.700	0.0149590
704.778	0.0148308
704.856	0.0145898
704.934	0.0145300
705.012	0.0144681
705.090	0.0143375
705.168	0.0144559
705.246	0.0145096
705.325	0.0145407
705.403	0.0145597
705.481	0.0145867
705.559	0.0146432
705.637	0.0148218
705.715	0.0148653
705.793	0.0149149
705.871	0.0149239
705.950	0.0151487
706.028	0.0151729
706.106	0.0152399
706.184	0.0152418
706.262	0.0152449
706.340	0.0153004
706.418	0.0152383
706.496	0.0152242
706.575	0.0151741
706.653	0.0150678
706.731	0.0152248
706.809	0.0149073
706.887	0.0146377
706.965	0.0148797
707.043	0.0148839
707.121	0.0145572
707.200	0.0144205
707.278	0.0144754
707.356	0.0145391
707.434	0.0146216
707.512	0.0147551
707.590	0.0147377
707.668	0.0146873
707.746	0.0147384
707.825	0.0147873
707.903	0.0149323
707.981	0.0149075
708.059	0.0150037
708.137	0.0151424
708.215	0.0151891
708.293	0.0150465
708.371	0.0150877
708.450	0.0149725
708.528	0.0148763
708.606	0.0145863
708.684	0.0147115
708.762	0.0146193
708.840	0.0143824
708.918	0.0144685
708.996	0.0146214
709.075	0.0145425
709.153	0.0145415
709.231	0.0146665
709.309	0.0147935
709.387	0.0148397
709.465	0.0148260
709.543	0.0150201
709.621	0.0150983
709.700	0.0150793
709.778	0.0151306
709.856	0.0150864
709.934	0.0150954
710.012	0.0151401
710.090	0.0150905
710.168	0.0150521
710.246	0.0149050
710.325	0.0149450
710.403	0.0149258
710.481	0.0149595
710.559	0.0149200
710.637	0.0150302
710.715	0.0148611
710.793	0.0147816
710.871	0.0148431
710.950	0.0147561
711.028	0.0146893
711.106	0.0144225
711.184	0.0144376
711.262	0.0143680
711.340	0.0144570
711.418	0.0144505
711.496	0.0143093
711.575	0.0142225
711.653	0.0144707
711.731	0.0146157
711.809	0.0147775
711.887	0.0146230
711.965	0.0146490
712.043	0.0148772
712.121	0.0149734
712.200	0.0150330
712.278	0.0150465
712.356	0.0151225
712.434	0.0152151
712.512	0.0152312
712.590	0.0152430
712.668	0.0153928
712.746	0.0153399
712.825	0.0152189
712.903	0.0151116
712.981	0.0149487
713.059	0.0149519
713.137	0.0147545
713.215	0.0147911
713.293	0.0146622
713.371	0.0144978
713.450	0.0144984
713.528	0.0143666
713.606	0.0142987
713.684	0.0144176
713.762	0.0144609
713.840	0.0143106
713.918	0.0143837
713.996	0.0145442
714.075	0.0145929
714.153	0.0147803
714.231	0.0148340
714.309	0.0150501
714.387	0.0150797
714.465	0.0150285
714.543	0.0151311
714.621	0.0151585
714.700	0.0151260
714.778	0.0151159
714.856	0.0151540
714.934	0.0151466
715.012	0.0151232
715.090	0.0150803
715.168	0.0152048
715.246	0.0150541
715.325	0.0150040
715.403	0.0150040
715.481	0.0149203
715.559	0.0147936
715.637	0.0148571
715.715	0.0147707
715.793	0.0147546
715.871	0.0147002
715.950	0.0146086
716.028	0.0146020
716.106	0.0146379
716.184	0.0145792
716.262	0.0147389
716.340	0.0146368
716.418	0.0146318
716.496	0.0147675
716.575	0.0145916
716.653	0.0146432
716.731	0.0147343
716.809	0.0148404
716.887	0.0149478
716.965	0.0150260
717.043	0.0151821
717.121	0.0151478
717.200	0.0152177
717.278	0.0151487
717.356	0.0151221
717.434	0.0150687
717.512	0.0150790
717.590	0.0151056
717.668	0.0151410
717.746	0.0151886
717.825	0.0150574
717.903	0.0150903
717.981	0.0149474
718.059	0.0150089
718.137	0.0147847
718.215	0.0148781
718.293	0.0147128
718.371	0.0144696
718.450	0.0144494
718.528	0.0143878
718.606	0.0143116
718.684	0.0141465
718.762	0.0142652
718.840	0.0143468
718.918	0.0143620
718.996	0.0144183
719.075	0.0145480
719.153	0.0148256
719.231	0.0148280
719.309	0.0149609
719.387	0.0149034
719.465	0.0150707
719.543	0.0152283
719.621	0.0152930
719.700	0.0152903
719.778	0.0152660
719.856	0.0151875
719.934	0.0151321
720.012	0.0152206
720.090	0.0151933
720.168	0.0151274
720.246	0.0150345
720.325	0.0149970
720.403	0.0149949
720.481	0.0149800
720.559	0.0149477
720.637	0.0147982
720.715	0.0148178
720.793	0.0148723
720.871	0.0147807
720.950	0.0148821
721.028	0.0147151
721.106	0.0147729
721.184	0.0146945
721.262	0.0147610
721.340	0.0145498
721.418	0.0145856
721.496	0.0146526
721.575	0.0145629
721.653	0.0144449
721.731	0.0145583
721.809	0.0146387
721.887	0.0146759
721.965	0.0148478
722.043	0.0149042
722.121	0.0150364
722.200	0.0150758
722.278	0.0151383
722.356	0.0152313
722.434	0.0152171
722.512	0.0151445
722.590	0.0150856
722.668	0.0151117
722.746	0.0151286
722.825	0.0149780
722.903	0.0149038
722.981	0.0147807
723.059	0.0148894
723.137	0.0148787
723.215	0.0149077
723.293	0.0148580
723.371	0.0147495
723.450	0.0147626
723.528	0.0149860
723.606	0.0150436
723.684	0.0149074
723.762	0.0148513
723.840	0.0148083
723.918	0.0149277
723.996	0.0149218
724.075	0.0148576
724.153	0.0148138
724.231	0.0147153
724.309	0.0146568
724.387	0.0146985
724.465	0.0146879
724.543	0.0147321
724.621	0.0147321
724.700	0.0148969
724.778	0.0148105
724.856	0.0146550
724.934	0.0149277
725.012	0.0150277
725.090	0.0151527
725.168	0.0151611
725.246	0.0150806
725.325	0.0150752
725.403	0.0150179
725.481	0.0149561
725.559	0.0148621
725.637	0.0149152
725.715	0.0148194
725.793	0.0147336
725.871	0.0145988
725.950	0.0146231
726.028	0.0145338
726.106	0.0147033
726.184	0.0146607
726.262	0.0144923
726.340	0.0146614
726.418	0.0147173
726.496	0.0147443
726.575	0.0146596
726.653	0.0147974
726.731	0.0150392
726.809	0.0150297
726.887	0.0149951
726.965	0.0151920
727.043	0.0151649
727.121	0.0150264
727.200	0.0150624
727.278	0.0151024
727.356	0.0150916
727.434	0.0150082
727.512	0.0151199
727.590	0.0150432
727.668	0.0149784
727.746	0.0150189
727.825	0.0149880
727.903	0.0148528
727.981	0.0149295
728.059	0.0147533
728.137	0.0147962
728.215	0.0147356
728.293	0.0145440
728.371	0.0146358
728.450	0.0147337
728.528	0.0146178
728.606	0.0145245
728.684	0.0146526
728.762	0.0146413
728.840	0.0146577
728.918	0.0146567
728.996	0.0145705
729.075	0.0147073
729.153	0.0148065
729.231	0.0148717
729.309	0.0148921
729.387	0.0149901
729.465	0.0149677
729.543	0.0148637
729.621	0.0149497
729.700	0.0150813
729.778	0.0150287
729.856	0.0151118
729.934	0.0151647
730.012	0.0151654
730.090	0.0151529
730.168	0.0150380
730.246	0.0150082
730.325	0.0150578
730.403	0.0150038
730.481	0.0150137
730.559	0.0148930
730.637	0.0148380
730.715	0.0147343
730.793	0.0146957
730.871	0.0148293
730.950	0.0146582
731.028	0.0147100
731.106	0.0146232
731.184	0.0145966
731.262	0.0145943
731.340	0.0147591
731.418	0.0147066
731.496	0.0146484
731.575	0.0148295
731.653	0.0149767
731.731	0.0149706
731.809	0.0150319
731.887	0.0149147
731.965	0.0150651
732.043	0.0151445
732.121	0.0150539
732.200	0.0149573
732.278	0.0151427
732.356	0.0150971
732.434	0.0151175
732.512	0.0151147
732.590	0.0150570
732.668	0.0149229
732.746	0.0149229
732.825	0.0148554
732.903	0.0147883
732.981	0.0147522
733.059	0.0147039
733.137	0.0144836
733.215	0.0145789
733.293	0.0145605
733.371	0.0144905
733.450	0.0144519
733.528	0.0144495
733.606	0.0144047
733.684	0.0144185
733.762	0.0144532
733.840	0.0146103
733.918	0.0146035
733.996	0.0146212
734.075	0.0147931
734.153	0.0147056
734.231	0.0150211
734.309	0.0150445
734.387	0.0150208
734.465	0.0150187
734.543	0.0150124
734.621	0.0152518
734.700	0.0153036
734.778	0.0152975
734.856	0.0152277
734.934	0.0151714
735.012	0.0152194
735.090	0.0151929
735.168	0.0150500
735.246	0.0149681
735.325	0.0149247
735.403	0.0148700
735.481	0.0147623
735.559	0.0147520
735.637	0.0146007
735.715	0.0145892
735.793	0.0144982
735.871	0.0145332
735.950	0.0145694
736.028	0.0144828
736.106	0.0144038
736.184	0.0144820
736.262	0.0144997
736.340	0.0145789
736.418	0.0146736
736.496	0.0145939
736.575	0.0145963
736.653	0.0147007
736.731	0.0148545
736.809	0.0149129
736.887	0.0149221
736.965	0.0149813
737.043	0.0147646
737.121	0.0150340
737.200	0.0149849
737.278	0.0149649
737.356	0.0149937
737.434	0.0148836
737.512	0.0149904
737.590	0.0150404
737.668	0.0149305
737.746	0.0150544
737.825	0.0148499
737.903	0.0148435
737.981	0.0149693
738.059	0.0147594
738.137	0.0146575
738.215	0.0149106
738.293	0.0147621
738.371	0.0147626
738.450	0.0147849
738.528	0.0147467
738.606	0.0146301
738.684	0.0147831
738.762	0.0148845
738.840	0.0147496
738.918	0.0148437
738.996	0.0148513
739.075	0.0148531
739.153	0.0149555
739.231	0.0149397
739.309	0.0149294
739.387	0.0151276
739.465	0.0151447
739.543	0.0151179
739.621	0.0151897
739.700	0.0150617
739.778	0.0150095
739.856	0.0150779
739.934	0.0150438
740.012	0.0150072
740.090	0.0149593
740.168	0.0147799
740.246	0.0148585
740.325	0.0149228
740.403	0.0147786
740.481	0.0147577
740.559	0.0147753
740.637	0.0146794
740.715	0.0146377
740.793	0.0147025
740.871	0.0145934
740.950	0.0147038
741.028	0.0147206
741.106	0.0148104
741.184	0.0147482
741.262	0.0149583
741.340	0.0146749
741.418	0.0148155
741.496	0.0148981
741.575	0.0149565
741.653	0.0150750
741.731	0.0149541
741.809	0.0148319
741.887	0.0149224
741.965	0.0151005
742.043	0.0151716
742.121	0.0150819
742.200	0.0151268
742.278	0.0149811
742.356	0.0149460
742.434	0.0150190
742.512	0.0148927
742.590	0.0149232
742.668	0.0150336
742.746	0.0149203
742.825	0.0148753
742.903	0.0149163
742.981	0.0148087
743.059	0.0147739
743.137	0.0148141
743.215	0.0148270
743.293	0.0147984
743.371	0.0147889
743.450	0.0148299
743.528	0.0148576
743.606	0.0149249
743.684	0.0147756
743.762	0.0148760
743.840	0.0149375
743.918	0.0150552
743.996	0.0149654
744.075	0.0149367
744.153	0.0149483
744.231	0.0150346
744.309	0.0151719
744.387	0.0149683
744.465	0.0150619
744.543	0.0149543
744.621	0.0150609
744.700	0.0148399
744.778	0.0149323
744.856	0.0150092
744.934	0.0149834
745.012	0.0148881
745.090	0.0149344
745.168	0.0148565
745.246	0.0148411
745.325	0.0149118
745.403	0.0149223
745.481	0.0149140
745.559	0.0148620
745.637	0.0148208
745.715	0.0147671
745.793	0.0148879
745.871	0.0148599
745.950	0.0150182
746.028	0.0149223
746.106	0.0147981
746.184	0.0148298
746.262	0.0148901
746.340	0.0149242
746.418	0.0149408
746.496	0.0148273
746.575	0.0150085
746.653	0.0149913
746.731	0.0149818
746.809	0.0149245
746.887	0.0149809
746.965	0.0151391
747.043	0.0150494
747.121	0.0150613
747.200	0.0151340
747.278	0.0149875
747.356	0.0151046
747.434	0.0150247
747.512	0.0149380
747.590	0.0150416
747.668	0.0150177
747.746	0.0150556
747.825	0.0150022
747.903	0.0149146
747.981	0.0150255
748.059	0.0147716
748.137	0.0149998
748.215	0.0149826
748.293	0.0148907
748.371	0.0148576
748.450	0.0149939
748.528	0.0148009
748.606	0.0150278
748.684	0.0150119
748.762	0.0149381
748.840	0.0150326
748.918	0.0149511
748.996	0.0149590
749.075	0.0148982
749.153	0.0148664
749.231	0.0149218
749.309	0.0149655
749.387	0.0149211
749.465	0.0149538
749.543	0.0149799
749.621	0.0148311
749.700	0.0149850
749.778	0.0148114
749.856	0.0147161
749.934	0.0149128
750.012	0.0148939
750.090	0.0148878
750.168	0.0149642
750.246	0.0147952
750.325	0.0148506
750.403	0.0148400
750.481	0.0149039
750.559	0.0148280
750.637	0.0148203
750.715	0.0147788
750.793	0.0148225
750.871	0.0148328
750.950	0.0148270
751.028	0.0148719
751.106	0.0148871
751.184	0.0147823
751.262	0.0149483
751.340	0.0148645
751.418	0.0148815
751.496	0.0149622
751.575	0.0150684
751.653	0.0148647
751.731	0.0149470
751.809	0.0149048
751.887	0.0150171
751.965	0.0148866
752.043	0.0147928
752.121	0.0148220
752.200	0.0148924
752.278	0.0148607
752.356	0.0147569
752.434	0.0148175
752.512	0.0149022
752.590	0.0149068
752.668	0.0147664
752.746	0.0146847
752.825	0.0148804
752.903	0.0149054
752.981	0.0149057
753.059	0.0147628
753.137	0.0148300
753.215	0.0147873
753.293	0.0148383
753.371	0.0148027
753.450	0.0147897
753.528	0.0147767
753.606	0.0148737
753.684	0.0147395
753.762	0.0147496
753.840	0.0147389
753.918	0.0146978
753.996	0.0147336
754.075	0.0146503
754.153	0.0148327
754.231	0.0147952
754.309	0.0148579
754.387	0.0146156
754.465	0.0146519
754.543	0.0147480
754.621	0.0147758
754.700	0.0148634
754.778	0.0147700
754.856	0.0147752
754.934	0.0148048
755.012	0.0148790
755.090	0.0150823
755.168	0.0149896
755.246	0.0149287
755.325	0.0149600
755.403	0.0148585
755.481	0.0147603
755.559	0.0150357
755.637	0.0150081
755.715	0.0149158
755.793	0.0147909
755.871	0.0148600
755.950	0.0148927
756.028	0.0147825
756.106	0.0149467
756.184	0.0148368
756.262	0.0148985
756.340	0.0148122
756.418	0.0148505
756.496	0.0146703
756.575	0.0146523
756.653	0.0148718
756.731	0.0146727
756.809	0.0148311
756.887	0.0147501
756.965	0.0147058
757.043	0.0148360
757.121	0.0148534
757.200	0.0146390
757.278	0.0147377
757.356	0.0148288
757.434	0.0147810
757.512	0.0148373
757.590	0.0148286
757.668	0.0148875
757.746	0.0147635
757.825	0.0147179
757.903	0.0148334
757.981	0.0149071
758.059	0.0148077
758.137	0.0148215
758.215	0.0148330
758.293	0.0148071
758.371	0.0147759
758.450	0.0147281
758.528	0.0146709
758.606	0.0146433
758.684	0.0147974
758.762	0.0147753
758.840	0.0147226
758.918	0.0147015
758.996	0.0148065
759.075	0.0148205
759.153	0.0146217
759.231	0.0146710
759.309	0.0148846
759.387	0.0148591
759.465	0.0147794
759.543	0.0148802
759.621	0.0148799
759.700	0.0148360
759.778	0.0148059
759.856	0.0148934
759.934	0.0149184
760.012	0.0146651
760.090	0.0148512
760.168	0.0148108
760.246	0.0148599
760.325	0.0148667
760.403	0.0148005
760.481	0.0148439
760.559	0.0147704
760.637	0.0149670
760.715	0.0148256
760.793	0.0148814
760.871	0.0148513
760.950	0.0146522
761.028	0.0148424
761.106	0.0147385
761.184	0.0147384
761.262	0.0146973
761.340	0.0146581
761.418	0.0146343
761.496	0.0147562
761.575	0.0148321
761.653	0.0146967
761.731	0.0149046
761.809	0.0147580
761.887	0.0147137
761.965	0.0148217
762.043	0.0148569
762.121	0.0149487
762.200	0.0148104
762.278	0.0147310
762.356	0.0147405
762.434	0.0148595
762.512	0.0148718
762.590	0.0149185
762.668	0.0147487
762.746	0.0148320
762.825	0.0149492
762.903	0.0148858
762.981	0.0148769
763.059	0.0147728
763.137	0.0147142
763.215	0.0147746
763.293	0.0148780
763.371	0.0149379
763.450	0.0149288
763.528	0.0148651
763.606	0.0148505
763.684	0.0148420
763.762	0.0148969
763.840	0.0148209
763.918	0.0149756
763.996	0.0148412
764.075	0.0148827
764.153	0.0149240
764.231	0.0149714
764.309	0.0147607
764.387	0.0149286
764.465	0.0149076
764.543	0.0149363
764.621	0.0148917
764.700	0.0148686
764.778	0.0148732
764.856	0.0148281
764.934	0.0148672
765.012	0.0149039
765.090	0.0149620
765.168	0.0148351
765.246	0.0146249
765.325	0.0147772
765.403	0.0148280
765.481	0.0149153
765.559	0.0146778
765.637	0.0147824
765.715	0.0149193
765.793	0.0148452
765.871	0.0148510
765.950	0.0147872
766.028	0.0148093
766.106	0.0150549
766.184	0.0149272
766.262	0.0147849
766.340	0.0148499
766.418	0.0147391
766.496	0.0148586
766.575	0.0148391
766.653	0.0147138
766.731	0.0148554
766.809	0.0148851
766.887	0.0147566
766.965	0.0147955
767.043	0.0148509
767.121	0.0148472
767.200	0.0148038
767.278	0.0147446
767.356	0.0148211
767.434	0.0148269
767.512	0.0147868
767.590	0.0149357
767.668	0.0148655
767.746	0.0148405
767.825	0.0149258
767.903	0.0149012
767.981	0.0148012
768.059	0.0149417
768.137	0.0149361
768.215	0.0149062
768.293	0.0147361
768.371	0.0149059
768.450	0.0149314
768.528	0.0148450
768.606	0.0148833
768.684	0.0148395
768.762	0.0148277
768.840	0.0147952
768.918	0.0147465
768.996	0.0147569
769.075	0.0148228
769.153	0.0146805
769.231	0.0148241
769.309	0.0148247
769.387	0.0146955
769.465	0.0147851
769.543	0.0149284
769.621	0.0148450
769.700	0.0147283
769.778	0.0149698
769.856	0.0149410
769.934	0.0149111
770.012	0.0149044
770.090	0.0147929
770.168	0.0150346
770.246	0.0149124
770.325	0.0149226
770.403	0.0149873
770.481	0.0149286
770.559	0.0149844
770.637	0.0148420
770.715	0.0149247
770.793	0.0148387
770.871	0.0148848
770.950	0.0148409
771.028	0.0148612
771.106	0.0148928
771.184	0.0147855
771.262	0.0147945
771.340	0.0148837
771.418	0.0148659
771.496	0.0146613
771.575	0.0147147
771.653	0.0149321
771.731	0.0148471
771.809	0.0147998
771.887	0.0149435
771.965	0.0148868
772.043	0.0148930
772.121	0.0147782
772.200	0.0149173
772.278	0.0148817
772.356	0.0149670
772.434	0.0148928
772.512	0.0147783
772.590	0.0148711
772.668	0.0148766
772.746	0.0147234
772.825	0.0148590
772.903	0.0148583
772.981	0.0148922
773.059	0.0148614
773.137	0.0147635
773.215	0.0148389
773.293	0.0148221
773.371	0.0148827
773.450	0.0148887
773.528	0.0148203
773.606	0.0148376
773.684	0.0148195
773.762	0.0148790
773.840	0.0149525
773.918	0.0148585
773.996	0.0147510
774.075	0.0147619
774.153	0.0149007
774.231	0.0149554
774.309	0.0148440
774.387	0.0148528
774.465	0.0147963
774.543	0.0148685
774.621	0.0148504
774.700	0.0149802
774.778	0.0148091
774.856	0.0147116
774.934	0.0147856
775.012	0.0148561
775.090	0.0148626
775.168	0.0147889
775.246	0.0148667
775.325	0.0147670
775.403	0.0148191
775.481	0.0149860
775.559	0.0149288
775.637	0.0149316
775.715	0.0148497
775.793	0.0148106
775.871	0.0148768
775.950	0.0148774
776.028	0.0149118
776.106	0.0148679
776.184	0.0148456
776.262	0.0149249
776.340	0.0148797
776.418	0.0147936
776.496	0.0147244
776.575	0.0147990
776.653	0.0147372
776.731	0.0147688
776.809	0.0148173
776.887	0.0147392
776.965	0.0147985
777.043	0.0146758
777.121	0.0149135
777.200	0.0149062
777.278	0.0149316
777.356	0.0148794
777.434	0.0148649
777.512	0.0148357
777.590	0.0148680
777.668	0.0150087
777.746	0.0149290
777.825	0.0148943
777.903	0.0149480
777.981	0.0149208
778.059	0.0149809
778.137	0.0150501
778.215	0.0149807
778.293	0.0148523
778.371	0.0148301
778.450	0.0149744
778.528	0.0150178
778.606	0.0151846
778.684	0.0149110
778.762	0.0148017
778.840	0.0149308
778.918	0.0148136
778.996	0.0148832
779.075	0.0149675
779.153	0.0147349
779.231	0.0148727
779.309	0.0147349
779.387	0.0147329
779.465	0.0148905
779.543	0.0147692
779.621	0.0146951
779.700	0.0148108
779.778	0.0147283
779.856	0.0149056
779.934	0.0149141
780.012	0.0148519
780.090	0.0148983
780.168	0.0148986
780.246	0.0148835
780.325	0.0147983
780.403	0.0148096
780.481	0.0148286
780.559	0.0146639
780.637	0.0147097
780.715	0.0147850
780.793	0.0147921
780.871	0.0146643
780.950	0.0148250
781.028	0.0149168
781.106	0.0148587
781.184	0.0148615
781.262	0.0147340
781.340	0.0148232
781.418	0.0148759
781.496	0.0148490
781.575	0.0148012
781.653	0.0147504
781.731	0.0148824
781.809	0.0148549
781.887	0.0148622
781.965	0.0149532
782.043	0.0148013
782.121	0.0149757
782.200	0.0149272
782.278	0.0149722
782.356	0.0148988
782.434	0.0149260
782.512	0.0149513
782.590	0.0149709
782.668	0.0149361
782.746	0.0149925
782.825	0.0148862
782.903	0.0148995
782.981	0.0150906
783.059	0.0149214
783.137	0.0148525
783.215	0.0149303
783.293	0.0148648
783.371	0.0148904
783.450	0.0149342
783.528	0.0148586
783.606	0.0147846
783.684	0.0148637
783.762	0.0148239
783.840	0.0149330
783.918	0.0148003
783.996	0.0146086
784.075	0.0147547
784.153	0.0148383
784.231	0.0148501
784.309	0.0148042
784.387	0.0148813
784.465	0.0148124
784.543	0.0147990
784.621	0.0147280
784.700	0.0148103
784.778	0.0148238
784.856	0.0148397
784.934	0.0147764
785.012	0.0148782
785.090	0.0148510
785.168	0.0147871
785.246	0.0148117
785.325	0.0146840
785.403	0.0148602
785.481	0.0147942
785.559	0.0148187
785.637	0.0147803
785.715	0.0146832
785.793	0.0147981
785.871	0.0149635
785.950	0.0147832
786.028	0.0147225
786.106	0.0147693
786.184	0.0147205
786.262	0.0147262
786.340	0.0148214
786.418	0.0149263
786.496	0.0147567
786.575	0.0148128
786.653	0.0149493
786.731	0.0148270
786.809	0.0148660
786.887	0.0148873
786.965	0.0148214
787.043	0.0149052
787.121	0.0149326
787.200	0.0149375
787.278	0.0148973
787.356	0.0149160
787.434	0.0149231
787.512	0.0148848
787.590	0.0148661
787.668	0.0148168
787.746	0.0148340
787.825	0.0146484
787.903	0.0148004
787.981	0.0147730
788.059	0.0147280
788.137	0.0146561
788.215	0.0146958
788.293	0.0147861
788.371	0.0146428
788.450	0.0147452
788.528	0.0147515
788.606	0.0147238
788.684	0.0147058
788.762	0.0147912
788.840	0.0148209
788.918	0.0147601
788.996	0.0147318
789.075	0.0148684
789.153	0.0149546
789.231	0.0149230
789.309	0.0147579
789.387	0.0147696
789.465	0.0148911
789.543	0.0149248
789.621	0.0148464
789.700	0.0148570
789.778	0.0148156
789.856	0.0149651
789.934	0.0148790
790.012	0.0148174
790.090	0.0148586
790.168	0.0147867
790.246	0.0146894
790.325	0.0147047
790.403	0.0146741
790.481	0.0148055
790.559	0.0146912
790.637	0.0146210
790.715	0.0146614
790.793	0.0146682
790.871	0.0146793
790.950	0.0148414
791.028	0.0146974
791.106	0.0147292
791.184	0.0146915
791.262	0.0149091
791.340	0.0149193
791.418	0.0146928
791.496	0.0147427
791.575	0.0148228
791.653	0.0147828
791.731	0.0148240
791.809	0.0147475
791.887	0.0148272
791.965	0.0148296
792.043	0.0149438
792.121	0.0147812
792.200	0.0149121
792.278	0.0148374
792.356	0.0148854
792.434	0.0149963
792.512	0.0148312
792.590	0.0147816
792.668	0.0147962
792.746	0.0147729
792.825	0.0146282
792.903	0.0147828
792.981	0.0147119
793.059	0.0147664
793.137	0.0148048
793.215	0.0146408
793.293	0.0146370
793.371	0.0146826
793.450	0.0146858
793.528	0.0145942
793.606	0.0147422
793.684	0.0148172
793.762	0.0147311
793.840	0.0147139
793.918	0.0146983
793.996	0.0146624
794.075	0.0147366
794.153	0.0149188
794.231	0.0148689
794.309	0.0149016
794.387	0.0148649
794.465	0.0149297
794.543	0.0149343
794.621	0.0148368
794.700	0.0148892
794.778	0.0147842
794.856	0.0149058
794.934	0.0149965
795.012	0.0148820
795.090	0.0148383
795.168	0.0150050
795.246	0.0148216
795.325	0.0148288
795.403	0.0147771
795.481	0.0149339
795.559	0.0148615
795.637	0.0147982
795.715	0.0148736
795.793	0.0146848
795.871	0.0149211
795.950	0.0148368
796.028	0.0148229
796.106	0.0147983
796.184	0.0148508
796.262	0.0148892
796.340	0.0147766
796.418	0.0147534
796.496	0.0148489
796.575	0.0149813
796.653	0.0147446
796.731	0.0148234
796.809	0.0149194
796.887	0.0148577
796.965	0.0147568
797.043	0.0147400
797.121	0.0148731
797.200	0.0148682
797.278	0.0148613
797.356	0.0148130
797.434	0.0149278
797.512	0.0148634
797.590	0.0149640
797.668	0.0147781
797.746	0.0150239
797.825	0.0150210
797.903	0.0148746
797.981	0.0147597
798.059	0.0148473
798.137	0.0148083
798.215	0.0149992
798.293	0.0150860
798.371	0.0150283
798.450	0.0149615
798.528	0.0148472
798.606	0.0148560
798.684	0.0147524
798.762	0.0147627
798.840	0.0149046
798.918	0.0149281
798.996	0.0148499
799.075	0.0148130
799.153	0.0149300
799.231	0.0148090
799.309	0.0148651
799.387	0.0148311
799.465	0.0147662
799.543	0.0148952
799.621	0.0147881
799.700	0.0149353
799.778	0.0148020
799.856	0.0148480
799.934	0.0149508
800.012	0.0148824
800.090	0.0149767
800.168	0.0149221
800.246	0.0147365
800.325	0.0148263
800.403	0.0148481
800.481	0.0148579
800.559	0.0148448
800.637	0.0148499
800.715	0.0147836
800.793	0.0148128
800.871	0.0147915
800.950	0.0146295
801.028	0.0147575
801.106	0.0147954
801.184	0.0147530
801.262	0.0149118
801.340	0.0149217
801.418	0.0147668
801.496	0.0148892
801.575	0.0148862
801.653	0.0148589
801.731	0.0147108
801.809	0.0149195
801.887	0.0149439
801.965	0.0148614
802.043	0.0147964
802.121	0.0148730
802.200	0.0148813
802.278	0.0148875
802.356	0.0149432
802.434	0.0149874
802.512	0.0149934
802.590	0.0148576
802.668	0.0148558
802.746	0.0149220
802.825	0.0149186
802.903	0.0149043
802.981	0.0148712
803.059	0.0148280
803.137	0.0148638
803.215	0.0149150
803.293	0.0147941
803.371	0.0150040
803.450	0.0149921
803.528	0.0149150
803.606	0.0148801
803.684	0.0149492
803.762	0.0149671
803.840	0.0148590
803.918	0.0148296
803.996	0.0149375
804.075	0.0150899
804.153	0.0149538
804.231	0.0148233
804.309	0.0148760
804.387	0.0148849
804.465	0.0150207
804.543	0.0150555
804.621	0.0148832
804.700	0.0149215
804.778	0.0149612
804.856	0.0148286
804.934	0.0147855
805.012	0.0149374
805.090	0.0149165
805.168	0.0149395
805.246	0.0148649
805.325	0.0148398
805.403	0.0150316
805.481	0.0149810
805.559	0.0149647
805.637	0.0150394
805.715	0.0148218
805.793	0.0148730
805.871	0.0149819
805.950	0.0148538
806.028	0.0148503
806.106	0.0148597
806.184	0.0147974
806.262	0.0149213
806.340	0.0147735
806.418	0.0148654
806.496	0.0149292
806.575	0.0147749
806.653	0.0149049
806.731	0.0149052
806.809	0.0148107
806.887	0.0149416
806.965	0.0149770
807.043	0.0150532
807.121	0.0149061
807.200	0.0147943
807.278	0.0149325
807.356	0.0148689
807.434	0.0148444
807.512	0.0148183
807.590	0.0149364
807.668	0.0147804
807.746	0.0148582
807.825	0.0149205
807.903	0.0150199
807.981	0.0147980
808.059	0.0148955
808.137	0.0148745
808.215	0.0148769
808.293	0.0147760
808.371	0.0149055
808.450	0.0149006
808.528	0.0148595
808.606	0.0148460
808.684	0.0150272
808.762	0.0150051
808.840	0.0148650
808.918	0.0149380
808.996	0.0148546
809.075	0.0147321
809.153	0.0148882
809.231	0.0149847
809.309	0.0147859
809.387	0.0147678
809.465	0.0148059
809.543	0.0149271
809.621	0.0148756
809.700	0.0149976
809.778	0.0148847
809.856	0.0149165
809.934	0.0149468
810.012	0.0149146
810.090	0.0148896
810.168	0.0149364
810.246	0.0147237
810.325	0.0148825
810.403	0.0148428
810.481	0.0148404
810.559	0.0148455
810.637	0.0148814
810.715	0.0148096
810.793	0.0148113
810.871	0.0147398
810.950	0.0147365
811.028	0.0147985
811.106	0.0148682
811.184	0.0147328
811.262	0.0147502
811.340	0.0148677
811.418	0.0147064
811.496	0.0148058
811.575	0.0147764
811.653	0.0149030
811.731	0.0147799
811.809	0.0148625
811.887	0.0147512
811.965	0.0148605
812.043	0.0148717
812.121	0.0148641
812.200	0.0149104
812.278	0.0148389
812.356	0.0148416
812.434	0.0148199
812.512	0.0148329
812.590	0.0148226
812.668	0.0148489
812.746	0.0147221
812.825	0.0148827
812.903	0.0149195
812.981	0.0148109
813.059	0.0147437
813.137	0.0147629
813.215	0.0148187
813.293	0.0148139
813.371	0.0147520
813.450	0.0147735
813.528	0.0148510
813.606	0.0147880
813.684	0.0147952
813.762	0.0147922
813.840	0.0148306
813.918	0.0147240
813.996	0.0148150
814.075	0.0147861
814.153	0.0146417
814.231	0.0146143
814.309	0.0148363
814.387	0.0147175
814.465	0.0146482
814.543	0.0146498
814.621	0.0146806
814.700	0.0147163
814.778	0.0147810
814.856	0.0147955
814.934	0.0148435
815.012	0.0147987
815.090	0.0146896
815.168	0.0147959
815.246	0.0148856
815.325	0.0147053
815.403	0.0148620
815.481	0.0148249
815.559	0.0147071
815.637	0.0148648
815.715	0.0147795
815.793	0.0148164
815.871	0.0148524
815.950	0.0147776
816.028	0.0148407
816.106	0.0148286
816.184	0.0146901
816.262	0.0147834
816.340	0.0148868
816.418	0.0146894
816.496	0.0147446
816.575	0.0147396
816.653	0.0145665
816.731	0.0149059
816.809	0.0147409
816.887	0.0146150
816.965	0.0147728
817.043	0.0148248
817.121	0.0147364
817.200	0.0146775
817.278	0.0147747
817.356	0.0147382
817.434	0.0147166
817.512	0.0148287
817.590	0.0147645
817.668	0.0146281
817.746	0.0148737
817.825	0.0147347
817.903	0.0148076
817.981	0.0149596
818.059	0.0147932
818.137	0.0148249
818.215	0.0147690
818.293	0.0149364
818.371	0.0148795
818.450	0.0149226
818.528	0.0147926
818.606	0.0148315
818.684	0.0148711
818.762	0.0147418
818.840	0.0148666
818.918	0.0148647
818.996	0.0147843
819.075	0.0148351
819.153	0.0148550
819.231	0.0149334
819.309	0.0148614
819.387	0.0146828
819.465	0.0147903
819.543	0.0149376
819.621	0.0149075
819.700	0.0147039
819.778	0.0148236
819.856	0.0148403
819.934	0.0148492
820.012	0.0148431
820.090	0.0147388
820.168	0.0147919
820.246	0.0146619
820.325	0.0148815
820.403	0.0149261
820.481	0.0148824
820.559	0.0149265
820.637	0.0149332
820.715	0.0148339
820.793	0.0147966
820.871	0.0147284
820.950	0.0147691
821.028	0.0148725
821.106	0.0146361
821.184	0.0147553
821.262	0.0148389
821.340	0.0148890
821.418	0.0149167
821.496	0.0148088
821.575	0.0148870
821.653	0.0148972
821.731	0.0148898
821.809	0.0147765
821.887	0.0148008
821.965	0.0148596
822.043	0.0148747
822.121	0.0148614
822.200	0.0147857
822.278	0.0149141
822.356	0.0148343
822.434	0.0147186
822.512	0.0147217
822.590	0.0147480
822.668	0.0148910
822.746	0.0148159
822.825	0.0148508
822.903	0.0148756
822.981	0.0148242
823.059	0.0148607
823.137	0.0149844
823.215	0.0149306
823.293	0.0148808
823.371	0.0147768
823.450	0.0148935
823.528	0.0149255
823.606	0.0149266
823.684	0.0149972
823.762	0.0149715
823.840	0.0150227
823.918	0.0148372
823.996	0.0148383
824.075	0.0150019
824.153	0.0148119
824.231	0.0147411
824.309	0.0148672
824.387	0.0148263
824.465	0.0148836
824.543	0.0148047
824.621	0.0148279
824.700	0.0147730
824.778	0.0149078
824.856	0.0148981
824.934	0.0148167
825.012	0.0148399
825.090	0.0146970
825.168	0.0147856
825.246	0.0147366
825.325	0.0148731
825.403	0.0149568
825.481	0.0149046
825.559	0.0149617
825.637	0.0148862
825.715	0.0148936
825.793	0.0148528
825.871	0.0149660
825.950	0.0150405
826.028	0.0150420
826.106	0.0149051
826.184	0.0148575
826.262	0.0149124
826.340	0.0151433
826.418	0.0149991
826.496	0.0149473
826.575	0.0149638
826.653	0.0150378
826.731	0.0149734
826.809	0.0148835
826.887	0.0150748
826.965	0.0148599
827.043	0.0149924
827.121	0.0148252
827.200	0.0149382
827.278	0.0150020
827.356	0.0148553
827.434	0.0147983
827.512	0.0148916
827.590	0.0148720
827.668	0.0149897
827.746	0.0148928
827.825	0.0147965
827.903	0.0147620
827.981	0.0149257
828.059	0.0149660
828.137	0.0148718
828.215	0.0149477
828.293	0.0149996
828.371	0.0149285
828.450	0.0149499
828.528	0.0149661
828.606	0.0148370
828.684	0.0148528
828.762	0.0149035
828.840	0.0149667
828.918	0.0149824
828.996	0.0150647
829.075	0.0151632
829.153	0.0147888
829.231	0.0149685
829.309	0.0149469
829.387	0.0149316
829.465	0.0150214
829.543	0.0148739
829.621	0.0147731
829.700	0.0150764
829.778	0.0148386
829.856	0.0148701
829.934	0.0149084
830.012	0.0149376
830.090	0.0148414
830.168	0.0149597
830.246	0.0148522
830.325	0.0148304
830.403	0.0148763
830.481	0.0148425
830.559	0.0147799
830.637	0.0148612
830.715	0.0148838
830.793	0.0148728
830.871	0.0149714
830.950	0.0149249
831.028	0.0149325
831.106	0.0149763
831.184	0.0150108
831.262	0.0149973
831.340	0.0148956
831.418	0.0148743
831.496	0.0148209
831.575	0.0148236
831.653	0.0149115
831.731	0.0148677
831.809	0.0148162
831.887	0.0147369
831.965	0.0147993
832.043	0.0148532
832.121	0.0149430
832.200	0.0147978
832.278	0.0147938
832.356	0.0147662
832.434	0.0147308
832.512	0.0146749
832.590	0.0147614
832.668	0.0148434
832.746	0.0148826
832.825	0.0148476
832.903	0.0148376
832.981	0.0147749
833.059	0.0149417
833.137	0.0149010
833.215	0.0147784
833.293	0.0147961
833.371	0.0147379
833.450	0.0148210
833.528	0.0150403
833.606	0.0149600
833.684	0.0148358
833.762	0.0149459
833.840	0.0149078
833.918	0.0148711
833.996	0.0149214
834.075	0.0148902
834.153	0.0149041
834.231	0.0149133
834.309	0.0149323
834.387	0.0149016
834.465	0.0149218
834.543	0.0149084
834.621	0.0148819
834.700	0.0147345
834.778	0.0147106
834.856	0.0149072
834.934	0.0147141
835.012	0.0148960
835.090	0.0148580
835.168	0.0146982
835.246	0.0147587
835.325	0.0147357
835.403	0.0148744
835.481	0.0148462
835.559	0.0147915
835.637	0.0148396
835.715	0.0148358
835.793	0.0149266
835.871	0.0148038
835.950	0.0149286
836.028	0.0148576
836.106	0.0148662
836.184	0.0148138
836.262	0.0148273
836.340	0.0150269
836.418	0.0147402
836.496	0.0146910
836.575	0.0148627
836.653	0.0147495
836.731	0.0148808
836.809	0.0149579
836.887	0.0148991
836.965	0.0146883
837.043	0.0148335
837.121	0.0147811
837.200	0.0148315
837.278	0.0147853
837.356	0.0148020
837.434	0.0146904
837.512	0.0146795
837.590	0.0147245
837.668	0.0147987
837.746	0.0147251
837.825	0.0147945
837.903	0.0147238
837.981	0.0146105
838.059	0.0147729
838.137	0.0147652
838.215	0.0146844
838.293	0.0147294
838.371	0.0148831
838.450	0.0146098
838.528	0.0148708
838.606	0.0148031
838.684	0.0148878
838.762	0.0148942
838.840	0.0148695
838.918	0.0149709
838.996	0.0148971
839.075	0.0148010
839.153	0.0148826
839.231	0.0148709
839.309	0.0148963
839.387	0.0148797
839.465	0.0148927
839.543	0.0147781
839.621	0.0147578
839.700	0.0148434
839.778	0.0146691
839.856	0.0146300
839.934	0.0147134
840.012	0.0147903
840.090	0.0146424
840.168	0.0147826
840.246	0.0147324
840.325	0.0147209
840.403	0.0148091
840.481	0.0147450
840.559	0.0148743
840.637	0.0147285
840.715	0.0148536
840.793	0.0149250
840.871	0.0147644
840.950	0.0148519
841.028	0.0149701
841.106	0.0149707
841.184	0.0149741
841.262	0.0148866
841.340	0.0147338
841.418	0.0150052
841.496	0.0148532
841.575	0.0149450
841.653	0.0148954
841.731	0.0148742
841.809	0.0148945
841.887	0.0148814
841.965	0.0149163
842.043	0.0148354
842.121	0.0149220
842.200	0.0149097
842.278	0.0147385
842.356	0.0148875
842.434	0.0148416
842.512	0.0147440
842.590	0.0147695
842.668	0.0148161
842.746	0.0148210
842.825	0.0148650
842.903	0.0147897
842.981	0.0147688
843.059	0.0148054
843.137	0.0148049
843.215	0.0148476
843.293	0.0148768
843.371	0.0148034
843.450	0.0148279
843.528	0.0146304
843.606	0.0145895
843.684	0.0148306
843.762	0.0147651
843.840	0.0147640
843.918	0.0147131
843.996	0.0149058
844.075	0.0149447
844.153	0.0148954
844.231	0.0150550
844.309	0.0149091
844.387	0.0148759
844.465	0.0150146
844.543	0.0150141
844.621	0.0149401
844.700	0.0150696
844.778	0.0149384
844.856	0.0149276
844.934	0.0150608
845.012	0.0148903
845.090	0.0149037
845.168	0.0150115
845.246	0.0149317
845.325	0.0147981
845.403	0.0148685
845.481	0.0148077
845.559	0.0146747
845.637	0.0148486
845.715	0.0148517
845.793	0.0147742
845.871	0.0149020
845.950	0.0148209
846.028	0.0147232
846.106	0.0147616
846.184	0.0147523
846.262	0.0148000
846.340	0.0147056
846.418	0.0148035
846.496	0.0148251
846.575	0.0148898
846.653	0.0148486
846.731	0.0147782
846.809	0.0148703
846.887	0.0148003
846.965	0.0149744
847.043	0.0150745
847.121	0.0148818
847.200	0.0149639
847.278	0.0149960
847.356	0.0148620
847.434	0.0148850
847.512	0.0149529
847.590	0.0148922
847.668	0.0148988
847.746	0.0148902
847.825	0.0148989
847.903	0.0148650
847.981	0.0149019
848.059	0.0149216
848.137	0.0148780
848.215	0.0149608
848.293	0.0148094
848.371	0.0149588
848.450	0.0147330
848.528	0.0149143
848.606	0.0148409
848.684	0.0148336
848.762	0.0147810
848.840	0.0148690
848.918	0.0148547
848.996	0.0147726
849.075	0.0147662
849.153	0.0147581
849.231	0.0146903
849.309	0.0147019
849.387	0.0148894
849.465	0.0148288
849.543	0.0148366
849.621	0.0149624
849.700	0.0148733
849.778	0.0149909
849.856	0.0149521
849.934	0.0148495
850.012	0.0149498
850.090	0.0149818
850.168	0.0147633
850.246	0.0148641
850.325	0.0149251
850.403	0.0150279
850.481	0.0150282
850.559	0.0149764
850.637	0.0148941
850.715	0.0149830
850.793	0.0149850
850.871	0.0149169
850.950	0.0148747
851.028	0.0148232
851.106	0.0149315
851.184	0.0148395
851.262	0.0148554
851.340	0.0148132
851.418	0.0148763
851.496	0.0148727
851.575	0.0147032
851.653	0.0148315
851.731	0.0148044
851.809	0.0148145
851.887	0.0147675
851.965	0.0148933
852.043	0.0148765
852.121	0.0148743
852.200	0.0148991
852.278	0.0149589
852.356	0.0149463
852.434	0.0149618
852.512	0.0149223
852.590	0.0148768
852.668	0.0149953
852.746	0.0149579
852.825	0.0150230
852.903	0.0150595
852.981	0.0149293
853.059	0.0149562
853.137	0.0148915
853.215	0.0150194
853.293	0.0148366
853.371	0.0148573
853.450	0.0149189
853.528	0.0148581
853.606	0.0149383
853.684	0.0147964
853.762	0.0149396
853.840	0.0147821
853.918	0.0149449
853.996	0.0148906
854.075	0.0147956
854.153	0.0148325
854.231	0.0148462
854.309	0.0149757
854.387	0.0148360
854.465	0.0149656
854.543	0.0148716
854.621	0.0149553
854.700	0.0149922
854.778	0.0149598
854.856	0.0150049
854.934	0.0147552
855.012	0.0148756
855.090	0.0149654
855.168	0.0150529
855.246	0.0149232
855.325	0.0149136
855.403	0.0149882
855.481	0.0149924
855.559	0.0149372
855.637	0.0149075
855.715	0.0148624
855.793	0.0148500
855.871	0.0148110
855.950	0.0147870
856.028	0.0149417
856.106	0.0147640
856.184	0.0149479
856.262	0.0150788
856.340	0.0149091
856.418	0.0147243
856.496	0.0148613
856.575	0.0148013
856.653	0.0147614
856.731	0.0147900
856.809	0.0148546
856.887	0.0149100
856.965	0.0147577
857.043	0.0147881
857.121	0.0148309
857.200	0.0147921
857.278	0.0146847
857.356	0.0149434
857.434	0.0148788
857.512	0.0149607
857.590	0.0147658
857.668	0.0149283
857.746	0.0148560
857.825	0.0148228
857.903	0.0149190
857.981	0.0149397
858.059	0.0147278
858.137	0.0147987
858.215	0.0149330
858.293	0.0149612
858.371	0.0148416
858.450	0.0147441
858.528	0.0148890
858.606	0.0148220
858.684	0.0146923
858.762	0.0147513
858.840	0.0147095
858.918	0.0148521
858.996	0.0149270
859.075	0.0149524
859.153	0.0148485
859.231	0.0148312
859.309	0.0147753
859.387	0.0148753
859.465	0.0148633
859.543	0.0148632
859.621	0.0148229
859.700	0.0148105
859.778	0.0148534
859.856	0.0149268
859.934	0.0147748
860.012	0.0147732
860.090	0.0147119
860.168	0.0148001
860.246	0.0147633
860.325	0.0146583
860.403	0.0146390
860.481	0.0148540
860.559	0.0147762
860.637	0.0147012
860.715	0.0149023
860.793	0.0148220
860.871	0.0148445
860.950	0.0147846
861.028	0.0147056
861.106	0.0147542
861.184	0.0147942
861.262	0.0147883
861.340	0.0147588
861.418	0.0147910
861.496	0.0147739
861.575	0.0147588
861.653	0.0148079
861.731	0.0146537
861.809	0.0147275
861.887	0.0148617
861.965	0.0147299
862.043	0.0146751
862.121	0.0147975
862.200	0.0148770
862.278	0.0147263
862.356	0.0147020
862.434	0.0147560
862.512	0.0147611
862.590	0.0147953
862.668	0.0147784
862.746	0.0149400
862.825	0.0148672
862.903	0.0147536
862.981	0.0148280
863.059	0.0148012
863.137	0.0147591
863.215	0.0147711
863.293	0.0148589
863.371	0.0148273
863.450	0.0148769
863.528	0.0149329
863.606	0.0147866
863.684	0.0148206
863.762	0.0148557
863.840	0.0148943
863.918	0.0147465
863.996	0.0148611
864.075	0.0147869
864.153	0.0147154
864.231	0.0148585
864.309	0.0148597
864.387	0.0148038
864.465	0.0149112
864.543	0.0148761
864.621	0.0149158
864.700	0.0149528
864.778	0.0148283
864.856	0.0149097
864.934	0.0148859
865.012	0.0148747
865.090	0.0149055
865.168	0.0148538
865.246	0.0148647
865.325	0.0149068
865.403	0.0147304
865.481	0.0149001
865.559	0.0148919
865.637	0.0149158
865.715	0.0148767
865.793	0.0147713
865.871	0.0146266
865.950	0.0148244
866.028	0.0149239
866.106	0.0148671
866.184	0.0147446
866.262	0.0146492
866.340	0.0147178
866.418	0.0148797
866.496	0.0147205
866.575	0.0146864
866.653	0.0146838
866.731	0.0148320
866.809	0.0147688
866.887	0.0147649
866.965	0.0147692
867.043	0.0148949
867.121	0.0147915
867.200	0.0148656
867.278	0.0148297
867.356	0.0146702
867.434	0.0148198
867.512	0.0149921
867.590	0.0148963
867.668	0.0147606
867.746	0.0149136
867.825	0.0149399
867.903	0.0149203
867.981	0.0148490
868.059	0.0148553
868.137	0.0147848
868.215	0.0146926
868.293	0.0146576
868.371	0.0148209
868.450	0.0148131
868.528	0.0147460
868.606	0.0147584
868.684	0.0147043
868.762	0.0146880
868.840	0.0147346
868.918	0.0148957
868.996	0.0146577
869.075	0.0147729
869.153	0.0148100
869.231	0.0147372
869.309	0.0147947
869.387	0.0148399
869.465	0.0148078
869.543	0.0148785
869.621	0.0149418
869.700	0.0148433
869.778	0.0149469
869.856	0.0148238
869.934	0.0147551
870.012	0.0148650
870.090	0.0148994
870.168	0.0148808
870.246	0.0147764
870.325	0.0148245
870.403	0.0148194
870.481	0.0148790
870.559	0.0149396
870.637	0.0148611
870.715	0.0147888
870.793	0.0147514
870.871	0.0148137
870.950	0.0148463
871.028	0.0148281
871.106	0.0148552
871.184	0.0146198
871.262	0.0148096
871.340	0.0148435
871.418	0.0147715
871.496	0.0145813
871.575	0.0148270
871.653	0.0149743
871.731	0.0146040
871.809	0.0146615
871.887	0.0146696
871.965	0.0148875
872.043	0.0148347
872.121	0.0148172
872.200	0.0147832
872.278	0.0148641
872.356	0.0149538
872.434	0.0149173
872.512	0.0148065
872.590	0.0147496
872.668	0.0151266
872.746	0.0148991
872.825	0.0147791
872.903	0.0147361
872.981	0.0149118
873.059	0.0149170
873.137	0.0148054
873.215	0.0148865
873.293	0.0148866
873.371	0.0148566
873.450	0.0149086
873.528	0.0148199
873.606	0.0149544
873.684	0.0150156
873.762	0.0149062
873.840	0.0148191
873.918	0.0147885
873.996	0.0147783
874.075	0.0147888
874.153	0.0149193
874.231	0.0150158
874.309	0.0149002
874.387	0.0147463
874.465	0.0146492
874.543	0.0149141
874.621	0.0147472
874.700	0.0147092
874.778	0.0148197
874.856	0.0147939
874.934	0.0148048
875.012	0.0149406
875.090	0.0148002
875.168	0.0147771
875.246	0.0148917
875.325	0.0148640
875.403	0.0147743
875.481	0.0149031
875.559	0.0150042
875.637	0.0149092
875.715	0.0147752
875.793	0.0148959
875.871	0.0147990
875.950	0.0148293
876.028	0.0148769
876.106	0.0149551
876.184	0.0148215
876.262	0.0147794
876.340	0.0147672
876.418	0.0149852
876.496	0.0148616
876.575	0.0147770
876.653	0.0147958
876.731	0.0147102
876.809	0.0148150
876.887	0.0148419
876.965	0.0148383
877.043	0.0148817
877.121	0.0147902
877.200	0.0149174
877.278	0.0147601
877.356	0.0147726
877.434	0.0147975
877.512	0.0148209
877.590	0.0148333
877.668	0.0149117
877.746	0.0148132
877.825	0.0149207
877.903	0.0149509
877.981	0.0149838
878.059	0.0148341
878.137	0.0149464
878.215	0.0148510
878.293	0.0147488
878.371	0.0149699
878.450	0.0147702
878.528	0.0148726
878.606	0.0149593
878.684	0.0149105
878.762	0.0148515
878.840	0.0147548
878.918	0.0149033
878.996	0.0148487
879.075	0.0148849
879.153	0.0147738
879.231	0.0148417
879.309	0.0149197
879.387	0.0147552
879.465	0.0148312
879.543	0.0149421
879.621	0.0148380
879.700	0.0148280
879.778	0.0148470
879.856	0.0149059
879.934	0.0148063
880.012	0.0147394
880.090	0.0147469
880.168	0.0146754
880.246	0.0148021
880.325	0.0148976
880.403	0.0147514
880.481	0.0147700
880.559	0.0147942
880.637	0.0147353
880.715	0.0146738
880.793	0.0148483
880.871	0.0147246
880.950	0.0146579
881.028	0.0148546
881.106	0.0148033
881.184	0.0148688
881.262	0.0147881
881.340	0.0147914
881.418	0.0149232
881.496	0.0148985
881.575	0.0148246
881.653	0.0148457
881.731	0.0147391
881.809	0.0147350
881.887	0.0147864
881.965	0.0148915
882.043	0.0147643
882.121	0.0149918
882.200	0.0149172
882.278	0.0148492
882.356	0.0147845
882.434	0.0148438
882.512	0.0147782
882.590	0.0149918
882.668	0.0147653
882.746	0.0149085
882.825	0.0149309
882.903	0.0148806
882.981	0.0149834
883.059	0.0149599
883.137	0.0148772
883.215	0.0148793
883.293	0.0147771
883.371	0.0147754
883.450	0.0147514
883.528	0.0148292
883.606	0.0149050
883.684	0.0149224
883.762	0.0148338
883.840	0.0147146
883.918	0.0148344
883.996	0.0146919
884.075	0.0146789
884.153	0.0147446
884.231	0.0147211
884.309	0.0147488
884.387	0.0148293
884.465	0.0147067
884.543	0.0146978
884.621	0.0148867
884.700	0.0147961
884.778	0.0148673
884.856	0.0148058
884.934	0.0148770
885.012	0.0149859
885.090	0.0148573
885.168	0.0148926
885.246	0.0148235
885.325	0.0149136
885.403	0.0147757
885.481	0.0148031
885.559	0.0147646
885.637	0.0147803
885.715	0.0145911
885.793	0.0147356
885.871	0.0147465
885.950	0.0147540
886.028	0.0146243
886.106	0.0147933
886.184	0.0147947
886.262	0.0148376
886.340	0.0147747
886.418	0.0147433
886.496	0.0148174
886.575	0.0148167
886.653	0.0149261
886.731	0.0149141
886.809	0.0148648
886.887	0.0147708
886.965	0.0148222
887.043	0.0147731
887.121	0.0148258
887.200	0.0148327
887.278	0.0148068
887.356	0.0148047
887.434	0.0148943
887.512	0.0148619
887.590	0.0148701
887.668	0.0150408
887.746	0.0149041
887.825	0.0147916
887.903	0.0149168
887.981	0.0147613
888.059	0.0148996
888.137	0.0148648
888.215	0.0147266
888.293	0.0147427
888.371	0.0148536
888.450	0.0147919
888.528	0.0148312
888.606	0.0148000
888.684	0.0146732
888.762	0.0146986
888.840	0.0147739
888.918	0.0147761
888.996	0.0147649
889.075	0.0147392
889.153	0.0148396
889.231	0.0146957
889.309	0.0148660
889.387	0.0147401
889.465	0.0147131
889.543	0.0147594
889.621	0.0148571
889.700	0.0148568
889.778	0.0147598
889.856	0.0148138
889.934	0.0147868
890.012	0.0146674
890.090	0.0147624
890.168	0.0146809
890.246	0.0146498
890.325	0.0146983
890.403	0.0147558
890.481	0.0148872
890.559	0.0147287
890.637	0.0148193
890.715	0.0147894
890.793	0.0148744
890.871	0.0148469
890.950	0.0148811
891.028	0.0150353
891.106	0.0149281
891.184	0.0149009
891.262	0.0147010
891.340	0.0148969
891.418	0.0148860
891.496	0.0148336
891.575	0.0148752
891.653	0.0148579
891.731	0.0146563
891.809	0.0148585
891.887	0.0147767
891.965	0.0146387
892.043	0.0146889
892.121	0.0149219
892.200	0.0147267
892.278	0.0148158
892.356	0.0148286
892.434	0.0148150
892.512	0.0149344
892.590	0.0147727
892.668	0.0147753
892.746	0.0147575
892.825	0.0149229
892.903	0.0150182
892.981	0.0148849
893.059	0.0148756
893.137	0.0148201
893.215	0.0147675
893.293	0.0149400
893.371	0.0149973
893.450	0.0147954
893.528	0.0147289
893.606	0.0147764
893.684	0.0148331
893.762	0.0148473
893.840	0.0149342
893.918	0.0147691
893.996	0.0147495
894.075	0.0147834
894.153	0.0148018
894.231	0.0148199
894.309	0.0146781
894.387	0.0148948
894.465	0.0148450
894.543	0.0148804
894.621	0.0146974
894.700	0.0149359
894.778	0.0149464
894.856	0.0147478
894.934	0.0149201
895.012	0.0148789
895.090	0.0149125
895.168	0.0148614
895.246	0.0146849
895.325	0.0149178
895.403	0.0147989
895.481	0.0147845
895.559	0.0149110
895.637	0.0149521
895.715	0.0148656
895.793	0.0147010
895.871	0.0148454
895.950	0.0148352
896.028	0.0148080
896.106	0.0146996
896.184	0.0148040
896.262	0.0148168
896.340	0.0148821
896.418	0.0148962
896.496	0.0149095
896.575	0.0148724
896.653	0.0149263
896.731	0.0148489
896.809	0.0148966
896.887	0.0147942
896.965	0.0147837
897.043	0.0149487
897.121	0.0148815
897.200	0.0148419
897.278	0.0149384
897.356	0.0148481
897.434	0.0148704
897.512	0.0149520
897.590	0.0148984
897.668	0.0150011
897.746	0.0149566
897.825	0.0148207
897.903	0.0148911
897.981	0.0150040
898.059	0.0148547
898.137	0.0148991
898.215	0.0148936
898.293	0.0148745
898.371	0.0148119
898.450	0.0148053
898.528	0.0147119
898.606	0.0148486
898.684	0.0148228
898.762	0.0147020
898.840	0.0147271
898.918	0.0147753
898.996	0.0146463
899.075	0.0148046
899.153	0.0148319
899.231	0.0148013
899.309	0.0149295
899.387	0.0148583
899.465	0.0147927
899.543	0.0147766
899.621	0.0148697
899.700	0.0149703
899.778	0.0148899
899.856	0.0149846
899.934	0.0147832
900.012	0.0148793
900.090	0.0149319
900.168	0.0148923
900.246	0.0147881
900.325	0.0148861
900.403	0.0147426
900.481	0.0147730
900.559	0.0147901
900.637	0.0147993
900.715	0.0146681
900.793	0.0147759
900.871	0.0147881
900.950	0.0147836
901.028	0.0148811
901.106	0.0148130
901.184	0.0147399
901.262	0.0147733
901.340	0.0148966
901.418	0.0147614
901.496	0.0149294
901.575	0.0149619
901.653	0.0149211
901.731	0.0148322
901.809	0.0148427
901.887	0.0148015
901.965	0.0148840
902.043	0.0148353
902.121	0.0147805
902.200	0.0148875
902.278	0.0148941
902.356	0.0148222
902.434	0.0148978
902.512	0.0149441
902.590	0.0148624
902.668	0.0146877
902.746	0.0148914
902.825	0.0148148
902.903	0.0148090
902.981	0.0146808
903.059	0.0148893
903.137	0.0147604
903.215	0.0147733
903.293	0.0148479
903.371	0.0147815
903.450	0.0147640
903.528	0.0147261
903.606	0.0148795
903.684	0.0147749
903.762	0.0146389
903.840	0.0147816
903.918	0.0147675
903.996	0.0147735
904.075	0.0147610
904.153	0.0148306
904.231	0.0147499
904.309	0.0149268
904.387	0.0148008
904.465	0.0147120
904.543	0.0149301
904.621	0.0148502
904.700	0.0148118
904.778	0.0149367
904.856	0.0149770
904.934	0.0147615
905.012	0.0148225
905.090	0.0147990
905.168	0.0148988
905.246	0.0147112
905.325	0.0147227
905.403	0.0146997
905.481	0.0148921
905.559	0.0148992
905.637	0.0148767
905.715	0.0147879
905.793	0.0148028
905.871	0.0147429
905.950	0.0148386
906.028	0.0147867
906.106	0.0148094
906.184	0.0148370
906.262	0.0149285
906.340	0.0148660
906.418	0.0148403
906.496	0.0147733
906.575	0.0148739
906.653	0.0149076
906.731	0.0148739
906.809	0.0147728
906.887	0.0146683
906.965	0.0148124
907.043	0.0148577
907.121	0.0147781
907.200	0.0148859
907.278	0.0149191
907.356	0.0148070
907.434	0.0148580
907.512	0.0148313
907.590	0.0148245
907.668	0.0149152
907.746	0.0146960
907.825	0.0148096
907.903	0.0147824
907.981	0.0147704
908.059	0.0146430
908.137	0.0147526
908.215	0.0148420
908.293	0.0147537
908.371	0.0147393
908.450	0.0147960
908.528	0.0147345
908.606	0.0147424
908.684	0.0146545
908.762	0.0147937
908.840	0.0147817
908.918	0.0147179
908.996	0.0149261
909.075	0.0147580
909.153	0.0146757
909.231	0.0147948
909.309	0.0149316
909.387	0.0147854
909.465	0.0148942
909.543	0.0149182
909.621	0.0148465
909.700	0.0149173
909.778	0.0147916
909.856	0.0148218
909.934	0.0148096
910.012	0.0149397
910.090	0.0147961
910.168	0.0146914
910.246	0.0148917
910.325	0.0147487
910.403	0.0146888
910.481	0.0147617
910.559	0.0148298
910.637	0.0150057
910.715	0.0148300
910.793	0.0148108
910.871	0.0148307
910.950	0.0147778
911.028	0.0149271
911.106	0.0149693
911.184	0.0148872
911.262	0.0149667
911.340	0.0148476
911.418	0.0149126
911.496	0.0148907
911.575	0.0149610
911.653	0.0151308
911.731	0.0149936
911.809	0.0149265
911.887	0.0147549
911.965	0.0148419
912.043	0.0148870
912.121	0.0148802
912.200	0.0146808
912.278	0.0147983
912.356	0.0149052
912.434	0.0148097
912.512	0.0148512
912.590	0.0148452
912.668	0.0147504
912.746	0.0148567
912.825	0.0148529
912.903	0.0145941
912.981	0.0148241
913.059	0.0148034
913.137	0.0147655
913.215	0.0146003
913.293	0.0148148
913.371	0.0147328
913.450	0.0148164
913.528	0.0148848
913.606	0.0149458
913.684	0.0149894
913.762	0.0148922
913.840	0.0149909
913.918	0.0150282
913.996	0.0149236
914.075	0.0147863
914.153	0.0148983
914.231	0.0148496
914.309	0.0148780
914.387	0.0149094
914.465	0.0148690
914.543	0.0149757
914.621	0.0146498
914.700	0.0147793
914.778	0.0148743
914.856	0.0148393
914.934	0.0148383
915.012	0.0148045
915.090	0.0146603
915.168	0.0147009
915.246	0.0147745
915.325	0.0146859
915.403	0.0147385
915.481	0.0146774
915.559	0.0146796
915.637	0.0147031
915.715	0.0148413
915.793	0.0147015
915.871	0.0146533
915.950	0.0146888
916.028	0.0148005
916.106	0.0145957
916.184	0.0148540
916.262	0.0148907
916.340	0.0149292
916.418	0.0148689
916.496	0.0147973
916.575	0.0148624
916.653	0.0149509
916.731	0.0147340
916.809	0.0147137
916.887	0.0148246
916.965	0.0149602
917.043	0.0148358
917.121	0.0149596
917.200	0.0149069
917.278	0.0148595
917.356	0.0147714
917.434	0.0146815
917.512	0.0148067
917.590	0.0148928
917.668	0.0147276
917.746	0.0146041
917.825	0.0145900
917.903	0.0146225
917.981	0.0147286
918.059	0.0145694
918.137	0.0148153
918.215	0.0147832
918.293	0.0148251
918.371	0.0146597
918.450	0.0147054
918.528	0.0146360
918.606	0.0147598
918.684	0.0147068
918.762	0.0147998
918.840	0.0149628
918.918	0.0148592
918.996	0.0147477
919.075	0.0147837
919.153	0.0148182
919.231	0.0148043
919.309	0.0147419
919.387	0.0147273
919.465	0.0147588
919.543	0.0147571
919.621	0.0146780
919.700	0.0146887
919.778	0.0147379
919.856	0.0147357
919.934	0.0147280
920.012	0.0147569
920.090	0.0145544
920.168	0.0147257
920.246	0.0148447
920.325	0.0147723
920.403	0.0149313
920.481	0.0148745
920.559	0.0148392
920.637	0.0147822
920.715	0.0148845
920.793	0.0148937
920.871	0.0148402
920.950	0.0147736
921.028	0.0149773
921.106	0.0149081
921.184	0.0150249
921.262	0.0148713
921.340	0.0149903
921.418	0.0151127
921.496	0.0148933
921.575	0.0149483
921.653	0.0149928
921.731	0.0148346
921.809	0.0148248
921.887	0.0149149
921.965	0.0150244
922.043	0.0150060
922.121	0.0149545
922.200	0.0147771
922.278	0.0148940
922.356	0.0149675
922.434	0.0150020
922.512	0.0149370
922.590	0.0149752
922.668	0.0147758
922.746	0.0148337
922.825	0.0148962
922.903	0.0148737
922.981	0.0147809
923.059	0.0148450
923.137	0.0148610
923.215	0.0147314
923.293	0.0148840
923.371	0.0148545
923.450	0.0147815
923.528	0.0148134
923.606	0.0148852
923.684	0.0148370
923.762	0.0148259
923.840	0.0149067
923.918	0.0149420
923.996	0.0148012
924.075	0.0149210
924.153	0.0148907
924.231	0.0148402
924.309	0.0149320
924.387	0.0148628
924.465	0.0146424
924.543	0.0147890
924.621	0.0149183
924.700	0.0147939
924.778	0.0148125
924.856	0.0148658
924.934	0.0148247
925.012	0.0147882
925.090	0.0147560
925.168	0.0146808
925.246	0.0148402
925.325	0.0148875
925.403	0.0147704
925.481	0.0147120
925.559	0.0146725
925.637	0.0149180
925.715	0.0148447
925.793	0.0148153
925.871	0.0148458
925.950	0.0148526
926.028	0.0147497
926.106	0.0148512
926.184	0.0148518
926.262	0.0149415
926.340	0.0147779
926.418	0.0147959
926.496	0.0148137
926.575	0.0148927
926.653	0.0149612
926.731	0.0148383
926.809	0.0148543
926.887	0.0148642
926.965	0.0147687
927.043	0.0148128
927.121	0.0148905
927.200	0.0148460
927.278	0.0148067
927.356	0.0148046
927.434	0.0147915
927.512	0.0147929
927.590	0.0147623
927.668	0.0147933
927.746	0.0149329
927.825	0.0147076
927.903	0.0147620
927.981	0.0147905
928.059	0.0148518
928.137	0.0147797
928.215	0.0147398
928.293	0.0149335
928.371	0.0148248
928.450	0.0147520
928.528	0.0148383
928.606	0.0148003
928.684	0.0148336
928.762	0.0148831
928.840	0.0148085
928.918	0.0147234
928.996	0.0148594
929.075	0.0147932
929.153	0.0149028
929.231	0.0148175
929.309	0.0147307
929.387	0.0148050
929.465	0.0147588
929.543	0.0148148
929.621	0.0148357
929.700	0.0147435
929.778	0.0147706
929.856	0.0147960
929.934	0.0147246
930.012	0.0147989
930.090	0.0148418
930.168	0.0146741
930.246	0.0146441
930.325	0.0148491
930.403	0.0149218
930.481	0.0146909
930.559	0.0147808
930.637	0.0147048
930.715	0.0147193
930.793	0.0148582
930.871	0.0148107
930.950	0.0148302
931.028	0.0148134
931.106	0.0148676
931.184	0.0148652
931.262	0.0149920
931.340	0.0147785
931.418	0.0148771
931.496	0.0149496
931.575	0.0148234
931.653	0.0147406
931.731	0.0149805
931.809	0.0149206
931.887	0.0148181
931.965	0.0149408
932.043	0.0150105
932.121	0.0148435
932.200	0.0148269
932.278	0.0148834
932.356	0.0148659
932.434	0.0149304
932.512	0.0147778
932.590	0.0148283
932.668	0.0146987
932.746	0.0147416
932.825	0.0148704
932.903	0.0148251
932.981	0.0148180
933.059	0.0146751
933.137	0.0147694
933.215	0.0148636
933.293	0.0148341
933.371	0.0149341
933.450	0.0147462
933.528	0.0147540
933.606	0.0149113
933.684	0.0148936
933.762	0.0148203
933.840	0.0146585
933.918	0.0147654
933.996	0.0147703
934.075	0.0148131
934.153	0.0148718
934.231	0.0147768
934.309	0.0147999
934.387	0.0148780
934.465	0.0148052
934.543	0.0148261
934.621	0.0148421
934.700	0.0149744
934.778	0.0149223
934.856	0.0148230
934.934	0.0148669
935.012	0.0148528
935.090	0.0149322
935.168	0.0149876
935.246	0.0148549
935.325	0.0149110
935.403	0.0149094
935.481	0.0149149
935.559	0.0148767
935.637	0.0148883
935.715	0.0149593
935.793	0.0148264
935.871	0.0147935
935.950	0.0147005
936.028	0.0148251
936.106	0.0148174
936.184	0.0148351
936.262	0.0147732
936.340	0.0147961
936.418	0.0147127
936.496	0.0148540
936.575	0.0147477
936.653	0.0150456
936.731	0.0148769
936.809	0.0149420
936.887	0.0148757
936.965	0.0148896
937.043	0.0148840
937.121	0.0147517
937.200	0.0148949
937.278	0.0147842
937.356	0.0148016
937.434	0.0148129
937.512	0.0147913
937.590	0.0147202
937.668	0.0147812
937.746	0.0147314
937.825	0.0147118
937.903	0.0147831
937.981	0.0148070
938.059	0.0148425
938.137	0.0147397
938.215	0.0147289
938.293	0.0146909
938.371	0.0147986
938.450	0.0149191
938.528	0.0146352
938.606	0.0147605
938.684	0.0147285
938.762	0.0147216
938.840	0.0147323
938.918	0.0146774
938.996	0.0147458
939.075	0.0148093
939.153	0.0148942
939.231	0.0148002
939.309	0.0148100
939.387	0.0148124
939.465	0.0148724
939.543	0.0148705
939.621	0.0147432
939.700	0.0146753
939.778	0.0147181
939.856	0.0148174
939.934	0.0148267
940.012	0.0147946
940.090	0.0145630
940.168	0.0147820
940.246	0.0148306
940.325	0.0147346
940.403	0.0148131
940.481	0.0147217
940.559	0.0147469
940.637	0.0146988
940.715	0.0148120
940.793	0.0148310
940.871	0.0148338
940.950	0.0147285
941.028	0.0147980
941.106	0.0147665
941.184	0.0146624
941.262	0.0148425
941.340	0.0147432
941.418	0.0146474
941.496	0.0147758
941.575	0.0148022
941.653	0.0147121
941.731	0.0147875
941.809	0.0148863
941.887	0.0147231
941.965	0.0148740
942.043	0.0148060
942.121	0.0147182
942.200	0.0147131
942.278	0.0148262
942.356	0.0148363
942.434	0.0146393
942.512	0.0148873
942.590	0.0146786
942.668	0.0148807
942.746	0.0148164
942.825	0.0149123
942.903	0.0148624
942.981	0.0149775
943.059	0.0149349
943.137	0.0149012
943.215	0.0148267
943.293	0.0150378
943.371	0.0148423
943.450	0.0148895
943.528	0.0148029
943.606	0.0147286
943.684	0.0148213
943.762	0.0148437
943.840	0.0147614
943.918	0.0149987
943.996	0.0148386
944.075	0.0147131
944.153	0.0149734
944.231	0.0147071
944.309	0.0148407
944.387	0.0149383
944.465	0.0149310
944.543	0.0148788
944.621	0.0148391
944.700	0.0149016
944.778	0.0150060
944.856	0.0149113
944.934	0.0148163
945.012	0.0149818
945.090	0.0150048
945.168	0.0148949
945.246	0.0148302
945.325	0.0148473
945.403	0.0148363
945.481	0.0149384
945.559	0.0149297
945.637	0.0148125
945.715	0.0147805
945.793	0.0148981
945.871	0.0148809
945.950	0.0150172
946.028	0.0149394
946.106	0.0148183
946.184	0.0148225
946.262	0.0149306
946.340	0.0149213
946.418	0.0147642
946.496	0.0147807
946.575	0.0150131
946.653	0.0148314
946.731	0.0148253
946.809	0.0147842
946.887	0.0149138
946.965	0.0147454
947.043	0.0148602
947.121	0.0148423
947.200	0.0148265
947.278	0.0148862
947.356	0.0149064
947.434	0.0149060
947.512	0.0148914
947.590	0.0149604
947.668	0.0148001
947.746	0.0147124
947.825	0.0149251
947.903	0.0149087
947.981	0.0148316
948.059	0.0148949
948.137	0.0147829
948.215	0.0149245
948.293	0.0148273
948.371	0.0148026
948.450	0.0147309
948.528	0.0148986
948.606	0.0146809
948.684	0.0148042
948.762	0.0147596
948.840	0.0147192
948.918	0.0149081
948.996	0.0147999
949.075	0.0147511
949.153	0.0147919
949.231	0.0147397
949.309	0.0149519
949.387	0.0148814
949.465	0.0147121
949.543	0.0150502
949.621	0.0148952
949.700	0.0148504
949.778	0.0148819
949.856	0.0148390
949.934	0.0148841
950.012	0.0149158
950.090	0.0148343
950.168	0.0148522
950.246	0.0150436
950.325	0.0148287
950.403	0.0150156
950.481	0.0149868
950.559	0.0149277
950.637	0.0149438
950.715	0.0148096
950.793	0.0147446
950.871	0.0148344
950.950	0.0148862
951.028	0.0148358
951.106	0.0147889
951.184	0.0147691
951.262	0.0145887
951.340	0.0147688
951.418	0.0147462
951.496	0.0147203
951.575	0.0147003
951.653	0.0148268
951.731	0.0147045
951.809	0.0148344
951.887	0.0149174
951.965	0.0148215
952.043	0.0148953
952.121	0.0149365
952.200	0.0148254
952.278	0.0147823
952.356	0.0148299
952.434	0.0147745
952.512	0.0146640
952.590	0.0147602
952.668	0.0148579
952.746	0.0147318
952.825	0.0148832
952.903	0.0148554
952.981	0.0147051
953.059	0.0147025
953.137	0.0148402
953.215	0.0146350
953.293	0.0148470
953.371	0.0147877
953.450	0.0148071
953.528	0.0147611
953.606	0.0148541
953.684	0.0148547
953.762	0.0149375
953.840	0.0148888
953.918	0.0148217
953.996	0.0148505
954.075	0.0148585
954.153	0.0148073
954.231	0.0148714
954.309	0.0148821
954.387	0.0148380
954.465	0.0148663
954.543	0.0147871
954.621	0.0147728
954.700	0.0147104
954.778	0.0148026
954.856	0.0148805
954.934	0.0147672
955.012	0.0148140
955.090	0.0147223
955.168	0.0146930
955.246	0.0148766
955.325	0.0148942
955.403	0.0147839
955.481	0.0147112
955.559	0.0148257
955.637	0.0148301
955.715	0.0148412
955.793	0.0148129
955.871	0.0149229
955.950	0.0150175
956.028	0.0146980
956.106	0.0146843
956.184	0.0147240
956.262	0.0147929
956.340	0.0147762
956.418	0.0147453
956.496	0.0146625
956.575	0.0146977
956.653	0.0146592
956.731	0.0147551
956.809	0.0146597
956.887	0.0147877
956.965	0.0147195
957.043	0.0147089
957.121	0.0147600
957.200	0.0147585
957.278	0.0147161
957.356	0.0147696
957.434	0.0148472
957.512	0.0148393
957.590	0.0148785
957.668	0.0146868
957.746	0.0147746
957.825	0.0149818
957.903	0.0148764
957.981	0.0147574
958.059	0.0149686
958.137	0.0148689
958.215	0.0151183
958.293	0.0148938
958.371	0.0148936
958.450	0.0148269
958.528	0.0148117
958.606	0.0148457
958.684	0.0147369
958.762	0.0148281
958.840	0.0147209
958.918	0.0147633
958.996	0.0147632
959.075	0.0147053
959.153	0.0147077
959.231	0.0149644
959.309	0.0150034
959.387	0.0148779
959.465	0.0148252
959.543	0.0148499
959.621	0.0147803
959.700	0.0149197
959.778	0.0149634
959.856	0.0149728
959.934	0.0150112
960.012	0.0148810
960.090	0.0148499
960.168	0.0147791
960.246	0.0148781
960.325	0.0148332
960.403	0.0149102
960.481	0.0148009
960.559	0.0147733
960.637	0.0147166
960.715	0.0148026
960.793	0.0147681
960.871	0.0146355
960.950	0.0146687
961.028	0.0146697
961.106	0.0147431
961.184	0.0147710
961.262	0.0149316
961.340	0.0147301
961.418	0.0148038
961.496	0.0148927
961.575	0.0148032
961.653	0.0148225
961.731	0.0148550
961.809	0.0147259
961.887	0.0148788
961.965	0.0149626
962.043	0.0148486
962.121	0.0147932
962.200	0.0149512
962.278	0.0148393
962.356	0.0148608
962.434	0.0148519
962.512	0.0147950
962.590	0.0148537
962.668	0.0148584
962.746	0.0148278
962.825	0.0148416
962.903	0.0146759
962.981	0.0146185
963.059	0.0148025
963.137	0.0148814
963.215	0.0146670
963.293	0.0148196
963.371	0.0148778
963.450	0.0148313
963.528	0.0149303
963.606	0.0147582
963.684	0.0147590
963.762	0.0149503
963.840	0.0148979
963.918	0.0151153
963.996	0.0149189
964.075	0.0149187
964.153	0.0151045
964.231	0.0150082
964.309	0.0149326
964.387	0.0151583
964.465	0.0149927
964.543	0.0148430
964.621	0.0149747
964.700	0.0148533
964.778	0.0149586
964.856	0.0148824
964.934	0.0147788
965.012	0.0148714
965.090	0.0147906
965.168	0.0148278
965.246	0.0149338
965.325	0.0148536
965.403	0.0149704
965.481	0.0148757
965.559	0.0150058
965.637	0.0147590
965.715	0.0149197
965.793	0.0149860
965.871	0.0150069
965.950	0.0149003
966.028	0.0148923
966.106	0.0150042
966.184	0.0149988
966.262	0.0150206
966.340	0.0150082
966.418	0.0150117
966.496	0.0149152
966.575	0.0148557
966.653	0.0147784
966.731	0.0148408
966.809	0.0148756
966.887	0.0148666
966.965	0.0149070
967.043	0.0146735
967.121	0.0146511
967.200	0.0147064
967.278	0.0147887
967.356	0.0148550
967.434	0.0147881
967.512	0.0145638
967.590	0.0147568
967.668	0.0147476
967.746	0.0148299
967.825	0.0147925
967.903	0.0147250
967.981	0.0146824
968.059	0.0148029
968.137	0.0148902
968.215	0.0147454
968.293	0.0148088
968.371	0.0148120
968.450	0.0149446
968.528	0.0147826
968.606	0.0149808
968.684	0.0148144
968.762	0.0148091
968.840	0.0147533
968.918	0.0148152
968.996	0.0148378
969.075	0.0148156
969.153	0.0148415
969.231	0.0148773
969.309	0.0147656
969.387	0.0148163
969.465	0.0147266
969.543	0.0146412
969.621	0.0147823
969.700	0.0148676
969.778	0.0146774
969.856	0.0148248
969.934	0.0147917
970.012	0.0148644
970.090	0.0148673
970.168	0.0148864
970.246	0.0149203
970.325	0.0148327
970.403	0.0148518
970.481	0.0147166
970.559	0.0148866
970.637	0.0148853
970.715	0.0148971
970.793	0.0147947
970.871	0.0148959
970.950	0.0148190
971.028	0.0149490
971.106	0.0148172
971.184	0.0146990
971.262	0.0146787
971.340	0.0149108
971.418	0.0150877
971.496	0.0148902
971.575	0.0148872
971.653	0.0148064
971.731	0.0147797
971.809	0.0147572
971.887	0.0149219
971.965	0.0147861
972.043	0.0148845
972.121	0.0147826
972.200	0.0146528
972.278	0.0148152
972.356	0.0147680
972.434	0.0147646
972.512	0.0148375
972.590	0.0147932
972.668	0.0147457
972.746	0.0148763
972.825	0.0148120
972.903	0.0146799
972.981	0.0148043
973.059	0.0149026
973.137	0.0149542
973.215	0.0148257
973.293	0.0149014
973.371	0.0147749
973.450	0.0147887
973.528	0.0148160
973.606	0.0147852
973.684	0.0148907
973.762	0.0148594
973.840	0.0149821
973.918	0.0148743
973.996	0.0149007
974.075	0.0150002
974.153	0.0149448
974.231	0.0147598
974.309	0.0149702
974.387	0.0148607
974.465	0.0149389
974.543	0.0147454
974.621	0.0149483
974.700	0.0149988
974.778	0.0147897
974.856	0.0147208
974.934	0.0147290
975.012	0.0149250
975.090	0.0148737
975.168	0.0147684
975.246	0.0147872
975.325	0.0147687
975.403	0.0148475
975.481	0.0148669
975.559	0.0148378
975.637	0.0148856
975.715	0.0148119
975.793	0.0149175
975.871	0.0148954
975.950	0.0149749
976.028	0.0149734
976.106	0.0149218
976.184	0.0149695
976.262	0.0149962
976.340	0.0149572
976.418	0.0149330
976.496	0.0148785
976.575	0.0148975
976.653	0.0149763
976.731	0.0149185
976.809	0.0149170
976.887	0.0148338
976.965	0.0148597
977.043	0.0149881
977.121	0.0149178
977.200	0.0149716
977.278	0.0150334
977.356	0.0148716
977.434	0.0147736
977.512	0.0148339
977.590	0.0149168
977.668	0.0148733
977.746	0.0148244
977.825	0.0148394
977.903	0.0148201
977.981	0.0148138
978.059	0.0147283
978.137	0.0147991
978.215	0.0148859
978.293	0.0148644
978.371	0.0147979
978.450	0.0148885
978.528	0.0149142
978.606	0.0148270
978.684	0.0149066
978.762	0.0147739
978.840	0.0148267
978.918	0.0146755
978.996	0.0148025
979.075	0.0149673
979.153	0.0147636
979.231	0.0148444
979.309	0.0149017
979.387	0.0147919
979.465	0.0149435
979.543	0.0147883
979.621	0.0147643
979.700	0.0147752
979.778	0.0147881
979.856	0.0148273
979.934	0.0149386
980.012	0.0147812
980.090	0.0149380
980.168	0.0149055
980.246	0.0149303
980.325	0.0147896
980.403	0.0149049
980.481	0.0149327
980.559	0.0148609
980.637	0.0149118
980.715	0.0148978
980.793	0.0149213
980.871	0.0148783
980.950	0.0150156
981.028	0.0148790
981.106	0.0148907
981.184	0.0149438
981.262	0.0147582
981.340	0.0148946
981.418	0.0149240
981.496	0.0148431
981.575	0.0149246
981.653	0.0148817
981.731	0.0147867
981.809	0.0148599
981.887	0.0147144
981.965	0.0147973
982.043	0.0148569
982.121	0.0147440
982.200	0.0147845
982.278	0.0148620
982.356	0.0149741
982.434	0.0149015
982.512	0.0148375
982.590	0.0149426
982.668	0.0149384
982.746	0.0148531
982.825	0.0149462
982.903	0.0148627
982.981	0.0149062
983.059	0.0148354
983.137	0.0148698
983.215	0.0147181
983.293	0.0149015
983.371	0.0148903
983.450	0.0147868
983.528	0.0147498
983.606	0.0148100
983.684	0.0148856
983.762	0.0149593
983.840	0.0150497
983.918	0.0149495
983.996	0.0150220
984.075	0.0148712
984.153	0.0148827
984.231	0.0148702
984.309	0.0149377
984.387	0.0149160
984.465	0.0149603
984.543	0.0148689
984.621	0.0149664
984.700	0.0149648
984.778	0.0148907
984.856	0.0150033
984.934	0.0148527
985.012	0.0148767
985.090	0.0150613
985.168	0.0148975
985.246	0.0147478
985.325	0.0149064
985.403	0.0147764
985.481	0.0147163
985.559	0.0147587
985.637	0.0147897
985.715	0.0147678
985.793	0.0146467
985.871	0.0146541
985.950	0.0147282
986.028	0.0147781
986.106	0.0146154
986.184	0.0146883
986.262	0.0149332
986.340	0.0148135
986.418	0.0149075
986.496	0.0149693
986.575	0.0150018
986.653	0.0148643
986.731	0.0150116
986.809	0.0150591
986.887	0.0150106
986.965	0.0150734
987.043	0.0149664
987.121	0.0148391
987.200	0.0149198
987.278	0.0149046
987.356	0.0148454
987.434	0.0148420
987.512	0.0148885
987.590	0.0148972
987.668	0.0148565
987.746	0.0149614
987.825	0.0146927
987.903	0.0148022
987.981	0.0146403
988.059	0.0146037
988.137	0.0145782
988.215	0.0147333
988.293	0.0148564
988.371	0.0147282
988.450	0.0147858
988.528	0.0149667
988.606	0.0146144
988.684	0.0147825
988.762	0.0146537
988.840	0.0147277
988.918	0.0149055
988.996	0.0150072
989.075	0.0148969
989.153	0.0149407
989.231	0.0148958
989.309	0.0148649
989.387	0.0150186
989.465	0.0148796
989.543	0.0149044
989.621	0.0149998
989.700	0.0148389
989.778	0.0150216
989.856	0.0151362
989.934	0.0149062
990.012	0.0149898
990.090	0.0149117
990.168	0.0149712
990.246	0.0148837
990.325	0.0147801
990.403	0.0147974
990.481	0.0149708
990.559	0.0148259
990.637	0.0146961
990.715	0.0146718
990.793	0.0148399
990.871	0.0147572
990.950	0.0147736
991.028	0.0147360
991.106	0.0147064
991.184	0.0146732
991.262	0.0147678
991.340	0.0147533
991.418	0.0148226
991.496	0.0148345
991.575	0.0147740
991.653	0.0149486
991.731	0.0147567
991.809	0.0147188
991.887	0.0148776
991.965	0.0148382
992.043	0.0149012
992.121	0.0149371
992.200	0.0149249
992.278	0.0148573
992.356	0.0148556
992.434	0.0151126
992.512	0.0148590
992.590	0.0149318
992.668	0.0148927
992.746	0.0146851
992.825	0.0148163
992.903	0.0147142
992.981	0.0148810
993.059	0.0148348
993.137	0.0148292
993.215	0.0149918
993.293	0.0149005
993.371	0.0147502
993.450	0.0147855
993.528	0.0148096
993.606	0.0148806
993.684	0.0148347
993.762	0.0149425
993.840	0.0148344
993.918	0.0148291
993.996	0.0148003
994.075	0.0147504
994.153	0.0148104
994.231	0.0148179
994.309	0.0147472
994.387	0.0147871
994.465	0.0148566
994.543	0.0147586
994.621	0.0148318
994.700	0.0147393
994.778	0.0148934
994.856	0.0148126
994.934	0.0148423
995.012	0.0149592
995.090	0.0149368
995.168	0.0149029
995.246	0.0148676
995.325	0.0148931
995.403	0.0149012
995.481	0.0148879
995.559	0.0148919
995.637	0.0149388
995.715	0.0148512
995.793	0.0149145
995.871	0.0149012
995.950	0.0148813
996.028	0.0149113
996.106	0.0148935
996.184	0.0148124
996.262	0.0147851
996.340	0.0148260
996.418	0.0148591
996.496	0.0148148
996.575	0.0149039
996.653	0.0146931
996.731	0.0147439
996.809	0.0146546
996.887	0.0147666
996.965	0.0147827
997.043	0.0146428
997.121	0.0147770
997.200	0.0148449
997.278	0.0146735
997.356	0.0146865
997.434	0.0147745
997.512	0.0147781
997.590	0.0147215
997.668	0.0147813
997.746	0.0148253
997.825	0.0148925
997.903	0.0148149
997.981	0.0149203
998.059	0.0149765
998.137	0.0148581
998.215	0.0149492
998.293	0.0148952
998.371	0.0149628
998.450	0.0148736
998.528	0.0149222
998.606	0.0150063
998.684	0.0149641
998.762	0.0148614
998.840	0.0149863
998.918	0.0149221
