05/04/2022	21:28:23	Ver.	4.1	UNKNOWN
Optical Delay	678.996401	Delta X		0.078125	Sweeps	1	Scan Rate	0/0
Coordinates	Axis 1	NaN	Axis 2	NaN	Axis 3	NaN	Axis 4	NaN	Axis 5	NaN	Axis 6	0.000000
TX Power	0.000000	RX Power	0.000000

678.996	0.0147730
679.075	0.0147519
679.153	0.0147020
679.231	0.0147337
679.309	0.0146960
679.387	0.0147943
679.465	0.0146938
679.543	0.0147360
679.621	0.0147983
679.700	0.0145745
679.778	0.0146988
679.856	0.0146012
679.934	0.0146825
680.012	0.0147440
680.090	0.0147662
680.168	0.0146238
680.246	0.0147382
680.325	0.0147494
680.403	0.0147465
680.481	0.0146410
680.559	0.0146033
680.637	0.0146548
680.715	0.0146929
680.793	0.0148135
680.871	0.0147346
680.950	0.0146463
681.028	0.0147710
681.106	0.0146402
681.184	0.0146187
681.262	0.0147196
681.340	0.0147560
681.418	0.0146541
681.496	0.0145956
681.575	0.0145551
681.653	0.0145805
681.731	0.0146572
681.809	0.0146233
681.887	0.0147901
681.965	0.0147206
682.043	0.0146911
682.121	0.0148433
682.200	0.0147526
682.278	0.0146313
682.356	0.0145698
682.434	0.0146922
682.512	0.0147560
682.590	0.0147294
682.668	0.0147325
682.746	0.0146043
682.825	0.0146927
682.903	0.0145818
682.981	0.0146999
683.059	0.0147243
683.137	0.0146616
683.215	0.0145544
683.293	0.0145811
683.371	0.0145336
683.450	0.0147996
683.528	0.0146289
683.606	0.0147836
683.684	0.0148946
683.762	0.0147984
683.840	0.0147535
683.918	0.0148267
683.996	0.0146848
684.075	0.0146790
684.153	0.0147782
684.231	0.0147135
684.309	0.0146623
684.387	0.0147176
684.465	0.0148138
684.543	0.0147186
684.621	0.0146832
684.700	0.0146684
684.778	0.0146873
684.856	0.0146827
684.934	0.0147718
685.012	0.0146187
685.090	0.0145679
685.168	0.0147253
685.246	0.0146284
685.325	0.0146289
685.403	0.0146118
685.481	0.0145403
685.559	0.0146677
685.637	0.0146765
685.715	0.0147978
685.793	0.0145412
685.871	0.0146328
685.950	0.0147924
686.028	0.0147182
686.106	0.0149527
686.184	0.0149940
686.262	0.0148764
686.340	0.0148471
686.418	0.0149747
686.496	0.0149338
686.575	0.0149198
686.653	0.0147636
686.731	0.0147171
686.809	0.0147050
686.887	0.0147744
686.965	0.0148167
687.043	0.0146561
687.121	0.0145548
687.200	0.0145944
687.278	0.0145416
687.356	0.0144855
687.434	0.0145435
687.512	0.0145567
687.590	0.0144521
687.668	0.0145459
687.746	0.0144800
687.825	0.0146740
687.903	0.0147203
687.981	0.0147809
688.059	0.0147522
688.137	0.0146938
688.215	0.0147501
688.293	0.0148095
688.371	0.0147905
688.450	0.0148898
688.528	0.0148878
688.606	0.0149311
688.684	0.0148875
688.762	0.0148903
688.840	0.0149099
688.918	0.0148762
688.996	0.0150549
689.075	0.0148504
689.153	0.0146652
689.231	0.0148040
689.309	0.0147285
689.387	0.0147436
689.465	0.0145351
689.543	0.0144998
689.621	0.0146097
689.700	0.0145522
689.778	0.0144430
689.856	0.0142834
689.934	0.0142073
690.012	0.0144070
690.090	0.0142950
690.168	0.0143343
690.246	0.0143233
690.325	0.0145427
690.403	0.0145451
690.481	0.0149679
690.559	0.0151054
690.637	0.0150508
690.715	0.0152659
690.793	0.0152106
690.871	0.0153156
690.950	0.0152241
691.028	0.0153043
691.106	0.0152161
691.184	0.0152493
691.262	0.0152345
691.340	0.0150368
691.418	0.0149653
691.496	0.0150311
691.575	0.0148997
691.653	0.0146191
691.731	0.0144868
691.809	0.0145033
691.887	0.0144386
691.965	0.0143037
692.043	0.0141767
692.121	0.0141768
692.200	0.0142335
692.278	0.0141652
692.356	0.0141348
692.434	0.0141302
692.512	0.0142852
692.590	0.0144501
692.668	0.0143714
692.746	0.0145632
692.825	0.0147514
692.903	0.0148319
692.981	0.0148984
693.059	0.0149362
693.137	0.0152244
693.215	0.0152796
693.293	0.0154646
693.371	0.0155022
693.450	0.0157526
693.528	0.0156740
693.606	0.0157204
693.684	0.0157145
693.762	0.0156091
693.840	0.0154959
693.918	0.0152702
693.996	0.0148106
694.075	0.0146284
694.153	0.0145352
694.231	0.0142336
694.309	0.0142668
694.387	0.0141405
694.465	0.0140734
694.543	0.0139877
694.621	0.0141434
694.700	0.0141991
694.778	0.0141745
694.856	0.0144388
694.934	0.0145345
695.012	0.0144763
695.090	0.0144392
695.168	0.0145721
695.246	0.0145383
695.325	0.0144246
695.403	0.0145448
695.481	0.0144655
695.559	0.0147540
695.637	0.0148264
695.715	0.0150635
695.793	0.0150160
695.871	0.0151488
695.950	0.0153157
696.028	0.0154749
696.106	0.0155479
696.184	0.0155718
696.262	0.0153507
696.340	0.0155100
696.418	0.0153880
696.496	0.0155054
696.575	0.0152743
696.653	0.0152408
696.731	0.0151626
696.809	0.0147940
696.887	0.0146906
696.965	0.0145708
697.043	0.0143915
697.121	0.0142861
697.200	0.0140866
697.278	0.0140039
697.356	0.0139570
697.434	0.0139837
697.512	0.0140308
697.590	0.0142106
697.668	0.0144141
697.746	0.0145541
697.825	0.0146413
697.903	0.0148054
697.981	0.0149746
698.059	0.0150914
698.137	0.0150256
698.215	0.0149371
698.293	0.0149480
698.371	0.0149678
698.450	0.0150948
698.528	0.0150027
698.606	0.0150122
698.684	0.0151237
698.762	0.0150993
698.840	0.0151023
698.918	0.0152993
698.996	0.0152805
699.075	0.0153298
699.153	0.0153723
699.231	0.0153751
699.309	0.0152960
699.387	0.0152229
699.465	0.0150346
699.543	0.0148946
699.621	0.0145831
699.700	0.0143895
699.778	0.0144628
699.856	0.0142223
699.934	0.0141865
700.012	0.0143176
700.090	0.0143095
700.168	0.0142493
700.246	0.0142364
700.325	0.0142905
700.403	0.0144020
700.481	0.0145424
700.559	0.0147156
700.637	0.0147770
700.715	0.0149085
700.793	0.0150583
700.871	0.0151118
700.950	0.0152757
701.028	0.0152428
701.106	0.0152600
701.184	0.0153298
701.262	0.0152321
701.340	0.0152563
701.418	0.0153417
701.496	0.0151347
701.575	0.0150730
701.653	0.0149441
701.731	0.0147982
701.809	0.0146951
701.887	0.0146353
701.965	0.0145485
702.043	0.0145383
702.121	0.0145906
702.200	0.0145409
702.278	0.0145105
702.356	0.0145651
702.434	0.0144703
702.512	0.0143971
702.590	0.0145304
702.668	0.0144976
702.746	0.0144987
702.825	0.0145228
702.903	0.0144848
702.981	0.0147947
703.059	0.0147713
703.137	0.0147340
703.215	0.0149705
703.293	0.0150485
703.371	0.0151331
703.450	0.0150418
703.528	0.0151300
703.606	0.0149888
703.684	0.0149462
703.762	0.0149728
703.840	0.0148923
703.918	0.0146194
703.996	0.0147465
704.075	0.0148453
704.153	0.0147047
704.231	0.0147279
704.309	0.0148409
704.387	0.0148820
704.465	0.0149373
704.543	0.0148412
704.621	0.0147469
704.700	0.0148243
704.778	0.0148164
704.856	0.0145289
704.934	0.0145318
705.012	0.0143812
705.090	0.0144866
705.168	0.0144321
705.246	0.0144666
705.325	0.0142872
705.403	0.0142777
705.481	0.0142844
705.559	0.0143624
705.637	0.0145277
705.715	0.0147063
705.793	0.0146156
705.871	0.0146175
705.950	0.0146332
706.028	0.0146262
706.106	0.0146706
706.184	0.0146573
706.262	0.0148322
706.340	0.0147273
706.418	0.0148997
706.496	0.0149560
706.575	0.0149741
706.653	0.0148914
706.731	0.0148844
706.809	0.0148289
706.887	0.0149338
706.965	0.0147861
707.043	0.0148172
707.121	0.0147344
707.200	0.0147113
707.278	0.0147292
707.356	0.0147610
707.434	0.0147977
707.512	0.0146550
707.590	0.0146436
707.668	0.0147507
707.746	0.0146864
707.825	0.0146069
707.903	0.0145509
707.981	0.0145201
708.059	0.0146737
708.137	0.0147794
708.215	0.0146346
708.293	0.0146703
708.371	0.0145828
708.450	0.0146495
708.528	0.0144169
708.606	0.0144672
708.684	0.0144161
708.762	0.0144527
708.840	0.0144543
708.918	0.0144071
708.996	0.0144368
709.075	0.0144568
709.153	0.0146178
709.231	0.0147874
709.309	0.0147580
709.387	0.0147937
709.465	0.0148944
709.543	0.0149933
709.621	0.0151585
709.700	0.0150027
709.778	0.0150259
709.856	0.0150194
709.934	0.0150224
710.012	0.0149370
710.090	0.0148586
710.168	0.0150428
710.246	0.0148654
710.325	0.0148064
710.403	0.0147897
710.481	0.0146730
710.559	0.0148677
710.637	0.0148270
710.715	0.0147945
710.793	0.0147259
710.871	0.0147003
710.950	0.0146787
711.028	0.0146063
711.106	0.0144476
711.184	0.0144821
711.262	0.0143185
711.340	0.0142255
711.418	0.0141563
711.496	0.0142599
711.575	0.0141656
711.653	0.0142195
711.731	0.0142390
711.809	0.0143196
711.887	0.0145016
711.965	0.0145330
712.043	0.0148043
712.121	0.0148295
712.200	0.0149297
712.278	0.0150748
712.356	0.0151707
712.434	0.0152293
712.512	0.0150835
712.590	0.0152953
712.668	0.0154066
712.746	0.0152345
712.825	0.0151447
712.903	0.0150080
712.981	0.0150041
713.059	0.0148783
713.137	0.0148402
713.215	0.0146100
713.293	0.0146407
713.371	0.0145237
713.450	0.0143394
713.528	0.0142924
713.606	0.0142952
713.684	0.0143292
713.762	0.0144524
713.840	0.0144621
713.918	0.0145512
713.996	0.0144937
714.075	0.0146181
714.153	0.0145922
714.231	0.0146091
714.309	0.0146573
714.387	0.0148380
714.465	0.0148724
714.543	0.0148277
714.621	0.0147559
714.700	0.0148759
714.778	0.0149711
714.856	0.0149496
714.934	0.0149860
715.012	0.0150758
715.090	0.0150554
715.168	0.0149792
715.246	0.0149906
715.325	0.0151092
715.403	0.0149971
715.481	0.0148683
715.559	0.0149254
715.637	0.0148776
715.715	0.0147551
715.793	0.0148254
715.871	0.0146257
715.950	0.0145795
716.028	0.0146084
716.106	0.0144161
716.184	0.0142918
716.262	0.0142875
716.340	0.0143813
716.418	0.0144497
716.496	0.0144786
716.575	0.0145882
716.653	0.0147616
716.731	0.0147197
716.809	0.0148289
716.887	0.0149857
716.965	0.0148406
717.043	0.0149820
717.121	0.0149939
717.200	0.0151432
717.278	0.0150115
717.356	0.0150527
717.434	0.0150883
717.512	0.0149712
717.590	0.0150539
717.668	0.0148270
717.746	0.0149674
717.825	0.0150348
717.903	0.0147910
717.981	0.0148550
718.059	0.0147472
718.137	0.0145897
718.215	0.0145901
718.293	0.0144811
718.371	0.0144971
718.450	0.0143958
718.528	0.0144376
718.606	0.0145211
718.684	0.0142924
718.762	0.0142759
718.840	0.0144290
718.918	0.0143775
718.996	0.0143619
719.075	0.0146213
719.153	0.0145976
719.231	0.0146860
719.309	0.0147780
719.387	0.0148736
719.465	0.0150495
719.543	0.0151155
719.621	0.0151369
719.700	0.0151863
719.778	0.0152656
719.856	0.0151501
719.934	0.0151228
720.012	0.0151510
720.090	0.0150748
720.168	0.0150287
720.246	0.0150052
720.325	0.0150162
720.403	0.0147860
720.481	0.0147772
720.559	0.0147405
720.637	0.0147459
720.715	0.0146236
720.793	0.0144733
720.871	0.0145179
720.950	0.0145180
721.028	0.0146255
721.106	0.0145256
721.184	0.0144347
721.262	0.0144730
721.340	0.0145200
721.418	0.0145414
721.496	0.0143819
721.575	0.0144862
721.653	0.0143866
721.731	0.0144580
721.809	0.0146206
721.887	0.0145696
721.965	0.0147086
722.043	0.0145817
722.121	0.0145940
722.200	0.0148498
722.278	0.0148353
722.356	0.0148981
722.434	0.0151009
722.512	0.0151970
722.590	0.0150188
722.668	0.0150185
722.746	0.0148679
722.825	0.0148671
722.903	0.0151393
722.981	0.0149471
723.059	0.0147758
723.137	0.0147314
723.215	0.0146276
723.293	0.0145361
723.371	0.0146387
723.450	0.0146395
723.528	0.0145043
723.606	0.0145470
723.684	0.0146959
723.762	0.0146559
723.840	0.0147256
723.918	0.0147098
723.996	0.0146418
724.075	0.0145334
724.153	0.0147241
724.231	0.0146821
724.309	0.0146655
724.387	0.0146956
724.465	0.0145419
724.543	0.0146930
724.621	0.0148316
724.700	0.0147572
724.778	0.0147846
724.856	0.0147949
724.934	0.0148586
725.012	0.0149744
725.090	0.0148886
725.168	0.0149594
725.246	0.0149763
725.325	0.0149044
725.403	0.0147945
725.481	0.0149487
725.559	0.0147066
725.637	0.0147698
725.715	0.0148172
725.793	0.0145559
725.871	0.0145246
725.950	0.0145078
726.028	0.0144091
726.106	0.0143683
726.184	0.0144314
726.262	0.0145630
726.340	0.0143947
726.418	0.0145171
726.496	0.0145071
726.575	0.0144688
726.653	0.0146078
726.731	0.0147829
726.809	0.0146031
726.887	0.0147215
726.965	0.0149335
727.043	0.0149019
727.121	0.0147784
727.200	0.0149130
727.278	0.0150971
727.356	0.0149931
727.434	0.0149715
727.512	0.0148862
727.590	0.0148281
727.668	0.0150053
727.746	0.0149101
727.825	0.0149294
727.903	0.0147858
727.981	0.0146938
728.059	0.0146293
728.137	0.0145911
728.215	0.0144699
728.293	0.0146486
728.371	0.0142834
728.450	0.0144493
728.528	0.0145222
728.606	0.0143647
728.684	0.0143968
728.762	0.0144919
728.840	0.0144610
728.918	0.0144914
728.996	0.0145291
729.075	0.0145287
729.153	0.0145876
729.231	0.0146552
729.309	0.0145821
729.387	0.0146537
729.465	0.0147945
729.543	0.0148798
729.621	0.0148551
729.700	0.0149302
729.778	0.0148566
729.856	0.0147667
729.934	0.0150418
730.012	0.0149220
730.090	0.0148326
730.168	0.0148559
730.246	0.0149000
730.325	0.0148853
730.403	0.0147829
730.481	0.0147459
730.559	0.0146949
730.637	0.0147311
730.715	0.0146748
730.793	0.0146133
730.871	0.0145452
730.950	0.0145187
731.028	0.0145567
731.106	0.0143804
731.184	0.0145246
731.262	0.0144182
731.340	0.0146350
731.418	0.0146434
731.496	0.0146222
731.575	0.0146028
731.653	0.0146957
731.731	0.0146918
731.809	0.0147338
731.887	0.0147096
731.965	0.0148695
732.043	0.0148969
732.121	0.0149234
732.200	0.0150000
732.278	0.0148913
732.356	0.0149286
732.434	0.0149398
732.512	0.0150471
732.590	0.0148503
732.668	0.0150098
732.746	0.0148445
732.825	0.0146265
732.903	0.0147143
732.981	0.0145788
733.059	0.0146107
733.137	0.0145359
733.215	0.0145869
733.293	0.0143194
733.371	0.0144790
733.450	0.0143966
733.528	0.0143424
733.606	0.0141984
733.684	0.0143938
733.762	0.0144070
733.840	0.0144021
733.918	0.0143026
733.996	0.0144940
734.075	0.0145954
734.153	0.0146473
734.231	0.0147873
734.309	0.0147112
734.387	0.0147717
734.465	0.0148605
734.543	0.0148833
734.621	0.0150063
734.700	0.0150309
734.778	0.0151390
734.856	0.0150880
734.934	0.0151451
735.012	0.0149683
735.090	0.0151221
735.168	0.0151048
735.246	0.0148711
735.325	0.0148640
735.403	0.0148077
735.481	0.0146760
735.559	0.0148051
735.637	0.0146294
735.715	0.0146275
735.793	0.0144363
735.871	0.0143526
735.950	0.0143846
736.028	0.0143288
736.106	0.0143260
736.184	0.0144611
736.262	0.0144354
736.340	0.0143012
736.418	0.0144025
736.496	0.0145564
736.575	0.0145666
736.653	0.0147044
736.731	0.0147418
736.809	0.0147778
736.887	0.0148614
736.965	0.0149315
737.043	0.0148335
737.121	0.0148854
737.200	0.0149224
737.278	0.0149331
737.356	0.0150597
737.434	0.0148802
737.512	0.0148656
737.590	0.0146753
737.668	0.0151309
737.746	0.0148981
737.825	0.0146526
737.903	0.0146108
737.981	0.0148766
738.059	0.0147935
738.137	0.0146589
738.215	0.0145290
738.293	0.0144515
738.371	0.0145788
738.450	0.0147475
738.528	0.0145766
738.606	0.0146883
738.684	0.0147243
738.762	0.0146310
738.840	0.0146959
738.918	0.0146189
738.996	0.0147663
739.075	0.0147692
739.153	0.0147432
739.231	0.0148141
739.309	0.0148528
739.387	0.0149252
739.465	0.0149493
739.543	0.0147495
739.621	0.0148788
739.700	0.0149323
739.778	0.0149622
739.856	0.0149726
739.934	0.0148532
740.012	0.0149548
740.090	0.0149069
740.168	0.0149848
740.246	0.0147619
740.325	0.0148325
740.403	0.0147071
740.481	0.0147548
740.559	0.0146242
740.637	0.0146645
740.715	0.0147136
740.793	0.0144677
740.871	0.0144914
740.950	0.0145107
741.028	0.0146204
741.106	0.0145826
741.184	0.0145766
741.262	0.0145998
741.340	0.0145064
741.418	0.0146464
741.496	0.0148051
741.575	0.0147858
741.653	0.0145802
741.731	0.0148441
741.809	0.0147850
741.887	0.0148336
741.965	0.0149680
742.043	0.0150446
742.121	0.0148858
742.200	0.0149511
742.278	0.0149347
742.356	0.0149081
742.434	0.0148844
742.512	0.0150608
742.590	0.0149703
742.668	0.0148814
742.746	0.0149027
742.825	0.0149451
742.903	0.0148404
742.981	0.0148112
743.059	0.0147580
743.137	0.0147312
743.215	0.0147851
743.293	0.0147060
743.371	0.0145658
743.450	0.0146358
743.528	0.0148521
743.606	0.0145994
743.684	0.0146060
743.762	0.0147413
743.840	0.0146980
743.918	0.0145750
743.996	0.0146544
744.075	0.0148367
744.153	0.0148145
744.231	0.0148405
744.309	0.0149381
744.387	0.0148615
744.465	0.0150385
744.543	0.0149264
744.621	0.0149375
744.700	0.0149767
744.778	0.0149067
744.856	0.0149535
744.934	0.0148787
745.012	0.0150285
745.090	0.0150642
745.168	0.0148333
745.246	0.0149938
745.325	0.0149129
745.403	0.0147082
745.481	0.0147020
745.559	0.0147186
745.637	0.0147036
745.715	0.0147070
745.793	0.0146606
745.871	0.0146084
745.950	0.0145885
746.028	0.0146635
746.106	0.0146764
746.184	0.0145277
746.262	0.0144862
746.340	0.0145509
746.418	0.0144803
746.496	0.0146203
746.575	0.0146779
746.653	0.0146250
746.731	0.0146582
746.809	0.0146877
746.887	0.0146529
746.965	0.0147661
747.043	0.0146626
747.121	0.0147466
747.200	0.0148029
747.278	0.0147204
747.356	0.0147488
747.434	0.0147762
747.512	0.0148282
747.590	0.0148241
747.668	0.0147399
747.746	0.0146356
747.825	0.0146175
747.903	0.0146616
747.981	0.0148365
748.059	0.0146606
748.137	0.0146899
748.215	0.0146478
748.293	0.0146725
748.371	0.0147247
748.450	0.0146974
748.528	0.0146586
748.606	0.0146758
748.684	0.0145538
748.762	0.0146884
748.840	0.0147164
748.918	0.0146832
748.996	0.0147137
749.075	0.0145071
749.153	0.0146145
749.231	0.0147218
749.309	0.0148119
749.387	0.0146820
749.465	0.0145924
749.543	0.0145360
749.621	0.0146804
749.700	0.0147473
749.778	0.0147480
749.856	0.0146968
749.934	0.0146472
750.012	0.0146883
750.090	0.0147098
750.168	0.0147971
750.246	0.0148544
750.325	0.0147471
750.403	0.0147913
750.481	0.0146227
750.559	0.0145861
750.637	0.0146812
750.715	0.0146397
750.793	0.0145806
750.871	0.0145458
750.950	0.0145443
751.028	0.0146852
751.106	0.0146164
751.184	0.0146348
751.262	0.0145847
751.340	0.0145774
751.418	0.0147665
751.496	0.0147863
751.575	0.0147582
751.653	0.0147955
751.731	0.0148048
751.809	0.0147237
751.887	0.0147279
751.965	0.0147697
752.043	0.0148348
752.121	0.0148582
752.200	0.0149979
752.278	0.0147836
752.356	0.0148814
752.434	0.0147383
752.512	0.0148682
752.590	0.0149036
752.668	0.0148627
752.746	0.0149331
752.825	0.0148322
752.903	0.0147157
752.981	0.0147679
753.059	0.0146906
753.137	0.0146710
753.215	0.0146608
753.293	0.0146735
753.371	0.0145715
753.450	0.0145010
753.528	0.0144739
753.606	0.0145509
753.684	0.0146312
753.762	0.0145096
753.840	0.0146500
753.918	0.0146032
753.996	0.0146548
754.075	0.0144906
754.153	0.0146012
754.231	0.0146422
754.309	0.0146642
754.387	0.0147031
754.465	0.0148313
754.543	0.0147316
754.621	0.0148180
754.700	0.0147196
754.778	0.0146777
754.856	0.0147173
754.934	0.0147183
755.012	0.0146301
755.090	0.0148364
755.168	0.0147185
755.246	0.0147932
755.325	0.0146750
755.403	0.0148428
755.481	0.0147445
755.559	0.0147385
755.637	0.0149075
755.715	0.0147584
755.793	0.0147854
755.871	0.0147400
755.950	0.0147514
756.028	0.0146786
756.106	0.0147546
756.184	0.0147633
756.262	0.0146919
756.340	0.0146672
756.418	0.0147576
756.496	0.0147807
756.575	0.0147058
756.653	0.0147124
756.731	0.0147256
756.809	0.0145406
756.887	0.0147536
756.965	0.0147046
757.043	0.0147321
757.121	0.0147518
757.200	0.0148724
757.278	0.0146683
757.356	0.0147459
757.434	0.0147569
757.512	0.0148344
757.590	0.0147743
757.668	0.0147615
757.746	0.0148418
757.825	0.0149075
757.903	0.0148038
757.981	0.0146367
758.059	0.0147298
758.137	0.0147512
758.215	0.0146912
758.293	0.0146012
758.371	0.0146759
758.450	0.0146918
758.528	0.0146700
758.606	0.0146845
758.684	0.0145781
758.762	0.0146585
758.840	0.0146999
758.918	0.0148454
758.996	0.0146477
759.075	0.0147124
759.153	0.0148493
759.231	0.0148430
759.309	0.0148031
759.387	0.0148783
759.465	0.0148813
759.543	0.0149978
759.621	0.0149105
759.700	0.0147844
759.778	0.0147066
759.856	0.0147548
759.934	0.0149297
760.012	0.0149357
760.090	0.0148422
760.168	0.0148441
760.246	0.0148414
760.325	0.0148209
760.403	0.0149022
760.481	0.0146867
760.559	0.0148305
760.637	0.0147301
760.715	0.0147108
760.793	0.0147330
760.871	0.0147662
760.950	0.0147047
761.028	0.0147684
761.106	0.0147887
761.184	0.0147334
761.262	0.0147459
761.340	0.0148624
761.418	0.0148300
761.496	0.0148680
761.575	0.0148191
761.653	0.0148798
761.731	0.0149444
761.809	0.0148342
761.887	0.0147843
761.965	0.0146543
762.043	0.0146950
762.121	0.0148421
762.200	0.0147076
762.278	0.0146122
762.356	0.0147085
762.434	0.0147794
762.512	0.0147134
762.590	0.0147337
762.668	0.0147110
762.746	0.0146806
762.825	0.0148237
762.903	0.0147763
762.981	0.0147733
763.059	0.0147840
763.137	0.0147704
763.215	0.0146603
763.293	0.0148455
763.371	0.0149090
763.450	0.0147698
763.528	0.0147150
763.606	0.0148667
763.684	0.0148270
763.762	0.0147453
763.840	0.0148995
763.918	0.0148302
763.996	0.0148064
764.075	0.0148161
764.153	0.0148227
764.231	0.0148679
764.309	0.0146474
764.387	0.0148548
764.465	0.0147470
764.543	0.0146747
764.621	0.0147429
764.700	0.0148193
764.778	0.0147121
764.856	0.0147070
764.934	0.0148800
765.012	0.0147541
765.090	0.0147578
765.168	0.0147702
765.246	0.0147105
765.325	0.0148024
765.403	0.0147276
765.481	0.0148356
765.559	0.0148022
765.637	0.0147661
765.715	0.0147797
765.793	0.0147345
765.871	0.0146613
765.950	0.0146527
766.028	0.0147781
766.106	0.0148149
766.184	0.0147309
766.262	0.0147018
766.340	0.0147086
766.418	0.0146952
766.496	0.0146960
766.575	0.0147073
766.653	0.0147066
766.731	0.0147444
766.809	0.0147697
766.887	0.0146885
766.965	0.0149428
767.043	0.0147980
767.121	0.0148586
767.200	0.0148150
767.278	0.0147279
767.356	0.0147529
767.434	0.0148648
767.512	0.0148026
767.590	0.0147615
767.668	0.0147378
767.746	0.0148258
767.825	0.0146223
767.903	0.0147759
767.981	0.0147684
768.059	0.0148127
768.137	0.0148376
768.215	0.0147969
768.293	0.0147777
768.371	0.0147175
768.450	0.0146877
768.528	0.0146949
768.606	0.0147704
768.684	0.0146960
768.762	0.0148576
768.840	0.0148347
768.918	0.0147228
768.996	0.0148800
769.075	0.0147453
769.153	0.0149078
769.231	0.0149457
769.309	0.0147296
769.387	0.0149532
769.465	0.0149023
769.543	0.0147212
769.621	0.0147233
769.700	0.0147429
769.778	0.0147525
769.856	0.0147209
769.934	0.0147609
770.012	0.0148503
770.090	0.0147942
770.168	0.0146803
770.246	0.0147800
770.325	0.0148563
770.403	0.0147712
770.481	0.0147858
770.559	0.0147206
770.637	0.0148010
770.715	0.0148060
770.793	0.0147168
770.871	0.0147797
770.950	0.0146172
771.028	0.0147354
771.106	0.0148100
771.184	0.0146831
771.262	0.0147461
771.340	0.0147215
771.418	0.0149567
771.496	0.0147301
771.575	0.0148137
771.653	0.0147830
771.731	0.0147843
771.809	0.0148100
771.887	0.0147186
771.965	0.0146774
772.043	0.0148622
772.121	0.0146737
772.200	0.0147358
772.278	0.0146748
772.356	0.0147918
772.434	0.0148179
772.512	0.0147588
772.590	0.0147490
772.668	0.0148669
772.746	0.0148778
772.825	0.0148172
772.903	0.0147816
772.981	0.0148541
773.059	0.0149132
773.137	0.0147924
773.215	0.0148786
773.293	0.0147216
773.371	0.0147610
773.450	0.0147155
773.528	0.0146947
773.606	0.0147832
773.684	0.0146772
773.762	0.0147525
773.840	0.0145903
773.918	0.0147672
773.996	0.0147554
774.075	0.0147318
774.153	0.0147398
774.231	0.0148480
774.309	0.0147758
774.387	0.0147402
774.465	0.0147337
774.543	0.0149020
774.621	0.0147489
774.700	0.0148402
774.778	0.0149203
774.856	0.0148600
774.934	0.0148370
775.012	0.0146825
775.090	0.0146615
775.168	0.0148080
775.246	0.0149679
775.325	0.0147193
775.403	0.0146251
775.481	0.0147096
775.559	0.0147102
775.637	0.0147677
775.715	0.0146499
775.793	0.0144964
775.871	0.0145867
775.950	0.0146970
776.028	0.0146601
776.106	0.0147820
776.184	0.0147688
776.262	0.0147464
776.340	0.0147825
776.418	0.0147067
776.496	0.0146341
776.575	0.0145750
776.653	0.0147224
776.731	0.0147838
776.809	0.0147384
776.887	0.0147677
776.965	0.0146802
777.043	0.0147580
777.121	0.0148306
777.200	0.0147184
777.278	0.0146732
777.356	0.0146130
777.434	0.0148553
777.512	0.0147750
777.590	0.0147019
777.668	0.0148512
777.746	0.0146423
777.825	0.0147962
777.903	0.0148320
777.981	0.0148389
778.059	0.0147900
778.137	0.0148169
778.215	0.0147276
778.293	0.0148447
778.371	0.0148918
778.450	0.0147511
778.528	0.0147362
778.606	0.0148090
778.684	0.0148364
778.762	0.0149040
778.840	0.0147641
778.918	0.0148033
778.996	0.0149165
779.075	0.0148008
779.153	0.0146610
779.231	0.0148259
779.309	0.0148296
779.387	0.0147482
779.465	0.0147626
779.543	0.0146986
779.621	0.0147755
779.700	0.0147351
779.778	0.0146188
779.856	0.0146529
779.934	0.0145681
780.012	0.0146561
780.090	0.0147169
780.168	0.0147393
780.246	0.0147029
780.325	0.0148348
780.403	0.0146537
780.481	0.0145079
780.559	0.0147471
780.637	0.0146831
780.715	0.0145678
780.793	0.0146703
780.871	0.0147039
780.950	0.0147481
781.028	0.0146772
781.106	0.0146932
781.184	0.0146446
781.262	0.0145995
781.340	0.0146732
781.418	0.0146495
781.496	0.0146384
781.575	0.0146990
781.653	0.0147724
781.731	0.0146975
781.809	0.0146642
781.887	0.0148482
781.965	0.0147459
782.043	0.0146001
782.121	0.0146643
782.200	0.0147562
782.278	0.0148114
782.356	0.0147926
782.434	0.0146864
782.512	0.0147422
782.590	0.0146968
782.668	0.0146643
782.746	0.0147897
782.825	0.0147635
782.903	0.0147710
782.981	0.0146873
783.059	0.0147093
783.137	0.0146295
783.215	0.0149072
783.293	0.0149008
783.371	0.0147141
783.450	0.0147672
783.528	0.0147149
783.606	0.0147630
783.684	0.0147531
783.762	0.0146606
783.840	0.0145924
783.918	0.0146156
783.996	0.0146111
784.075	0.0146537
784.153	0.0146260
784.231	0.0145605
784.309	0.0145270
784.387	0.0145852
784.465	0.0145715
784.543	0.0145477
784.621	0.0146818
784.700	0.0146609
784.778	0.0145451
784.856	0.0146478
784.934	0.0146212
785.012	0.0146413
785.090	0.0146789
785.168	0.0147385
785.246	0.0146743
785.325	0.0145457
785.403	0.0146987
785.481	0.0147243
785.559	0.0146577
785.637	0.0146501
785.715	0.0146027
785.793	0.0147696
785.871	0.0147205
785.950	0.0146526
786.028	0.0146953
786.106	0.0146586
786.184	0.0148108
786.262	0.0147051
786.340	0.0146632
786.418	0.0147189
786.496	0.0148016
786.575	0.0146850
786.653	0.0145899
786.731	0.0146075
786.809	0.0147221
786.887	0.0147154
786.965	0.0146910
787.043	0.0148670
787.121	0.0146513
787.200	0.0147519
787.278	0.0146424
787.356	0.0146655
787.434	0.0146633
787.512	0.0146742
787.590	0.0146794
787.668	0.0146166
787.746	0.0147258
787.825	0.0147758
787.903	0.0147192
787.981	0.0147375
788.059	0.0145744
788.137	0.0146263
788.215	0.0147364
788.293	0.0147764
788.371	0.0148132
788.450	0.0146989
788.528	0.0147536
788.606	0.0146881
788.684	0.0146175
788.762	0.0146059
788.840	0.0147209
788.918	0.0146999
788.996	0.0147034
789.075	0.0147028
789.153	0.0147211
789.231	0.0146918
789.309	0.0147475
789.387	0.0146458
789.465	0.0147359
789.543	0.0147083
789.621	0.0146906
789.700	0.0147810
789.778	0.0147402
789.856	0.0146416
789.934	0.0147527
790.012	0.0148278
790.090	0.0147613
790.168	0.0147752
790.246	0.0147923
790.325	0.0147926
790.403	0.0146464
790.481	0.0147814
790.559	0.0148318
790.637	0.0147675
790.715	0.0148258
790.793	0.0147874
790.871	0.0147111
790.950	0.0147658
791.028	0.0148531
791.106	0.0149275
791.184	0.0146937
791.262	0.0148987
791.340	0.0147314
791.418	0.0146856
791.496	0.0147177
791.575	0.0146712
791.653	0.0147060
791.731	0.0148717
791.809	0.0148122
791.887	0.0146901
791.965	0.0146333
792.043	0.0147092
792.121	0.0149741
792.200	0.0147911
792.278	0.0148153
792.356	0.0148003
792.434	0.0147768
792.512	0.0146744
792.590	0.0147285
792.668	0.0146825
792.746	0.0147195
792.825	0.0146838
792.903	0.0148006
792.981	0.0147948
793.059	0.0146507
793.137	0.0146671
793.215	0.0147010
793.293	0.0148847
793.371	0.0147651
793.450	0.0147145
793.528	0.0146861
793.606	0.0146602
793.684	0.0148112
793.762	0.0145989
793.840	0.0146426
793.918	0.0147157
793.996	0.0146871
794.075	0.0146437
794.153	0.0147394
794.231	0.0146236
794.309	0.0149249
794.387	0.0148031
794.465	0.0145639
794.543	0.0148087
794.621	0.0148118
794.700	0.0148335
794.778	0.0148246
794.856	0.0147748
794.934	0.0149421
795.012	0.0147650
795.090	0.0147530
795.168	0.0146880
795.246	0.0147438
795.325	0.0147918
795.403	0.0147980
795.481	0.0147816
795.559	0.0147732
795.637	0.0147938
795.715	0.0148418
795.793	0.0146394
795.871	0.0146252
795.950	0.0147243
796.028	0.0148042
796.106	0.0146616
796.184	0.0146474
796.262	0.0146857
796.340	0.0145238
796.418	0.0145235
796.496	0.0148191
796.575	0.0147906
796.653	0.0146918
796.731	0.0146601
796.809	0.0146249
796.887	0.0146770
796.965	0.0148787
797.043	0.0148392
797.121	0.0148280
797.200	0.0146900
797.278	0.0148397
797.356	0.0147173
797.434	0.0147713
797.512	0.0148664
797.590	0.0147498
797.668	0.0148949
797.746	0.0147301
797.825	0.0147015
797.903	0.0147292
797.981	0.0147608
798.059	0.0147635
798.137	0.0146636
798.215	0.0147767
798.293	0.0147981
798.371	0.0147581
798.450	0.0145760
798.528	0.0149089
798.606	0.0148248
798.684	0.0146367
798.762	0.0148060
798.840	0.0147544
798.918	0.0148185
798.996	0.0146426
799.075	0.0146054
799.153	0.0147224
799.231	0.0148017
799.309	0.0148141
799.387	0.0148462
799.465	0.0148746
799.543	0.0147560
799.621	0.0148019
799.700	0.0147061
799.778	0.0147605
799.856	0.0148423
799.934	0.0147816
800.012	0.0148045
800.090	0.0148821
800.168	0.0147329
800.246	0.0146976
800.325	0.0147905
800.403	0.0146799
800.481	0.0146628
800.559	0.0147001
800.637	0.0146380
800.715	0.0147752
800.793	0.0147693
800.871	0.0147160
800.950	0.0147440
801.028	0.0147785
801.106	0.0148093
801.184	0.0147399
801.262	0.0147340
801.340	0.0147224
801.418	0.0146513
801.496	0.0147569
801.575	0.0146613
801.653	0.0147224
801.731	0.0146431
801.809	0.0147247
801.887	0.0147404
801.965	0.0147530
802.043	0.0146714
802.121	0.0147322
802.200	0.0147548
802.278	0.0147475
802.356	0.0148594
802.434	0.0149752
802.512	0.0147665
802.590	0.0147375
802.668	0.0147308
802.746	0.0145657
802.825	0.0148296
802.903	0.0148295
802.981	0.0147560
803.059	0.0146976
803.137	0.0148225
803.215	0.0147783
803.293	0.0148361
803.371	0.0148508
803.450	0.0148640
803.528	0.0148265
803.606	0.0147010
803.684	0.0148360
803.762	0.0147793
803.840	0.0148615
803.918	0.0147375
803.996	0.0147166
804.075	0.0148196
804.153	0.0147207
804.231	0.0146785
804.309	0.0148096
804.387	0.0148567
804.465	0.0147947
804.543	0.0146140
804.621	0.0146701
804.700	0.0145442
804.778	0.0147495
804.856	0.0146261
804.934	0.0146722
805.012	0.0146796
805.090	0.0146952
805.168	0.0147002
805.246	0.0147690
805.325	0.0146540
805.403	0.0146131
805.481	0.0147147
805.559	0.0147207
805.637	0.0146515
805.715	0.0146970
805.793	0.0147007
805.871	0.0146104
805.950	0.0146665
806.028	0.0147401
806.106	0.0148631
806.184	0.0146626
806.262	0.0146844
806.340	0.0146230
806.418	0.0147189
806.496	0.0146922
806.575	0.0146759
806.653	0.0145844
806.731	0.0147205
806.809	0.0147333
806.887	0.0146606
806.965	0.0147220
807.043	0.0147719
807.121	0.0147067
807.200	0.0147363
807.278	0.0147041
807.356	0.0146217
807.434	0.0147090
807.512	0.0146510
807.590	0.0146602
807.668	0.0146354
807.746	0.0146691
807.825	0.0145470
807.903	0.0146614
807.981	0.0146479
808.059	0.0145908
808.137	0.0147534
808.215	0.0147897
808.293	0.0146881
808.371	0.0147885
808.450	0.0148405
808.528	0.0146881
808.606	0.0146204
808.684	0.0145828
808.762	0.0146581
808.840	0.0144724
808.918	0.0147449
808.996	0.0146517
809.075	0.0147430
809.153	0.0145634
809.231	0.0146887
809.309	0.0145796
809.387	0.0145655
809.465	0.0147186
809.543	0.0146545
809.621	0.0146532
809.700	0.0147163
809.778	0.0147842
809.856	0.0146311
809.934	0.0146545
810.012	0.0147421
810.090	0.0146768
810.168	0.0147513
810.246	0.0146361
810.325	0.0145745
810.403	0.0146418
810.481	0.0145985
810.559	0.0146897
810.637	0.0145281
810.715	0.0146277
810.793	0.0145475
810.871	0.0146801
810.950	0.0146513
811.028	0.0145995
811.106	0.0145723
811.184	0.0145763
811.262	0.0145413
811.340	0.0145306
811.418	0.0145330
811.496	0.0146048
811.575	0.0145352
811.653	0.0146252
811.731	0.0147364
811.809	0.0147343
811.887	0.0145589
811.965	0.0144684
812.043	0.0146410
812.121	0.0146719
812.200	0.0146685
812.278	0.0146903
812.356	0.0146296
812.434	0.0146043
812.512	0.0146756
812.590	0.0145906
812.668	0.0145960
812.746	0.0146673
812.825	0.0146712
812.903	0.0147144
812.981	0.0146922
813.059	0.0147366
813.137	0.0146702
813.215	0.0146819
813.293	0.0146259
813.371	0.0147359
813.450	0.0145715
813.528	0.0145895
813.606	0.0146298
813.684	0.0146954
813.762	0.0146930
813.840	0.0146160
813.918	0.0146255
813.996	0.0145375
814.075	0.0146848
814.153	0.0148110
814.231	0.0146751
814.309	0.0146430
814.387	0.0148994
814.465	0.0147201
814.543	0.0145324
814.621	0.0147766
814.700	0.0146333
814.778	0.0147011
814.856	0.0147368
814.934	0.0146581
815.012	0.0147504
815.090	0.0146980
815.168	0.0147986
815.246	0.0147530
815.325	0.0146183
815.403	0.0146963
815.481	0.0148837
815.559	0.0147651
815.637	0.0147093
815.715	0.0149010
815.793	0.0148220
815.871	0.0147768
815.950	0.0147835
816.028	0.0146290
816.106	0.0147015
816.184	0.0147378
816.262	0.0147720
816.340	0.0148002
816.418	0.0146862
816.496	0.0146229
816.575	0.0146759
816.653	0.0146912
816.731	0.0147242
816.809	0.0147398
816.887	0.0147372
816.965	0.0147804
817.043	0.0147466
817.121	0.0146457
817.200	0.0145943
817.278	0.0147723
817.356	0.0147502
817.434	0.0145346
817.512	0.0147213
817.590	0.0147458
817.668	0.0147063
817.746	0.0146695
817.825	0.0147384
817.903	0.0147735
817.981	0.0147054
818.059	0.0147567
818.137	0.0147132
818.215	0.0146696
818.293	0.0147969
818.371	0.0148596
818.450	0.0147380
818.528	0.0148354
818.606	0.0147646
818.684	0.0147577
818.762	0.0146825
818.840	0.0147640
818.918	0.0146187
818.996	0.0148199
819.075	0.0147894
819.153	0.0149364
819.231	0.0148141
819.309	0.0147186
819.387	0.0147874
819.465	0.0147848
819.543	0.0147092
819.621	0.0147267
819.700	0.0147746
819.778	0.0146906
819.856	0.0146951
819.934	0.0146484
820.012	0.0147087
820.090	0.0148173
820.168	0.0147264
820.246	0.0147004
820.325	0.0147057
820.403	0.0147570
820.481	0.0146355
820.559	0.0147346
820.637	0.0148703
820.715	0.0148361
820.793	0.0145964
820.871	0.0146950
820.950	0.0146516
821.028	0.0146822
821.106	0.0148382
821.184	0.0148217
821.262	0.0146802
821.340	0.0149021
821.418	0.0148127
821.496	0.0146992
821.575	0.0148309
821.653	0.0149010
821.731	0.0146699
821.809	0.0148169
821.887	0.0147597
821.965	0.0147804
822.043	0.0148314
822.121	0.0147680
822.200	0.0146645
822.278	0.0147466
822.356	0.0146454
822.434	0.0147311
822.512	0.0146935
822.590	0.0147027
822.668	0.0148774
822.746	0.0146846
822.825	0.0148566
822.903	0.0147055
822.981	0.0146711
823.059	0.0146367
823.137	0.0147823
823.215	0.0146495
823.293	0.0146704
823.371	0.0149395
823.450	0.0148547
823.528	0.0149530
823.606	0.0148929
823.684	0.0146510
823.762	0.0147601
823.840	0.0149056
823.918	0.0147398
823.996	0.0146813
824.075	0.0148183
824.153	0.0147607
824.231	0.0148412
824.309	0.0148457
824.387	0.0146851
824.465	0.0147718
824.543	0.0147930
824.621	0.0148331
824.700	0.0147192
824.778	0.0146711
824.856	0.0147887
824.934	0.0146484
825.012	0.0147569
825.090	0.0145622
825.168	0.0149852
825.246	0.0146214
825.325	0.0146692
825.403	0.0147095
825.481	0.0147502
825.559	0.0147647
825.637	0.0147765
825.715	0.0147524
825.793	0.0145981
825.871	0.0146390
825.950	0.0149010
826.028	0.0147430
826.106	0.0148490
826.184	0.0149777
826.262	0.0147883
826.340	0.0146680
826.418	0.0148302
826.496	0.0148962
826.575	0.0148437
826.653	0.0148204
826.731	0.0146915
826.809	0.0148061
826.887	0.0147527
826.965	0.0146954
827.043	0.0148050
827.121	0.0149410
827.200	0.0147357
827.278	0.0147707
827.356	0.0147237
827.434	0.0146973
827.512	0.0147076
827.590	0.0146575
827.668	0.0147307
827.746	0.0147307
827.825	0.0146819
827.903	0.0147487
827.981	0.0146290
828.059	0.0147373
828.137	0.0148384
828.215	0.0147722
828.293	0.0147562
828.371	0.0147451
828.450	0.0147466
828.528	0.0146893
828.606	0.0147589
828.684	0.0147931
828.762	0.0147993
828.840	0.0147849
828.918	0.0147208
828.996	0.0147696
829.075	0.0146342
829.153	0.0150116
829.231	0.0149245
829.309	0.0148474
829.387	0.0148441
829.465	0.0148251
829.543	0.0147979
829.621	0.0148499
829.700	0.0147579
829.778	0.0146545
829.856	0.0147957
829.934	0.0147393
830.012	0.0147932
830.090	0.0148073
830.168	0.0147673
830.246	0.0148334
830.325	0.0147442
830.403	0.0146364
830.481	0.0147449
830.559	0.0147468
830.637	0.0146089
830.715	0.0148742
830.793	0.0148055
830.871	0.0147363
830.950	0.0147111
831.028	0.0147812
831.106	0.0147778
831.184	0.0145910
831.262	0.0146024
831.340	0.0147868
831.418	0.0148171
831.496	0.0148279
831.575	0.0148578
831.653	0.0147171
831.731	0.0147072
831.809	0.0146420
831.887	0.0146615
831.965	0.0148457
832.043	0.0147211
832.121	0.0146507
832.200	0.0147134
832.278	0.0147400
832.356	0.0145927
832.434	0.0146870
832.512	0.0147558
832.590	0.0146372
832.668	0.0145963
832.746	0.0144679
832.825	0.0145374
832.903	0.0146920
832.981	0.0146409
833.059	0.0145487
833.137	0.0146339
833.215	0.0146717
833.293	0.0146256
833.371	0.0146718
833.450	0.0146593
833.528	0.0146314
833.606	0.0146502
833.684	0.0145261
833.762	0.0145747
833.840	0.0145839
833.918	0.0146534
833.996	0.0147301
834.075	0.0146386
834.153	0.0147009
834.231	0.0147919
834.309	0.0146320
834.387	0.0146835
834.465	0.0146836
834.543	0.0145885
834.621	0.0144312
834.700	0.0146119
834.778	0.0145869
834.856	0.0146052
834.934	0.0146506
835.012	0.0146140
835.090	0.0146251
835.168	0.0147539
835.246	0.0146262
835.325	0.0146069
835.403	0.0146098
835.481	0.0146021
835.559	0.0146947
835.637	0.0148079
835.715	0.0147747
835.793	0.0146446
835.871	0.0147795
835.950	0.0146791
836.028	0.0146833
836.106	0.0147166
836.184	0.0146575
836.262	0.0147205
836.340	0.0147597
836.418	0.0146289
836.496	0.0145472
836.575	0.0145068
836.653	0.0146623
836.731	0.0145553
836.809	0.0145901
836.887	0.0145947
836.965	0.0145663
837.043	0.0147913
837.121	0.0146323
837.200	0.0146729
837.278	0.0147395
837.356	0.0146764
837.434	0.0147701
837.512	0.0147306
837.590	0.0146437
837.668	0.0148029
837.746	0.0147442
837.825	0.0146194
837.903	0.0147468
837.981	0.0147425
838.059	0.0146651
838.137	0.0147213
838.215	0.0147179
838.293	0.0146306
838.371	0.0147041
838.450	0.0146621
838.528	0.0146148
838.606	0.0146179
838.684	0.0145283
838.762	0.0146629
838.840	0.0148187
838.918	0.0146999
838.996	0.0145935
839.075	0.0146120
839.153	0.0146102
839.231	0.0146580
839.309	0.0145802
839.387	0.0147016
839.465	0.0145589
839.543	0.0146801
839.621	0.0147477
839.700	0.0148309
839.778	0.0147977
839.856	0.0148220
839.934	0.0146960
840.012	0.0147995
840.090	0.0147565
840.168	0.0149438
840.246	0.0148018
840.325	0.0149821
840.403	0.0148756
840.481	0.0146761
840.559	0.0147973
840.637	0.0148241
840.715	0.0146666
840.793	0.0147482
840.871	0.0145315
840.950	0.0145833
841.028	0.0144592
841.106	0.0145515
841.184	0.0146715
841.262	0.0146585
841.340	0.0146967
841.418	0.0147331
841.496	0.0145927
841.575	0.0146256
841.653	0.0147987
841.731	0.0148026
841.809	0.0146505
841.887	0.0146992
841.965	0.0146808
842.043	0.0146954
842.121	0.0147522
842.200	0.0146901
842.278	0.0147157
842.356	0.0146444
842.434	0.0146872
842.512	0.0146447
842.590	0.0146988
842.668	0.0147463
842.746	0.0147027
842.825	0.0147373
842.903	0.0147437
842.981	0.0147771
843.059	0.0147864
843.137	0.0148304
843.215	0.0146655
843.293	0.0147177
843.371	0.0148385
843.450	0.0146558
843.528	0.0146168
843.606	0.0146839
843.684	0.0147935
843.762	0.0148271
843.840	0.0148268
843.918	0.0147978
843.996	0.0147289
844.075	0.0146435
844.153	0.0145788
844.231	0.0147466
844.309	0.0147690
844.387	0.0147201
844.465	0.0146701
844.543	0.0145958
844.621	0.0145731
844.700	0.0147553
844.778	0.0148143
844.856	0.0146869
844.934	0.0146726
845.012	0.0148189
845.090	0.0148866
845.168	0.0146835
845.246	0.0146610
845.325	0.0146996
845.403	0.0147527
845.481	0.0147723
845.559	0.0148167
845.637	0.0146436
845.715	0.0147137
845.793	0.0146364
845.871	0.0147523
845.950	0.0147012
846.028	0.0146795
846.106	0.0147652
846.184	0.0147913
846.262	0.0147469
846.340	0.0147171
846.418	0.0147643
846.496	0.0147478
846.575	0.0146541
846.653	0.0147942
846.731	0.0147602
846.809	0.0147401
846.887	0.0146728
846.965	0.0146539
847.043	0.0147456
847.121	0.0146696
847.200	0.0147536
847.278	0.0147014
847.356	0.0146962
847.434	0.0147329
847.512	0.0147987
847.590	0.0147411
847.668	0.0147020
847.746	0.0147642
847.825	0.0147327
847.903	0.0147684
847.981	0.0148300
848.059	0.0148869
848.137	0.0146239
848.215	0.0147321
848.293	0.0148183
848.371	0.0148089
848.450	0.0147562
848.528	0.0147861
848.606	0.0147752
848.684	0.0147401
848.762	0.0147711
848.840	0.0146899
848.918	0.0146646
848.996	0.0146819
849.075	0.0146355
849.153	0.0146424
849.231	0.0146976
849.309	0.0147705
849.387	0.0147566
849.465	0.0147266
849.543	0.0147375
849.621	0.0147762
849.700	0.0147203
849.778	0.0145601
849.856	0.0147160
849.934	0.0147969
850.012	0.0148463
850.090	0.0148229
850.168	0.0147427
850.246	0.0146772
850.325	0.0146274
850.403	0.0148167
850.481	0.0147623
850.559	0.0148104
850.637	0.0147481
850.715	0.0147443
850.793	0.0148145
850.871	0.0146775
850.950	0.0146705
851.028	0.0146814
851.106	0.0148854
851.184	0.0148424
851.262	0.0147179
851.340	0.0147239
851.418	0.0148164
851.496	0.0146674
851.575	0.0147906
851.653	0.0146655
851.731	0.0146820
851.809	0.0146397
851.887	0.0146928
851.965	0.0147446
852.043	0.0147352
852.121	0.0146355
852.200	0.0145826
852.278	0.0147664
852.356	0.0148317
852.434	0.0147147
852.512	0.0146796
852.590	0.0147681
852.668	0.0148924
852.746	0.0146804
852.825	0.0148222
852.903	0.0147857
852.981	0.0148322
853.059	0.0146344
853.137	0.0149187
853.215	0.0147792
853.293	0.0146231
853.371	0.0145389
853.450	0.0147280
853.528	0.0147255
853.606	0.0146603
853.684	0.0147157
853.762	0.0147491
853.840	0.0146809
853.918	0.0147033
853.996	0.0147527
854.075	0.0147056
854.153	0.0146603
854.231	0.0145972
854.309	0.0146775
854.387	0.0147469
854.465	0.0147047
854.543	0.0146874
854.621	0.0146394
854.700	0.0147422
854.778	0.0147897
854.856	0.0145733
854.934	0.0146445
855.012	0.0146588
855.090	0.0146285
855.168	0.0147550
855.246	0.0146270
855.325	0.0145078
855.403	0.0146783
855.481	0.0146835
855.559	0.0146426
855.637	0.0147707
855.715	0.0147757
855.793	0.0148001
855.871	0.0146799
855.950	0.0146051
856.028	0.0148029
856.106	0.0147681
856.184	0.0148121
856.262	0.0148306
856.340	0.0147996
856.418	0.0148228
856.496	0.0146642
856.575	0.0146015
856.653	0.0146125
856.731	0.0146336
856.809	0.0145975
856.887	0.0146564
856.965	0.0147386
857.043	0.0146655
857.121	0.0147340
857.200	0.0146529
857.278	0.0145767
857.356	0.0145753
857.434	0.0146996
857.512	0.0146753
857.590	0.0146977
857.668	0.0145814
857.746	0.0146840
857.825	0.0144909
857.903	0.0144830
857.981	0.0147665
858.059	0.0147752
858.137	0.0147453
858.215	0.0146539
858.293	0.0146261
858.371	0.0147062
858.450	0.0146536
858.528	0.0146699
858.606	0.0148032
858.684	0.0148392
858.762	0.0145975
858.840	0.0147115
858.918	0.0146372
858.996	0.0145390
859.075	0.0146350
859.153	0.0146097
859.231	0.0147130
859.309	0.0147665
859.387	0.0147728
859.465	0.0147243
859.543	0.0147141
859.621	0.0146616
859.700	0.0146451
859.778	0.0146095
859.856	0.0146618
859.934	0.0148009
860.012	0.0147092
860.090	0.0146465
860.168	0.0146210
860.246	0.0146281
860.325	0.0146504
860.403	0.0145525
860.481	0.0147149
860.559	0.0147263
860.637	0.0146250
860.715	0.0146430
860.793	0.0147691
860.871	0.0146969
860.950	0.0146329
861.028	0.0146157
861.106	0.0146059
861.184	0.0146319
861.262	0.0146367
861.340	0.0147482
861.418	0.0146707
861.496	0.0147845
861.575	0.0146857
861.653	0.0145889
861.731	0.0146544
861.809	0.0147808
861.887	0.0146259
861.965	0.0145882
862.043	0.0148189
862.121	0.0147319
862.200	0.0147330
862.278	0.0145214
862.356	0.0146748
862.434	0.0146818
862.512	0.0146812
862.590	0.0147254
862.668	0.0147308
862.746	0.0146426
862.825	0.0146236
862.903	0.0146540
862.981	0.0146606
863.059	0.0146880
863.137	0.0146342
863.215	0.0145786
863.293	0.0146468
863.371	0.0145702
863.450	0.0146995
863.528	0.0146009
863.606	0.0146147
863.684	0.0146303
863.762	0.0145991
863.840	0.0146931
863.918	0.0148470
863.996	0.0148409
864.075	0.0147424
864.153	0.0147529
864.231	0.0146345
864.309	0.0148632
864.387	0.0148187
864.465	0.0146077
864.543	0.0146186
864.621	0.0145778
864.700	0.0146427
864.778	0.0147750
864.856	0.0146705
864.934	0.0145948
865.012	0.0145501
865.090	0.0146378
865.168	0.0147453
865.246	0.0146491
865.325	0.0146129
865.403	0.0147367
865.481	0.0147039
865.559	0.0147095
865.637	0.0146910
865.715	0.0148071
865.793	0.0146504
865.871	0.0146842
865.950	0.0147407
866.028	0.0147234
866.106	0.0147234
866.184	0.0147300
866.262	0.0147713
866.340	0.0146638
866.418	0.0145714
866.496	0.0148598
866.575	0.0147175
866.653	0.0146561
866.731	0.0146690
866.809	0.0146909
866.887	0.0145724
866.965	0.0147875
867.043	0.0147095
867.121	0.0146935
867.200	0.0146648
867.278	0.0146597
867.356	0.0145557
867.434	0.0146413
867.512	0.0147405
867.590	0.0147259
867.668	0.0146770
867.746	0.0145590
867.825	0.0145786
867.903	0.0147700
867.981	0.0145789
868.059	0.0145098
868.137	0.0145654
868.215	0.0147279
868.293	0.0145988
868.371	0.0146689
868.450	0.0146952
868.528	0.0146741
868.606	0.0146232
868.684	0.0147147
868.762	0.0146885
868.840	0.0147150
868.918	0.0147523
868.996	0.0147263
869.075	0.0146375
869.153	0.0147704
869.231	0.0148270
869.309	0.0147437
869.387	0.0147466
869.465	0.0146029
869.543	0.0147432
869.621	0.0147754
869.700	0.0148320
869.778	0.0147633
869.856	0.0147379
869.934	0.0146004
870.012	0.0145413
870.090	0.0147577
870.168	0.0146299
870.246	0.0147287
870.325	0.0145964
870.403	0.0146065
870.481	0.0147345
870.559	0.0146663
870.637	0.0146057
870.715	0.0147244
870.793	0.0149483
870.871	0.0147194
870.950	0.0145807
871.028	0.0147372
871.106	0.0146412
871.184	0.0147594
871.262	0.0147813
871.340	0.0146375
871.418	0.0146930
871.496	0.0147182
871.575	0.0146980
871.653	0.0147408
871.731	0.0146426
871.809	0.0148088
871.887	0.0147164
871.965	0.0148064
872.043	0.0147771
872.121	0.0146520
872.200	0.0146627
872.278	0.0147545
872.356	0.0147937
872.434	0.0147670
872.512	0.0148019
872.590	0.0148096
872.668	0.0146119
872.746	0.0145121
872.825	0.0147018
872.903	0.0146983
872.981	0.0146756
873.059	0.0146242
873.137	0.0147098
873.215	0.0145931
873.293	0.0146021
873.371	0.0145724
873.450	0.0146810
873.528	0.0146452
873.606	0.0145263
873.684	0.0145333
873.762	0.0147239
873.840	0.0146342
873.918	0.0145836
873.996	0.0147034
874.075	0.0146501
874.153	0.0147138
874.231	0.0145866
874.309	0.0146447
874.387	0.0149052
874.465	0.0148248
874.543	0.0146635
874.621	0.0147675
874.700	0.0146780
874.778	0.0147789
874.856	0.0147915
874.934	0.0147364
875.012	0.0147513
875.090	0.0146370
875.168	0.0148313
875.246	0.0147918
875.325	0.0146896
875.403	0.0146938
875.481	0.0147706
875.559	0.0145696
875.637	0.0146400
875.715	0.0146601
875.793	0.0146951
875.871	0.0146884
875.950	0.0146693
876.028	0.0146720
876.106	0.0145367
876.184	0.0147127
876.262	0.0149348
876.340	0.0148246
876.418	0.0146124
876.496	0.0148048
876.575	0.0146271
876.653	0.0146179
876.731	0.0145256
876.809	0.0146607
876.887	0.0147498
876.965	0.0148385
877.043	0.0147982
877.121	0.0146455
877.200	0.0147259
877.278	0.0147561
877.356	0.0147585
877.434	0.0147559
877.512	0.0147334
877.590	0.0147481
877.668	0.0148452
877.746	0.0148434
877.825	0.0147445
877.903	0.0146461
877.981	0.0149111
878.059	0.0147510
878.137	0.0148820
878.215	0.0148412
878.293	0.0148377
878.371	0.0147496
878.450	0.0148272
878.528	0.0147503
878.606	0.0147892
878.684	0.0148415
878.762	0.0147041
878.840	0.0146183
878.918	0.0148772
878.996	0.0147334
879.075	0.0148123
879.153	0.0148386
879.231	0.0145982
879.309	0.0147948
879.387	0.0148175
879.465	0.0148096
879.543	0.0148158
879.621	0.0147784
879.700	0.0147585
879.778	0.0147038
879.856	0.0146718
879.934	0.0147297
880.012	0.0147231
880.090	0.0146371
880.168	0.0146978
880.246	0.0146722
880.325	0.0146630
880.403	0.0147194
880.481	0.0148401
880.559	0.0148460
880.637	0.0147294
880.715	0.0148093
880.793	0.0146655
880.871	0.0147060
880.950	0.0147203
881.028	0.0147882
881.106	0.0146642
881.184	0.0146683
881.262	0.0148092
881.340	0.0146051
881.418	0.0147627
881.496	0.0145869
881.575	0.0146005
881.653	0.0147289
881.731	0.0146301
881.809	0.0146574
881.887	0.0147111
881.965	0.0146797
882.043	0.0146854
882.121	0.0146597
882.200	0.0148003
882.278	0.0148316
882.356	0.0148018
882.434	0.0147095
882.512	0.0148793
882.590	0.0149397
882.668	0.0148103
882.746	0.0146082
882.825	0.0148234
882.903	0.0147842
882.981	0.0149274
883.059	0.0147842
883.137	0.0147684
883.215	0.0146741
883.293	0.0146978
883.371	0.0146822
883.450	0.0146842
883.528	0.0146737
883.606	0.0147053
883.684	0.0147074
883.762	0.0146933
883.840	0.0146346
883.918	0.0147939
883.996	0.0148825
884.075	0.0147602
884.153	0.0145724
884.231	0.0145162
884.309	0.0146474
884.387	0.0146076
884.465	0.0145197
884.543	0.0146718
884.621	0.0146194
884.700	0.0146163
884.778	0.0146166
884.856	0.0148322
884.934	0.0147525
885.012	0.0148485
885.090	0.0148045
885.168	0.0146317
885.246	0.0147190
885.325	0.0147452
885.403	0.0146593
885.481	0.0146639
885.559	0.0147499
885.637	0.0146445
885.715	0.0146961
885.793	0.0145921
885.871	0.0145866
885.950	0.0145270
886.028	0.0146155
886.106	0.0146457
886.184	0.0146095
886.262	0.0147332
886.340	0.0146326
886.418	0.0145599
886.496	0.0147166
886.575	0.0147086
886.653	0.0147525
886.731	0.0147316
886.809	0.0147579
886.887	0.0146299
886.965	0.0146317
887.043	0.0147706
887.121	0.0147765
887.200	0.0146906
887.278	0.0145622
887.356	0.0149157
887.434	0.0147504
887.512	0.0148452
887.590	0.0148050
887.668	0.0146719
887.746	0.0148622
887.825	0.0148739
887.903	0.0148426
887.981	0.0148243
888.059	0.0148165
888.137	0.0147511
888.215	0.0146348
888.293	0.0147986
888.371	0.0147918
888.450	0.0147559
888.528	0.0146657
888.606	0.0146766
888.684	0.0146432
888.762	0.0146111
888.840	0.0146189
888.918	0.0145329
888.996	0.0145942
889.075	0.0147144
889.153	0.0146821
889.231	0.0146634
889.309	0.0147324
889.387	0.0148479
889.465	0.0146143
889.543	0.0146569
889.621	0.0148312
889.700	0.0147346
889.778	0.0147139
889.856	0.0148461
889.934	0.0147646
890.012	0.0148638
890.090	0.0148649
890.168	0.0148605
890.246	0.0148403
890.325	0.0146643
890.403	0.0147613
890.481	0.0148239
890.559	0.0148451
890.637	0.0147726
890.715	0.0147490
890.793	0.0147179
890.871	0.0146843
890.950	0.0147131
891.028	0.0147708
891.106	0.0147088
891.184	0.0147049
891.262	0.0146136
891.340	0.0146851
891.418	0.0147035
891.496	0.0146527
891.575	0.0146117
891.653	0.0146673
891.731	0.0147147
891.809	0.0147202
891.887	0.0147073
891.965	0.0147168
892.043	0.0148060
892.121	0.0149317
892.200	0.0147112
892.278	0.0149164
892.356	0.0149655
892.434	0.0147617
892.512	0.0148827
892.590	0.0149378
892.668	0.0149725
892.746	0.0147823
892.825	0.0148074
892.903	0.0147898
892.981	0.0148403
893.059	0.0148560
893.137	0.0146870
893.215	0.0147469
893.293	0.0147395
893.371	0.0148401
893.450	0.0148425
893.528	0.0145722
893.606	0.0146915
893.684	0.0147939
893.762	0.0145722
893.840	0.0145202
893.918	0.0146134
893.996	0.0147152
894.075	0.0146081
894.153	0.0146738
894.231	0.0147441
894.309	0.0146490
894.387	0.0146511
894.465	0.0147180
894.543	0.0147760
894.621	0.0147292
894.700	0.0147878
894.778	0.0145895
894.856	0.0146030
894.934	0.0147219
895.012	0.0147292
895.090	0.0147807
895.168	0.0147089
895.246	0.0146590
895.325	0.0146828
895.403	0.0148529
895.481	0.0147800
895.559	0.0146362
895.637	0.0147182
895.715	0.0147324
895.793	0.0147946
895.871	0.0147238
895.950	0.0145608
896.028	0.0148212
896.106	0.0147676
896.184	0.0147416
896.262	0.0146422
896.340	0.0146352
896.418	0.0148410
896.496	0.0147728
896.575	0.0146267
896.653	0.0146916
896.731	0.0145875
896.809	0.0147323
896.887	0.0147783
896.965	0.0145451
897.043	0.0147820
897.121	0.0148222
897.200	0.0148273
897.278	0.0147733
897.356	0.0148795
897.434	0.0147569
897.512	0.0148960
897.590	0.0149781
897.668	0.0147031
897.746	0.0147288
897.825	0.0147816
897.903	0.0149092
897.981	0.0148666
898.059	0.0148180
898.137	0.0148048
898.215	0.0148444
898.293	0.0148280
898.371	0.0147064
898.450	0.0148535
898.528	0.0148243
898.606	0.0146845
898.684	0.0147846
898.762	0.0147018
898.840	0.0146183
898.918	0.0146340
898.996	0.0146207
899.075	0.0147086
899.153	0.0147945
899.231	0.0146948
899.309	0.0146920
899.387	0.0146463
899.465	0.0146865
899.543	0.0145723
899.621	0.0146868
899.700	0.0146819
899.778	0.0145920
899.856	0.0147146
899.934	0.0146784
900.012	0.0147290
900.090	0.0148543
900.168	0.0147247
900.246	0.0147803
900.325	0.0148170
900.403	0.0147029
900.481	0.0147533
900.559	0.0147146
900.637	0.0147456
900.715	0.0148532
900.793	0.0146690
900.871	0.0147285
900.950	0.0147102
901.028	0.0146681
901.106	0.0147559
901.184	0.0146524
901.262	0.0147114
901.340	0.0147641
901.418	0.0148022
901.496	0.0147384
901.575	0.0147402
901.653	0.0147682
901.731	0.0146976
901.809	0.0146722
901.887	0.0148261
901.965	0.0147115
902.043	0.0147032
902.121	0.0149060
902.200	0.0147013
902.278	0.0147099
902.356	0.0147986
902.434	0.0148289
902.512	0.0148206
902.590	0.0146931
902.668	0.0146635
902.746	0.0147193
902.825	0.0147489
902.903	0.0147390
902.981	0.0145589
903.059	0.0145004
903.137	0.0145224
903.215	0.0146069
903.293	0.0146591
903.371	0.0146272
903.450	0.0144944
903.528	0.0145265
903.606	0.0147070
903.684	0.0146760
903.762	0.0148898
903.840	0.0147182
903.918	0.0145348
903.996	0.0146269
904.075	0.0148017
904.153	0.0146809
904.231	0.0147147
904.309	0.0147440
904.387	0.0147566
904.465	0.0145779
904.543	0.0147235
904.621	0.0148106
904.700	0.0147301
904.778	0.0146326
904.856	0.0147069
904.934	0.0146481
905.012	0.0146359
905.090	0.0146738
905.168	0.0147347
905.246	0.0147015
905.325	0.0146741
905.403	0.0146757
905.481	0.0146671
905.559	0.0147409
905.637	0.0147097
905.715	0.0146485
905.793	0.0146697
905.871	0.0146730
905.950	0.0147900
906.028	0.0149315
906.106	0.0148313
906.184	0.0148727
906.262	0.0148283
906.340	0.0147432
906.418	0.0146568
906.496	0.0147112
906.575	0.0147337
906.653	0.0147040
906.731	0.0149213
906.809	0.0146738
906.887	0.0148122
906.965	0.0148214
907.043	0.0147198
907.121	0.0146532
907.200	0.0148431
907.278	0.0148055
907.356	0.0148412
907.434	0.0147773
907.512	0.0147488
907.590	0.0146946
907.668	0.0148711
907.746	0.0147005
907.825	0.0147997
907.903	0.0146801
907.981	0.0146299
908.059	0.0145810
908.137	0.0147413
908.215	0.0147311
908.293	0.0144544
908.371	0.0146212
908.450	0.0145782
908.528	0.0147022
908.606	0.0147029
908.684	0.0146447
908.762	0.0146111
908.840	0.0147957
908.918	0.0147679
908.996	0.0145515
909.075	0.0147730
909.153	0.0145902
909.231	0.0146481
909.309	0.0147105
909.387	0.0146577
909.465	0.0147844
909.543	0.0146230
909.621	0.0147116
909.700	0.0147057
909.778	0.0144514
909.856	0.0146024
909.934	0.0146526
910.012	0.0145814
910.090	0.0146031
910.168	0.0145765
910.246	0.0146148
910.325	0.0147289
910.403	0.0147297
910.481	0.0147692
910.559	0.0146448
910.637	0.0148152
910.715	0.0146528
910.793	0.0147046
910.871	0.0147490
910.950	0.0147376
911.028	0.0147913
911.106	0.0147568
911.184	0.0146550
911.262	0.0148321
911.340	0.0147322
911.418	0.0147885
911.496	0.0146913
911.575	0.0147340
911.653	0.0146955
911.731	0.0148064
911.809	0.0146992
911.887	0.0146288
911.965	0.0146718
912.043	0.0146667
912.121	0.0147488
912.200	0.0146205
912.278	0.0145126
912.356	0.0147520
912.434	0.0146767
912.512	0.0146585
912.590	0.0146111
912.668	0.0146727
912.746	0.0147196
912.825	0.0146370
912.903	0.0147606
912.981	0.0147345
913.059	0.0146055
913.137	0.0145749
913.215	0.0146081
913.293	0.0147378
913.371	0.0145084
913.450	0.0147243
913.528	0.0147175
913.606	0.0145778
913.684	0.0146724
913.762	0.0148352
913.840	0.0146964
913.918	0.0145012
913.996	0.0146570
914.075	0.0148090
914.153	0.0145847
914.231	0.0148082
914.309	0.0148029
914.387	0.0145739
914.465	0.0146596
914.543	0.0147256
914.621	0.0147821
914.700	0.0146324
914.778	0.0146869
914.856	0.0147979
914.934	0.0147257
915.012	0.0146608
915.090	0.0147457
915.168	0.0147284
915.246	0.0146848
915.325	0.0148830
915.403	0.0147523
915.481	0.0147176
915.559	0.0146287
915.637	0.0148077
915.715	0.0147821
915.793	0.0149420
915.871	0.0148856
915.950	0.0148663
916.028	0.0148343
916.106	0.0147157
916.184	0.0147786
916.262	0.0148409
916.340	0.0148340
916.418	0.0148891
916.496	0.0148721
916.575	0.0147833
916.653	0.0147772
916.731	0.0147668
916.809	0.0147813
916.887	0.0147394
916.965	0.0148873
917.043	0.0148423
917.121	0.0148428
917.200	0.0148306
917.278	0.0147580
917.356	0.0147909
917.434	0.0147333
917.512	0.0148441
917.590	0.0148029
917.668	0.0146878
917.746	0.0146645
917.825	0.0147855
917.903	0.0148072
917.981	0.0147565
918.059	0.0146829
918.137	0.0146957
918.215	0.0148835
918.293	0.0147986
918.371	0.0146694
918.450	0.0147917
918.528	0.0147243
918.606	0.0146743
918.684	0.0147090
918.762	0.0148440
918.840	0.0147541
918.918	0.0147384
918.996	0.0146696
919.075	0.0148080
919.153	0.0147793
919.231	0.0148681
919.309	0.0148660
919.387	0.0147775
919.465	0.0147013
919.543	0.0146999
919.621	0.0147985
919.700	0.0146391
919.778	0.0147413
919.856	0.0146592
919.934	0.0147782
920.012	0.0147548
920.090	0.0146862
920.168	0.0146767
920.246	0.0146553
920.325	0.0148301
920.403	0.0146030
920.481	0.0146712
920.559	0.0147025
920.637	0.0147942
920.715	0.0145316
920.793	0.0146199
920.871	0.0147933
920.950	0.0147250
921.028	0.0148378
921.106	0.0147366
921.184	0.0146901
921.262	0.0145838
921.340	0.0147453
921.418	0.0148201
921.496	0.0147497
921.575	0.0146842
921.653	0.0147285
921.731	0.0148042
921.809	0.0149396
921.887	0.0148930
921.965	0.0148386
922.043	0.0147504
922.121	0.0147530
922.200	0.0147265
922.278	0.0147899
922.356	0.0147490
922.434	0.0147926
922.512	0.0148686
922.590	0.0147182
922.668	0.0147918
922.746	0.0148323
922.825	0.0147661
922.903	0.0146220
922.981	0.0147411
923.059	0.0148210
923.137	0.0148268
923.215	0.0147897
923.293	0.0147588
923.371	0.0146690
923.450	0.0146587
923.528	0.0147953
923.606	0.0147871
923.684	0.0147321
923.762	0.0146003
923.840	0.0146848
923.918	0.0146484
923.996	0.0147065
924.075	0.0147246
924.153	0.0147264
924.231	0.0147134
924.309	0.0146979
924.387	0.0148085
924.465	0.0147134
924.543	0.0146571
924.621	0.0147261
924.700	0.0148001
924.778	0.0147682
924.856	0.0147517
924.934	0.0147196
925.012	0.0146114
925.090	0.0146296
925.168	0.0146507
925.246	0.0148180
925.325	0.0147081
925.403	0.0147180
925.481	0.0147781
925.559	0.0146639
925.637	0.0146122
925.715	0.0147841
925.793	0.0148304
925.871	0.0148129
925.950	0.0147642
926.028	0.0148434
926.106	0.0147369
926.184	0.0148177
926.262	0.0147948
926.340	0.0147675
926.418	0.0147895
926.496	0.0147958
926.575	0.0147139
926.653	0.0148268
926.731	0.0148422
926.809	0.0148116
926.887	0.0146254
926.965	0.0146478
927.043	0.0148069
927.121	0.0148137
927.200	0.0147658
927.278	0.0146889
927.356	0.0147231
927.434	0.0147293
927.512	0.0147102
927.590	0.0146739
927.668	0.0147588
927.746	0.0146674
927.825	0.0147555
927.903	0.0147194
927.981	0.0146736
928.059	0.0147592
928.137	0.0146455
928.215	0.0146303
928.293	0.0146259
928.371	0.0146453
928.450	0.0147529
928.528	0.0147008
928.606	0.0147772
928.684	0.0147142
928.762	0.0146430
928.840	0.0147446
928.918	0.0148017
928.996	0.0146902
929.075	0.0146770
929.153	0.0147460
929.231	0.0148357
929.309	0.0145834
929.387	0.0146519
929.465	0.0146395
929.543	0.0147890
929.621	0.0147153
929.700	0.0146288
929.778	0.0147285
929.856	0.0146747
929.934	0.0146161
930.012	0.0145377
930.090	0.0146889
930.168	0.0144930
930.246	0.0145755
930.325	0.0146573
930.403	0.0147755
930.481	0.0146355
930.559	0.0146799
930.637	0.0147036
930.715	0.0147430
930.793	0.0146667
930.871	0.0146954
930.950	0.0148154
931.028	0.0147514
931.106	0.0148102
931.184	0.0147071
931.262	0.0147748
931.340	0.0148208
931.418	0.0147475
931.496	0.0148891
931.575	0.0149576
931.653	0.0148135
931.731	0.0147582
931.809	0.0147632
931.887	0.0147848
931.965	0.0148476
932.043	0.0147361
932.121	0.0146420
932.200	0.0147585
932.278	0.0148021
932.356	0.0147190
932.434	0.0147569
932.512	0.0148408
932.590	0.0147763
932.668	0.0145383
932.746	0.0146386
932.825	0.0145982
932.903	0.0146749
932.981	0.0146002
933.059	0.0146283
933.137	0.0147621
933.215	0.0146688
933.293	0.0146564
933.371	0.0146909
933.450	0.0146856
933.528	0.0147833
933.606	0.0146673
933.684	0.0146806
933.762	0.0147037
933.840	0.0147715
933.918	0.0147959
933.996	0.0149075
934.075	0.0147727
934.153	0.0147247
934.231	0.0147231
934.309	0.0147179
934.387	0.0147040
934.465	0.0147292
934.543	0.0146294
934.621	0.0146952
934.700	0.0146959
934.778	0.0145670
934.856	0.0146626
934.934	0.0144554
935.012	0.0143969
935.090	0.0145606
935.168	0.0146759
935.246	0.0146281
935.325	0.0145698
935.403	0.0145316
935.481	0.0145858
935.559	0.0146291
935.637	0.0146200
935.715	0.0145854
935.793	0.0147041
935.871	0.0148743
935.950	0.0147579
936.028	0.0148387
936.106	0.0147289
936.184	0.0147418
936.262	0.0147781
936.340	0.0147077
936.418	0.0146460
936.496	0.0146944
936.575	0.0148143
936.653	0.0146368
936.731	0.0147112
936.809	0.0147563
936.887	0.0146690
936.965	0.0146874
937.043	0.0146880
937.121	0.0148312
937.200	0.0146643
937.278	0.0147066
937.356	0.0147287
937.434	0.0146275
937.512	0.0147544
937.590	0.0147610
937.668	0.0146180
937.746	0.0147092
937.825	0.0147135
937.903	0.0148106
937.981	0.0146265
938.059	0.0147781
938.137	0.0149538
938.215	0.0147716
938.293	0.0146883
938.371	0.0146880
938.450	0.0148464
938.528	0.0148044
938.606	0.0146906
938.684	0.0146761
938.762	0.0147895
938.840	0.0147177
938.918	0.0148326
938.996	0.0146794
939.075	0.0146832
939.153	0.0145901
939.231	0.0146746
939.309	0.0147692
939.387	0.0148013
939.465	0.0147675
939.543	0.0147707
939.621	0.0146328
939.700	0.0146698
939.778	0.0149002
939.856	0.0148489
939.934	0.0148767
940.012	0.0147552
940.090	0.0146549
940.168	0.0147752
940.246	0.0148193
940.325	0.0147994
940.403	0.0146633
940.481	0.0148338
940.559	0.0147438
940.637	0.0146931
940.715	0.0147622
940.793	0.0149006
940.871	0.0146960
940.950	0.0147332
941.028	0.0147853
941.106	0.0147016
941.184	0.0148062
941.262	0.0148231
941.340	0.0146606
941.418	0.0148716
941.496	0.0148603
941.575	0.0148273
941.653	0.0148494
941.731	0.0147562
941.809	0.0147264
941.887	0.0148208
941.965	0.0147960
942.043	0.0148399
942.121	0.0146973
942.200	0.0148104
942.278	0.0146715
942.356	0.0147417
942.434	0.0147112
942.512	0.0146960
942.590	0.0147517
942.668	0.0145480
942.746	0.0146368
942.825	0.0146206
942.903	0.0147655
942.981	0.0146667
943.059	0.0147017
943.137	0.0147208
943.215	0.0147768
943.293	0.0147917
943.371	0.0148405
943.450	0.0148008
943.528	0.0146834
943.606	0.0146363
943.684	0.0147958
943.762	0.0146539
943.840	0.0145759
943.918	0.0147952
943.996	0.0146832
944.075	0.0146395
944.153	0.0148137
944.231	0.0146932
944.309	0.0147338
944.387	0.0147318
944.465	0.0146993
944.543	0.0146548
944.621	0.0147442
944.700	0.0146548
944.778	0.0147476
944.856	0.0146154
944.934	0.0147498
945.012	0.0145992
945.090	0.0146310
945.168	0.0147408
945.246	0.0148315
945.325	0.0147142
945.403	0.0146989
945.481	0.0147473
945.559	0.0147146
945.637	0.0146212
945.715	0.0147385
945.793	0.0147791
945.871	0.0147678
945.950	0.0146779
946.028	0.0147250
946.106	0.0146869
946.184	0.0148260
946.262	0.0147291
946.340	0.0147919
946.418	0.0147947
946.496	0.0147544
946.575	0.0147158
946.653	0.0148760
946.731	0.0148676
946.809	0.0146843
946.887	0.0147680
946.965	0.0148346
947.043	0.0148718
947.121	0.0149378
947.200	0.0146885
947.278	0.0145378
947.356	0.0147398
947.434	0.0148050
947.512	0.0148917
947.590	0.0146323
947.668	0.0146116
947.746	0.0146671
947.825	0.0147225
947.903	0.0146588
947.981	0.0147251
948.059	0.0146886
948.137	0.0146874
948.215	0.0145051
948.293	0.0146909
948.371	0.0146487
948.450	0.0146505
948.528	0.0146472
948.606	0.0148125
948.684	0.0147900
948.762	0.0146798
948.840	0.0145947
948.918	0.0146734
948.996	0.0146122
949.075	0.0148636
949.153	0.0147797
949.231	0.0146861
949.309	0.0147431
949.387	0.0146793
949.465	0.0148154
949.543	0.0148097
949.621	0.0148219
949.700	0.0146623
949.778	0.0146047
949.856	0.0147011
949.934	0.0147746
950.012	0.0146709
950.090	0.0147005
950.168	0.0145718
950.246	0.0146121
950.325	0.0145451
950.403	0.0144663
950.481	0.0145847
950.559	0.0145758
950.637	0.0145236
950.715	0.0146155
950.793	0.0147144
950.871	0.0146758
950.950	0.0146264
951.028	0.0146883
951.106	0.0147327
951.184	0.0146749
951.262	0.0146579
951.340	0.0147124
951.418	0.0147321
951.496	0.0147452
951.575	0.0147392
951.653	0.0146056
951.731	0.0146677
951.809	0.0146903
951.887	0.0146896
951.965	0.0147953
952.043	0.0147614
952.121	0.0147924
952.200	0.0145471
952.278	0.0147618
952.356	0.0147069
952.434	0.0148610
952.512	0.0146488
952.590	0.0148123
952.668	0.0147584
952.746	0.0147194
952.825	0.0147836
952.903	0.0147438
952.981	0.0146589
953.059	0.0147639
953.137	0.0146845
953.215	0.0146611
953.293	0.0147441
953.371	0.0146989
953.450	0.0146796
953.528	0.0147318
953.606	0.0146834
953.684	0.0146524
953.762	0.0146317
953.840	0.0146616
953.918	0.0146023
953.996	0.0146085
954.075	0.0147073
954.153	0.0146995
954.231	0.0147217
954.309	0.0147226
954.387	0.0146935
954.465	0.0147890
954.543	0.0148099
954.621	0.0146754
954.700	0.0148461
954.778	0.0148026
954.856	0.0146333
954.934	0.0148630
955.012	0.0149502
955.090	0.0147192
955.168	0.0146137
955.246	0.0147024
955.325	0.0146215
955.403	0.0145914
955.481	0.0146651
955.559	0.0147566
955.637	0.0147986
955.715	0.0147033
955.793	0.0147911
955.871	0.0145780
955.950	0.0145276
956.028	0.0145366
956.106	0.0146672
956.184	0.0147977
956.262	0.0147440
956.340	0.0146261
956.418	0.0147835
956.496	0.0146711
956.575	0.0146507
956.653	0.0147784
956.731	0.0148179
956.809	0.0148244
956.887	0.0147471
956.965	0.0147964
957.043	0.0145085
957.121	0.0148554
957.200	0.0146980
957.278	0.0147906
957.356	0.0148723
957.434	0.0147306
957.512	0.0146225
957.590	0.0146460
957.668	0.0147400
957.746	0.0147006
957.825	0.0146199
957.903	0.0148470
957.981	0.0147468
958.059	0.0146114
958.137	0.0145873
958.215	0.0146947
958.293	0.0148753
958.371	0.0146403
958.450	0.0146236
958.528	0.0147111
958.606	0.0146786
958.684	0.0146136
958.762	0.0148769
958.840	0.0147999
958.918	0.0147562
958.996	0.0147537
959.075	0.0148017
959.153	0.0146983
959.231	0.0147101
959.309	0.0146439
959.387	0.0148466
959.465	0.0146901
959.543	0.0146754
959.621	0.0147726
959.700	0.0147851
959.778	0.0146545
959.856	0.0146180
959.934	0.0147434
960.012	0.0147553
960.090	0.0147398
960.168	0.0147864
960.246	0.0148596
960.325	0.0148479
960.403	0.0147617
960.481	0.0147540
960.559	0.0148652
960.637	0.0150200
960.715	0.0148866
960.793	0.0147422
960.871	0.0147462
960.950	0.0147420
961.028	0.0149493
961.106	0.0149146
961.184	0.0146631
961.262	0.0147320
961.340	0.0147860
961.418	0.0148141
961.496	0.0148380
961.575	0.0146855
961.653	0.0146331
961.731	0.0146664
961.809	0.0147204
961.887	0.0146427
961.965	0.0146156
962.043	0.0145505
962.121	0.0146724
962.200	0.0147100
962.278	0.0147348
962.356	0.0147130
962.434	0.0146807
962.512	0.0144724
962.590	0.0146073
962.668	0.0147514
962.746	0.0148232
962.825	0.0147066
962.903	0.0148135
962.981	0.0147460
963.059	0.0147261
963.137	0.0147749
963.215	0.0147973
963.293	0.0147412
963.371	0.0147374
963.450	0.0147229
963.528	0.0147726
963.606	0.0147330
963.684	0.0144785
963.762	0.0147207
963.840	0.0146536
963.918	0.0146413
963.996	0.0147797
964.075	0.0146618
964.153	0.0144894
964.231	0.0146304
964.309	0.0146782
964.387	0.0147337
964.465	0.0145451
964.543	0.0145925
964.621	0.0145084
964.700	0.0146666
964.778	0.0146114
964.856	0.0147541
964.934	0.0145963
965.012	0.0146109
965.090	0.0147765
965.168	0.0147311
965.246	0.0146523
965.325	0.0147190
965.403	0.0145269
965.481	0.0146669
965.559	0.0147186
965.637	0.0146483
965.715	0.0147220
965.793	0.0147938
965.871	0.0147555
965.950	0.0146738
966.028	0.0145566
966.106	0.0147248
966.184	0.0147758
966.262	0.0146895
966.340	0.0146346
966.418	0.0146146
966.496	0.0146526
966.575	0.0146288
966.653	0.0147050
966.731	0.0146355
966.809	0.0147112
966.887	0.0146005
966.965	0.0146924
967.043	0.0146935
967.121	0.0147127
967.200	0.0148006
967.278	0.0148625
967.356	0.0147455
967.434	0.0147074
967.512	0.0147499
967.590	0.0148169
967.668	0.0147289
967.746	0.0146564
967.825	0.0147012
967.903	0.0146899
967.981	0.0146661
968.059	0.0146430
968.137	0.0145769
968.215	0.0147000
968.293	0.0146094
968.371	0.0147898
968.450	0.0148061
968.528	0.0147928
968.606	0.0146456
968.684	0.0146551
968.762	0.0147530
968.840	0.0148337
968.918	0.0147723
968.996	0.0146820
969.075	0.0148063
969.153	0.0147412
969.231	0.0148041
969.309	0.0147958
969.387	0.0147740
969.465	0.0147201
969.543	0.0146645
969.621	0.0147256
969.700	0.0147910
969.778	0.0147591
969.856	0.0148053
969.934	0.0149149
970.012	0.0146861
970.090	0.0146471
970.168	0.0146914
970.246	0.0147043
970.325	0.0147794
970.403	0.0148038
970.481	0.0148630
970.559	0.0148193
970.637	0.0147277
970.715	0.0147973
970.793	0.0147442
970.871	0.0147697
970.950	0.0148872
971.028	0.0146385
971.106	0.0146450
971.184	0.0148007
971.262	0.0146667
971.340	0.0148537
971.418	0.0147358
971.496	0.0146959
971.575	0.0147854
971.653	0.0146282
971.731	0.0147007
971.809	0.0147263
971.887	0.0147524
971.965	0.0148189
972.043	0.0148059
972.121	0.0146867
972.200	0.0146779
972.278	0.0147178
972.356	0.0146793
972.434	0.0147291
972.512	0.0148717
972.590	0.0146658
972.668	0.0146462
972.746	0.0147066
972.825	0.0147374
972.903	0.0148621
972.981	0.0147037
973.059	0.0148449
973.137	0.0148657
973.215	0.0147530
973.293	0.0147356
973.371	0.0146966
973.450	0.0147890
973.528	0.0147034
973.606	0.0147903
973.684	0.0148183
973.762	0.0148431
973.840	0.0148033
973.918	0.0147743
973.996	0.0146111
974.075	0.0148121
974.153	0.0147343
974.231	0.0147651
974.309	0.0147999
974.387	0.0147393
974.465	0.0147162
974.543	0.0147892
974.621	0.0146285
974.700	0.0145554
974.778	0.0148003
974.856	0.0148192
974.934	0.0146860
975.012	0.0147790
975.090	0.0146236
975.168	0.0147134
975.246	0.0147208
975.325	0.0148642
975.403	0.0148258
975.481	0.0147549
975.559	0.0146537
975.637	0.0148624
975.715	0.0148323
975.793	0.0147974
975.871	0.0147781
975.950	0.0147888
976.028	0.0147353
976.106	0.0148531
976.184	0.0147735
976.262	0.0147586
976.340	0.0147112
976.418	0.0147599
976.496	0.0148013
976.575	0.0146710
976.653	0.0147752
976.731	0.0147005
976.809	0.0146976
976.887	0.0147834
976.965	0.0146633
977.043	0.0148551
977.121	0.0147658
977.200	0.0147382
977.278	0.0147023
977.356	0.0147457
977.434	0.0148328
977.512	0.0147505
977.590	0.0146646
977.668	0.0149757
977.746	0.0148399
977.825	0.0146957
977.903	0.0148421
977.981	0.0148020
978.059	0.0147473
978.137	0.0146574
978.215	0.0148260
978.293	0.0146329
978.371	0.0148270
978.450	0.0147248
978.528	0.0148094
978.606	0.0148067
978.684	0.0147099
978.762	0.0146307
978.840	0.0147202
978.918	0.0147511
978.996	0.0147140
979.075	0.0147659
979.153	0.0147766
979.231	0.0146040
979.309	0.0147394
979.387	0.0148219
979.465	0.0146990
979.543	0.0148016
979.621	0.0146764
979.700	0.0147048
979.778	0.0147281
979.856	0.0147232
979.934	0.0147823
980.012	0.0147694
980.090	0.0147190
980.168	0.0146494
980.246	0.0148129
980.325	0.0148377
980.403	0.0148560
980.481	0.0148075
980.559	0.0148102
980.637	0.0149057
980.715	0.0147768
980.793	0.0148267
980.871	0.0147955
980.950	0.0148081
981.028	0.0147525
981.106	0.0147279
981.184	0.0147418
981.262	0.0147180
981.340	0.0146500
981.418	0.0146519
981.496	0.0147892
981.575	0.0146996
981.653	0.0146169
981.731	0.0147349
981.809	0.0146499
981.887	0.0146339
981.965	0.0145700
982.043	0.0146431
982.121	0.0146645
982.200	0.0146439
982.278	0.0147066
982.356	0.0147601
982.434	0.0148222
982.512	0.0148013
982.590	0.0147803
982.668	0.0147105
982.746	0.0148452
982.825	0.0148634
982.903	0.0146462
982.981	0.0149140
983.059	0.0148925
983.137	0.0148092
983.215	0.0148808
983.293	0.0148815
983.371	0.0147294
983.450	0.0148720
983.528	0.0148862
983.606	0.0147524
983.684	0.0147590
983.762	0.0147535
983.840	0.0147173
983.918	0.0148412
983.996	0.0146215
984.075	0.0147022
984.153	0.0146362
984.231	0.0147601
984.309	0.0147796
984.387	0.0146513
984.465	0.0146563
984.543	0.0147449
984.621	0.0147564
984.700	0.0147084
984.778	0.0146830
984.856	0.0146397
984.934	0.0147674
985.012	0.0147463
985.090	0.0147226
985.168	0.0147978
985.246	0.0148061
985.325	0.0147582
985.403	0.0147963
985.481	0.0146841
985.559	0.0148327
985.637	0.0148423
985.715	0.0147987
985.793	0.0150361
985.871	0.0149560
985.950	0.0148229
986.028	0.0149300
986.106	0.0148541
986.184	0.0147360
986.262	0.0149287
986.340	0.0148463
986.418	0.0147804
986.496	0.0146607
986.575	0.0146348
986.653	0.0146682
986.731	0.0146870
986.809	0.0146603
986.887	0.0147474
986.965	0.0146682
987.043	0.0146622
987.121	0.0147130
987.200	0.0146102
987.278	0.0146558
987.356	0.0145631
987.434	0.0146233
987.512	0.0145574
987.590	0.0144884
987.668	0.0146601
987.746	0.0147200
987.825	0.0145023
987.903	0.0146505
987.981	0.0147083
988.059	0.0146845
988.137	0.0147794
988.215	0.0147333
988.293	0.0147475
988.371	0.0147144
988.450	0.0146000
988.528	0.0148121
988.606	0.0148419
988.684	0.0148537
988.762	0.0148901
988.840	0.0148000
988.918	0.0147027
988.996	0.0149036
989.075	0.0147401
989.153	0.0148891
989.231	0.0148224
989.309	0.0147195
989.387	0.0147375
989.465	0.0145854
989.543	0.0147975
989.621	0.0146269
989.700	0.0147713
989.778	0.0147839
989.856	0.0146923
989.934	0.0145407
990.012	0.0146381
990.090	0.0146210
990.168	0.0147047
990.246	0.0147062
990.325	0.0147844
990.403	0.0146664
990.481	0.0146375
990.559	0.0147170
990.637	0.0147842
990.715	0.0146373
990.793	0.0146963
990.871	0.0147637
990.950	0.0147187
991.028	0.0148897
991.106	0.0147073
991.184	0.0145355
991.262	0.0146796
991.340	0.0147182
991.418	0.0147380
991.496	0.0147114
991.575	0.0147443
991.653	0.0147403
991.731	0.0147543
991.809	0.0147305
991.887	0.0146487
991.965	0.0147121
992.043	0.0146920
992.121	0.0147704
992.200	0.0148384
992.278	0.0146782
992.356	0.0148019
992.434	0.0147298
992.512	0.0146520
992.590	0.0147855
992.668	0.0148798
992.746	0.0148062
992.825	0.0147062
992.903	0.0145864
992.981	0.0147041
993.059	0.0146835
993.137	0.0147257
993.215	0.0148001
993.293	0.0147183
993.371	0.0145389
993.450	0.0146738
993.528	0.0147646
993.606	0.0146136
993.684	0.0144981
993.762	0.0146563
993.840	0.0148122
993.918	0.0147111
993.996	0.0147150
994.075	0.0146624
994.153	0.0147962
994.231	0.0148814
994.309	0.0148453
994.387	0.0147125
994.465	0.0149000
994.543	0.0147993
994.621	0.0147926
994.700	0.0149323
994.778	0.0148379
994.856	0.0147526
994.934	0.0146492
995.012	0.0147971
995.090	0.0148013
995.168	0.0147599
995.246	0.0147752
995.325	0.0146928
995.403	0.0147390
995.481	0.0147372
995.559	0.0147459
995.637	0.0147253
995.715	0.0145979
995.793	0.0147546
995.871	0.0148663
995.950	0.0145788
996.028	0.0145059
996.106	0.0146337
996.184	0.0146159
996.262	0.0146979
996.340	0.0146279
996.418	0.0145384
996.496	0.0145803
996.575	0.0146404
996.653	0.0147091
996.731	0.0146615
996.809	0.0146076
996.887	0.0147250
996.965	0.0148295
997.043	0.0147741
997.121	0.0146516
997.200	0.0147342
997.278	0.0148051
997.356	0.0147412
997.434	0.0147356
997.512	0.0148626
997.590	0.0147261
997.668	0.0147938
997.746	0.0148473
997.825	0.0148896
997.903	0.0148022
997.981	0.0148102
998.059	0.0147393
998.137	0.0147115
998.215	0.0146463
998.293	0.0146272
998.371	0.0146848
998.450	0.0146751
998.528	0.0146754
998.606	0.0146389
998.684	0.0145388
998.762	0.0146324
998.840	0.0145333
998.918	0.0145695
