05/04/2022	21:31:13	Ver.	4.1	UNKNOWN
Optical Delay	678.996401	Delta X		0.078125	Sweeps	1	Scan Rate	0/0
Coordinates	Axis 1	NaN	Axis 2	NaN	Axis 3	NaN	Axis 4	NaN	Axis 5	NaN	Axis 6	0.000000
TX Power	0.000000	RX Power	0.000000

678.996	0.0145228
679.075	0.0144725
679.153	0.0145703
679.231	0.0145865
679.309	0.0146129
679.387	0.0146168
679.465	0.0146089
679.543	0.0145047
679.621	0.0143947
679.700	0.0143882
679.778	0.0144582
679.856	0.0146144
679.934	0.0144225
680.012	0.0144527
680.090	0.0144115
680.168	0.0145102
680.246	0.0145735
680.325	0.0144173
680.403	0.0144475
680.481	0.0146144
680.559	0.0147321
680.637	0.0145638
680.715	0.0145229
680.793	0.0146750
680.871	0.0144772
680.950	0.0144860
681.028	0.0144849
681.106	0.0145551
681.184	0.0145801
681.262	0.0146012
681.340	0.0145094
681.418	0.0147159
681.496	0.0146659
681.575	0.0145030
681.653	0.0145986
681.731	0.0144464
681.809	0.0145057
681.887	0.0146507
681.965	0.0146774
682.043	0.0145779
682.121	0.0145061
682.200	0.0143513
682.278	0.0145409
682.356	0.0143417
682.434	0.0145295
682.512	0.0145717
682.590	0.0143803
682.668	0.0144231
682.746	0.0144758
682.825	0.0144543
682.903	0.0144454
682.981	0.0144631
683.059	0.0144846
683.137	0.0146011
683.215	0.0145454
683.293	0.0144656
683.371	0.0144990
683.450	0.0145918
683.528	0.0145520
683.606	0.0145557
683.684	0.0145431
683.762	0.0145632
683.840	0.0146532
683.918	0.0146436
683.996	0.0144509
684.075	0.0145953
684.153	0.0146006
684.231	0.0147434
684.309	0.0145070
684.387	0.0145518
684.465	0.0144597
684.543	0.0144927
684.621	0.0144481
684.700	0.0145299
684.778	0.0144250
684.856	0.0144096
684.934	0.0145139
685.012	0.0145202
685.090	0.0143281
685.168	0.0143694
685.246	0.0143803
685.325	0.0144941
685.403	0.0144341
685.481	0.0142822
685.559	0.0143958
685.637	0.0144542
685.715	0.0143668
685.793	0.0145010
685.871	0.0145903
685.950	0.0144731
686.028	0.0146640
686.106	0.0146226
686.184	0.0146278
686.262	0.0146664
686.340	0.0146591
686.418	0.0145609
686.496	0.0145188
686.575	0.0146503
686.653	0.0146852
686.731	0.0146725
686.809	0.0145865
686.887	0.0147118
686.965	0.0146591
687.043	0.0146288
687.121	0.0146764
687.200	0.0146957
687.278	0.0146680
687.356	0.0145628
687.434	0.0145063
687.512	0.0144543
687.590	0.0142493
687.668	0.0141935
687.746	0.0143719
687.825	0.0142916
687.903	0.0143316
687.981	0.0143243
688.059	0.0143387
688.137	0.0142600
688.215	0.0142378
688.293	0.0144312
688.371	0.0144741
688.450	0.0143672
688.528	0.0144629
688.606	0.0145284
688.684	0.0145776
688.762	0.0145946
688.840	0.0146539
688.918	0.0145934
688.996	0.0148331
689.075	0.0149495
689.153	0.0150089
689.231	0.0149124
689.309	0.0150244
689.387	0.0148176
689.465	0.0148830
689.543	0.0145463
689.621	0.0144534
689.700	0.0144205
689.778	0.0143169
689.856	0.0142926
689.934	0.0141880
690.012	0.0141659
690.090	0.0141782
690.168	0.0140024
690.246	0.0140358
690.325	0.0141102
690.403	0.0140974
690.481	0.0139946
690.559	0.0140574
690.637	0.0143393
690.715	0.0143291
690.793	0.0143885
690.871	0.0145226
690.950	0.0147092
691.028	0.0146207
691.106	0.0148499
691.184	0.0148726
691.262	0.0147365
691.340	0.0145484
691.418	0.0148022
691.496	0.0146978
691.575	0.0148035
691.653	0.0148374
691.731	0.0147929
691.809	0.0146874
691.887	0.0147581
691.965	0.0147063
692.043	0.0147722
692.121	0.0148907
692.200	0.0147675
692.278	0.0146566
692.356	0.0146843
692.434	0.0145837
692.512	0.0143597
692.590	0.0143407
692.668	0.0143994
692.746	0.0142646
692.825	0.0141205
692.903	0.0140009
692.981	0.0139586
693.059	0.0138633
693.137	0.0137647
693.215	0.0137375
693.293	0.0139414
693.371	0.0139766
693.450	0.0140149
693.528	0.0140614
693.606	0.0141991
693.684	0.0144371
693.762	0.0145380
693.840	0.0145253
693.918	0.0148352
693.996	0.0149082
694.075	0.0149341
694.153	0.0148586
694.231	0.0148893
694.309	0.0150164
694.387	0.0148730
694.465	0.0149903
694.543	0.0149403
694.621	0.0148515
694.700	0.0148805
694.778	0.0147375
694.856	0.0147885
694.934	0.0146548
695.012	0.0147581
695.090	0.0147037
695.168	0.0144982
695.246	0.0143959
695.325	0.0143259
695.403	0.0143938
695.481	0.0143578
695.559	0.0142256
695.637	0.0143166
695.715	0.0141991
695.793	0.0140849
695.871	0.0141258
695.950	0.0141174
696.028	0.0141719
696.106	0.0139967
696.184	0.0138963
696.262	0.0139847
696.340	0.0140762
696.418	0.0139235
696.496	0.0139523
696.575	0.0142427
696.653	0.0143407
696.731	0.0142590
696.809	0.0144474
696.887	0.0146964
696.965	0.0149387
697.043	0.0151003
697.121	0.0154235
697.200	0.0151644
697.278	0.0151503
697.356	0.0151949
697.434	0.0150511
697.512	0.0149616
697.590	0.0149462
697.668	0.0149317
697.746	0.0147807
697.825	0.0146552
697.903	0.0146236
697.981	0.0145601
698.059	0.0145018
698.137	0.0144680
698.215	0.0142854
698.293	0.0141405
698.371	0.0141293
698.450	0.0142024
698.528	0.0140377
698.606	0.0141318
698.684	0.0139871
698.762	0.0141149
698.840	0.0141453
698.918	0.0142471
698.996	0.0144283
699.075	0.0144735
699.153	0.0144362
699.231	0.0144228
699.309	0.0144967
699.387	0.0145566
699.465	0.0143937
699.543	0.0144593
699.621	0.0143651
699.700	0.0143723
699.778	0.0143862
699.856	0.0143912
699.934	0.0145555
700.012	0.0144518
700.090	0.0146423
700.168	0.0144659
700.246	0.0147009
700.325	0.0146849
700.403	0.0146022
700.481	0.0145175
700.559	0.0144779
700.637	0.0146011
700.715	0.0144791
700.793	0.0145985
700.871	0.0146021
700.950	0.0146703
701.028	0.0146567
701.106	0.0146333
701.184	0.0146553
701.262	0.0145978
701.340	0.0146035
701.418	0.0145795
701.496	0.0146452
701.575	0.0143945
701.653	0.0144848
701.731	0.0145101
701.809	0.0144279
701.887	0.0143610
701.965	0.0143640
702.043	0.0144318
702.121	0.0143733
702.200	0.0143995
702.278	0.0145347
702.356	0.0144896
702.434	0.0146275
702.512	0.0146184
702.590	0.0146204
702.668	0.0146474
702.746	0.0145793
702.825	0.0144908
702.903	0.0145654
702.981	0.0145749
703.059	0.0146738
703.137	0.0144766
703.215	0.0144148
703.293	0.0143774
703.371	0.0143929
703.450	0.0143851
703.528	0.0145108
703.606	0.0143567
703.684	0.0144585
703.762	0.0146401
703.840	0.0145917
703.918	0.0148315
703.996	0.0147644
704.075	0.0148569
704.153	0.0147945
704.231	0.0148465
704.309	0.0148006
704.387	0.0147740
704.465	0.0148133
704.543	0.0146511
704.621	0.0143827
704.700	0.0143692
704.778	0.0141642
704.856	0.0141850
704.934	0.0141823
705.012	0.0141833
705.090	0.0140943
705.168	0.0142146
705.246	0.0144081
705.325	0.0144458
705.403	0.0144981
705.481	0.0144197
705.559	0.0145979
705.637	0.0146366
705.715	0.0145471
705.793	0.0146189
705.871	0.0147095
705.950	0.0147090
706.028	0.0147633
706.106	0.0145278
706.184	0.0144159
706.262	0.0145104
706.340	0.0144445
706.418	0.0143808
706.496	0.0145919
706.575	0.0144367
706.653	0.0145697
706.731	0.0145280
706.809	0.0145988
706.887	0.0145617
706.965	0.0146066
707.043	0.0146677
707.121	0.0146408
707.200	0.0146837
707.278	0.0146129
707.356	0.0145786
707.434	0.0144507
707.512	0.0145271
707.590	0.0145042
707.668	0.0144051
707.746	0.0144304
707.825	0.0144391
707.903	0.0143687
707.981	0.0143509
708.059	0.0143321
708.137	0.0144164
708.215	0.0142964
708.293	0.0144501
708.371	0.0143391
708.450	0.0145920
708.528	0.0145478
708.606	0.0146937
708.684	0.0147603
708.762	0.0148430
708.840	0.0147670
708.918	0.0147953
708.996	0.0149500
709.075	0.0149960
709.153	0.0147573
709.231	0.0149018
709.309	0.0147502
709.387	0.0146877
709.465	0.0146007
709.543	0.0144952
709.621	0.0145318
709.700	0.0145220
709.778	0.0144481
709.856	0.0143896
709.934	0.0143661
710.012	0.0145380
710.090	0.0143079
710.168	0.0143221
710.246	0.0143272
710.325	0.0143695
710.403	0.0143542
710.481	0.0142208
710.559	0.0141462
710.637	0.0143088
710.715	0.0143558
710.793	0.0144085
710.871	0.0143970
710.950	0.0143681
711.028	0.0144031
711.106	0.0144848
711.184	0.0145698
711.262	0.0146488
711.340	0.0146837
711.418	0.0145551
711.496	0.0145718
711.575	0.0146232
711.653	0.0146236
711.731	0.0146245
711.809	0.0147495
711.887	0.0147330
711.965	0.0146455
712.043	0.0145352
712.121	0.0146655
712.200	0.0147533
712.278	0.0145497
712.356	0.0148302
712.434	0.0147963
712.512	0.0146746
712.590	0.0146812
712.668	0.0146895
712.746	0.0148801
712.825	0.0147841
712.903	0.0145846
712.981	0.0147036
713.059	0.0147198
713.137	0.0144714
713.215	0.0144113
713.293	0.0141301
713.371	0.0141940
713.450	0.0140689
713.528	0.0141883
713.606	0.0139811
713.684	0.0140749
713.762	0.0142506
713.840	0.0143640
713.918	0.0143591
713.996	0.0144634
714.075	0.0145361
714.153	0.0146608
714.231	0.0145747
714.309	0.0145519
714.387	0.0146033
714.465	0.0146393
714.543	0.0146010
714.621	0.0145561
714.700	0.0143947
714.778	0.0144418
714.856	0.0144627
714.934	0.0143924
715.012	0.0143140
715.090	0.0144014
715.168	0.0145055
715.246	0.0143333
715.325	0.0144559
715.403	0.0145399
715.481	0.0145934
715.559	0.0145525
715.637	0.0146822
715.715	0.0147855
715.793	0.0147986
715.871	0.0146156
715.950	0.0147039
716.028	0.0147111
716.106	0.0147517
716.184	0.0146913
716.262	0.0146411
716.340	0.0145390
716.418	0.0144556
716.496	0.0144314
716.575	0.0143813
716.653	0.0142107
716.731	0.0142457
716.809	0.0141421
716.887	0.0142118
716.965	0.0143088
717.043	0.0143965
717.121	0.0142577
717.200	0.0143410
717.278	0.0143263
717.356	0.0141804
717.434	0.0141669
717.512	0.0141799
717.590	0.0143714
717.668	0.0143679
717.746	0.0144075
717.825	0.0144903
717.903	0.0145028
717.981	0.0144345
718.059	0.0145898
718.137	0.0145314
718.215	0.0146489
718.293	0.0146753
718.371	0.0146552
718.450	0.0147153
718.528	0.0148047
718.606	0.0149119
718.684	0.0147004
718.762	0.0146979
718.840	0.0148100
718.918	0.0147581
718.996	0.0147945
719.075	0.0147231
719.153	0.0146787
719.231	0.0147803
719.309	0.0144537
719.387	0.0144895
719.465	0.0145894
719.543	0.0144673
719.621	0.0144147
719.700	0.0143301
719.778	0.0145074
719.856	0.0143685
719.934	0.0143726
720.012	0.0144920
720.090	0.0144331
720.168	0.0142473
720.246	0.0144511
720.325	0.0143433
720.403	0.0143049
720.481	0.0144218
720.559	0.0142685
720.637	0.0143496
720.715	0.0142622
720.793	0.0143243
720.871	0.0144415
720.950	0.0144106
721.028	0.0146454
721.106	0.0145817
721.184	0.0144977
721.262	0.0145351
721.340	0.0145462
721.418	0.0145726
721.496	0.0146618
721.575	0.0146937
721.653	0.0147275
721.731	0.0145781
721.809	0.0145197
721.887	0.0144607
721.965	0.0144976
722.043	0.0144457
722.121	0.0143552
722.200	0.0143581
722.278	0.0143587
722.356	0.0143740
722.434	0.0143951
722.512	0.0143826
722.590	0.0145480
722.668	0.0145540
722.746	0.0147184
722.825	0.0145126
722.903	0.0146217
722.981	0.0146746
723.059	0.0146773
723.137	0.0147312
723.215	0.0147152
723.293	0.0146762
723.371	0.0147114
723.450	0.0146792
723.528	0.0146457
723.606	0.0144682
723.684	0.0144399
723.762	0.0145319
723.840	0.0144562
723.918	0.0143520
723.996	0.0142838
724.075	0.0143606
724.153	0.0143536
724.231	0.0144378
724.309	0.0142992
724.387	0.0143156
724.465	0.0142105
724.543	0.0142129
724.621	0.0141926
724.700	0.0142716
724.778	0.0144433
724.856	0.0142473
724.934	0.0141049
725.012	0.0142446
725.090	0.0141823
725.168	0.0143320
725.246	0.0144847
725.325	0.0144455
725.403	0.0145565
725.481	0.0147418
725.559	0.0148240
725.637	0.0147351
725.715	0.0147804
725.793	0.0147302
725.871	0.0148554
725.950	0.0147558
726.028	0.0146746
726.106	0.0148503
726.184	0.0148178
726.262	0.0147363
726.340	0.0146366
726.418	0.0146619
726.496	0.0145502
726.575	0.0145303
726.653	0.0144070
726.731	0.0144043
726.809	0.0145499
726.887	0.0143695
726.965	0.0143510
727.043	0.0144106
727.121	0.0144091
727.200	0.0141679
727.278	0.0141792
727.356	0.0143615
727.434	0.0142345
727.512	0.0142524
727.590	0.0142968
727.668	0.0142566
727.746	0.0143572
727.825	0.0145303
727.903	0.0145784
727.981	0.0145248
728.059	0.0145015
728.137	0.0146352
728.215	0.0146914
728.293	0.0146575
728.371	0.0146017
728.450	0.0146633
728.528	0.0145848
728.606	0.0146013
728.684	0.0147418
728.762	0.0146142
728.840	0.0146151
728.918	0.0145177
728.996	0.0144886
729.075	0.0145918
729.153	0.0145401
729.231	0.0144249
729.309	0.0145277
729.387	0.0144763
729.465	0.0144037
729.543	0.0143929
729.621	0.0143037
729.700	0.0144534
729.778	0.0143922
729.856	0.0142085
729.934	0.0141887
730.012	0.0144189
730.090	0.0143894
730.168	0.0144576
730.246	0.0144495
730.325	0.0143728
730.403	0.0145119
730.481	0.0145319
730.559	0.0145882
730.637	0.0146700
730.715	0.0146801
730.793	0.0146770
730.871	0.0147703
730.950	0.0147633
731.028	0.0146191
731.106	0.0146698
731.184	0.0146557
731.262	0.0145287
731.340	0.0144814
731.418	0.0145044
731.496	0.0145444
731.575	0.0144469
731.653	0.0144053
731.731	0.0142744
731.809	0.0143771
731.887	0.0145083
731.965	0.0143267
732.043	0.0141879
732.121	0.0143578
732.200	0.0145029
732.278	0.0143460
732.356	0.0143128
732.434	0.0143244
732.512	0.0145003
732.590	0.0144608
732.668	0.0145227
732.746	0.0145597
732.825	0.0146355
732.903	0.0145229
732.981	0.0145544
733.059	0.0147977
733.137	0.0148393
733.215	0.0147742
733.293	0.0148283
733.371	0.0147568
733.450	0.0146708
733.528	0.0147112
733.606	0.0149198
733.684	0.0147034
733.762	0.0145703
733.840	0.0146550
733.918	0.0145548
733.996	0.0144400
734.075	0.0142300
734.153	0.0142266
734.231	0.0141664
734.309	0.0143011
734.387	0.0141228
734.465	0.0142310
734.543	0.0142798
734.621	0.0141408
734.700	0.0141548
734.778	0.0143170
734.856	0.0143033
734.934	0.0144196
735.012	0.0145600
735.090	0.0146169
735.168	0.0146300
735.246	0.0146569
735.325	0.0147516
735.403	0.0147433
735.481	0.0148737
735.559	0.0148302
735.637	0.0147079
735.715	0.0147018
735.793	0.0148444
735.871	0.0147301
735.950	0.0146973
736.028	0.0145872
736.106	0.0147202
736.184	0.0145835
736.262	0.0145600
736.340	0.0144560
736.418	0.0145422
736.496	0.0145679
736.575	0.0145041
736.653	0.0143617
736.731	0.0145279
736.809	0.0144588
736.887	0.0144036
736.965	0.0143926
737.043	0.0143722
737.121	0.0143760
737.200	0.0141675
737.278	0.0142307
737.356	0.0142936
737.434	0.0143461
737.512	0.0142883
737.590	0.0144292
737.668	0.0144740
737.746	0.0144717
737.825	0.0145840
737.903	0.0145634
737.981	0.0146858
738.059	0.0146265
738.137	0.0148313
738.215	0.0148548
738.293	0.0148713
738.371	0.0148721
738.450	0.0148064
738.528	0.0148164
738.606	0.0148011
738.684	0.0147342
738.762	0.0146976
738.840	0.0148464
738.918	0.0147161
738.996	0.0146049
739.075	0.0144939
739.153	0.0145103
739.231	0.0144785
739.309	0.0143565
739.387	0.0144287
739.465	0.0144684
739.543	0.0144633
739.621	0.0144000
739.700	0.0143790
739.778	0.0145288
739.856	0.0145014
739.934	0.0145329
740.012	0.0145076
740.090	0.0143431
740.168	0.0145600
740.246	0.0145680
740.325	0.0144670
740.403	0.0145123
740.481	0.0145049
740.559	0.0145480
740.637	0.0146511
740.715	0.0146311
740.793	0.0146243
740.871	0.0145926
740.950	0.0145333
741.028	0.0147316
741.106	0.0145804
741.184	0.0145444
741.262	0.0145238
741.340	0.0145535
741.418	0.0142953
741.496	0.0143856
741.575	0.0144444
741.653	0.0143723
741.731	0.0143524
741.809	0.0145218
741.887	0.0144234
741.965	0.0144991
742.043	0.0145078
742.121	0.0142891
742.200	0.0144411
742.278	0.0145126
742.356	0.0145258
742.434	0.0145308
742.512	0.0145795
742.590	0.0145314
742.668	0.0144611
742.746	0.0144274
742.825	0.0146962
742.903	0.0145592
742.981	0.0145918
743.059	0.0145584
743.137	0.0146601
743.215	0.0146262
743.293	0.0146326
743.371	0.0146522
743.450	0.0146277
743.528	0.0145021
743.606	0.0146651
743.684	0.0146515
743.762	0.0144650
743.840	0.0144870
743.918	0.0145658
743.996	0.0145820
744.075	0.0145083
744.153	0.0144523
744.231	0.0143858
744.309	0.0145718
744.387	0.0143022
744.465	0.0144125
744.543	0.0144820
744.621	0.0144277
744.700	0.0146018
744.778	0.0143896
744.856	0.0144254
744.934	0.0143137
745.012	0.0144833
745.090	0.0144949
745.168	0.0145531
745.246	0.0145824
745.325	0.0144376
745.403	0.0145173
745.481	0.0144930
745.559	0.0146172
745.637	0.0146126
745.715	0.0147041
745.793	0.0146212
745.871	0.0144832
745.950	0.0147507
746.028	0.0146616
746.106	0.0146326
746.184	0.0146416
746.262	0.0146671
746.340	0.0146891
746.418	0.0145978
746.496	0.0145205
746.575	0.0145569
746.653	0.0144386
746.731	0.0143813
746.809	0.0142938
746.887	0.0144941
746.965	0.0144885
747.043	0.0144418
747.121	0.0142626
747.200	0.0142146
747.278	0.0143639
747.356	0.0143457
747.434	0.0143010
747.512	0.0142852
747.590	0.0143233
747.668	0.0143046
747.746	0.0143199
747.825	0.0144244
747.903	0.0143592
747.981	0.0143852
748.059	0.0144370
748.137	0.0145699
748.215	0.0144919
748.293	0.0144505
748.371	0.0145526
748.450	0.0146113
748.528	0.0144801
748.606	0.0145907
748.684	0.0144709
748.762	0.0144967
748.840	0.0146424
748.918	0.0146255
748.996	0.0145523
749.075	0.0144912
749.153	0.0145308
749.231	0.0144638
749.309	0.0144645
749.387	0.0144832
749.465	0.0144009
749.543	0.0144775
749.621	0.0143682
749.700	0.0144353
749.778	0.0143504
749.856	0.0143367
749.934	0.0144012
750.012	0.0143697
750.090	0.0144621
750.168	0.0143644
750.246	0.0143340
750.325	0.0143620
750.403	0.0144241
750.481	0.0144775
750.559	0.0145459
750.637	0.0145129
750.715	0.0145299
750.793	0.0144971
750.871	0.0145256
750.950	0.0146049
751.028	0.0145652
751.106	0.0144662
751.184	0.0144563
751.262	0.0145911
751.340	0.0145293
751.418	0.0145181
751.496	0.0146046
751.575	0.0145107
751.653	0.0144570
751.731	0.0145110
751.809	0.0144939
751.887	0.0144019
751.965	0.0144709
752.043	0.0144891
752.121	0.0144499
752.200	0.0144594
752.278	0.0142170
752.356	0.0143601
752.434	0.0144139
752.512	0.0143658
752.590	0.0143736
752.668	0.0144633
752.746	0.0143513
752.825	0.0143997
752.903	0.0144419
752.981	0.0145236
753.059	0.0144964
753.137	0.0144112
753.215	0.0143533
753.293	0.0145226
753.371	0.0145120
753.450	0.0146455
753.528	0.0145372
753.606	0.0144459
753.684	0.0145518
753.762	0.0145119
753.840	0.0146402
753.918	0.0145768
753.996	0.0146239
754.075	0.0145229
754.153	0.0145896
754.231	0.0146323
754.309	0.0144255
754.387	0.0144846
754.465	0.0144001
754.543	0.0145123
754.621	0.0144206
754.700	0.0144222
754.778	0.0144338
754.856	0.0142725
754.934	0.0143526
755.012	0.0144308
755.090	0.0144376
755.168	0.0144395
755.246	0.0144016
755.325	0.0145502
755.403	0.0144378
755.481	0.0144194
755.559	0.0145893
755.637	0.0146333
755.715	0.0145494
755.793	0.0145219
755.871	0.0145155
755.950	0.0145791
756.028	0.0145311
756.106	0.0145332
756.184	0.0144178
756.262	0.0144247
756.340	0.0145567
756.418	0.0146088
756.496	0.0145721
756.575	0.0145495
756.653	0.0146246
756.731	0.0143534
756.809	0.0144507
756.887	0.0146167
756.965	0.0146082
757.043	0.0144898
757.121	0.0144700
757.200	0.0145245
757.278	0.0144156
757.356	0.0145568
757.434	0.0145412
757.512	0.0145108
757.590	0.0144248
757.668	0.0145383
757.746	0.0145435
757.825	0.0143946
757.903	0.0144603
757.981	0.0145019
758.059	0.0145407
758.137	0.0143614
758.215	0.0145226
758.293	0.0145702
758.371	0.0145101
758.450	0.0143334
758.528	0.0145460
758.606	0.0146084
758.684	0.0146260
758.762	0.0144775
758.840	0.0145376
758.918	0.0146429
758.996	0.0147474
759.075	0.0145422
759.153	0.0147167
759.231	0.0146143
759.309	0.0146138
759.387	0.0145976
759.465	0.0146262
759.543	0.0146021
759.621	0.0145099
759.700	0.0144598
759.778	0.0145031
759.856	0.0144468
759.934	0.0144762
760.012	0.0144882
760.090	0.0145366
760.168	0.0145164
760.246	0.0144411
760.325	0.0144365
760.403	0.0144151
760.481	0.0143884
760.559	0.0144168
760.637	0.0145246
760.715	0.0145765
760.793	0.0144707
760.871	0.0143910
760.950	0.0144832
761.028	0.0144500
761.106	0.0144906
761.184	0.0146188
761.262	0.0146120
761.340	0.0146739
761.418	0.0145444
761.496	0.0144912
761.575	0.0145532
761.653	0.0146281
761.731	0.0145837
761.809	0.0144967
761.887	0.0144847
761.965	0.0146091
762.043	0.0144836
762.121	0.0144090
762.200	0.0144652
762.278	0.0144963
762.356	0.0144433
762.434	0.0144345
762.512	0.0145379
762.590	0.0144416
762.668	0.0145148
762.746	0.0146049
762.825	0.0146109
762.903	0.0145940
762.981	0.0146394
763.059	0.0146399
763.137	0.0144238
763.215	0.0145962
763.293	0.0145485
763.371	0.0146081
763.450	0.0145732
763.528	0.0144849
763.606	0.0145572
763.684	0.0144484
763.762	0.0144092
763.840	0.0145935
763.918	0.0143559
763.996	0.0144180
764.075	0.0145084
764.153	0.0143819
764.231	0.0144506
764.309	0.0143282
764.387	0.0143821
764.465	0.0144285
764.543	0.0144171
764.621	0.0143462
764.700	0.0143131
764.778	0.0143829
764.856	0.0145115
764.934	0.0144226
765.012	0.0144803
765.090	0.0145504
765.168	0.0146161
765.246	0.0144103
765.325	0.0144122
765.403	0.0144848
765.481	0.0145038
765.559	0.0146432
765.637	0.0144530
765.715	0.0144805
765.793	0.0145398
765.871	0.0144201
765.950	0.0144232
766.028	0.0145408
766.106	0.0145269
766.184	0.0143993
766.262	0.0145601
766.340	0.0145076
766.418	0.0145680
766.496	0.0144914
766.575	0.0144853
766.653	0.0146187
766.731	0.0145206
766.809	0.0146539
766.887	0.0146051
766.965	0.0146232
767.043	0.0145525
767.121	0.0145754
767.200	0.0144679
767.278	0.0144930
767.356	0.0144638
767.434	0.0143450
767.512	0.0141878
767.590	0.0143945
767.668	0.0143403
767.746	0.0144553
767.825	0.0144521
767.903	0.0143148
767.981	0.0144110
768.059	0.0144450
768.137	0.0144805
768.215	0.0144276
768.293	0.0144089
768.371	0.0144763
768.450	0.0145999
768.528	0.0146581
768.606	0.0145631
768.684	0.0145515
768.762	0.0146190
768.840	0.0144876
768.918	0.0146423
768.996	0.0147375
769.075	0.0146394
769.153	0.0145942
769.231	0.0145718
769.309	0.0146058
769.387	0.0146378
769.465	0.0145647
769.543	0.0146108
769.621	0.0145755
769.700	0.0145126
769.778	0.0145098
769.856	0.0144627
769.934	0.0146040
770.012	0.0144296
770.090	0.0144595
770.168	0.0145712
770.246	0.0144401
770.325	0.0144456
770.403	0.0145776
770.481	0.0144732
770.559	0.0144963
770.637	0.0144576
770.715	0.0144578
770.793	0.0144839
770.871	0.0145768
770.950	0.0144808
771.028	0.0146347
771.106	0.0146054
771.184	0.0146509
771.262	0.0145725
771.340	0.0145899
771.418	0.0146986
771.496	0.0145793
771.575	0.0144779
771.653	0.0146999
771.731	0.0145226
771.809	0.0144742
771.887	0.0145615
771.965	0.0146422
772.043	0.0145153
772.121	0.0144958
772.200	0.0145127
772.278	0.0145685
772.356	0.0145226
772.434	0.0144846
772.512	0.0146393
772.590	0.0145299
772.668	0.0144068
772.746	0.0144010
772.825	0.0145187
772.903	0.0144955
772.981	0.0143955
773.059	0.0145060
773.137	0.0146033
773.215	0.0145453
773.293	0.0144622
773.371	0.0144793
773.450	0.0144682
773.528	0.0145607
773.606	0.0145775
773.684	0.0145620
773.762	0.0145310
773.840	0.0142703
773.918	0.0145863
773.996	0.0144904
774.075	0.0143970
774.153	0.0144620
774.231	0.0145007
774.309	0.0144849
774.387	0.0144888
774.465	0.0143673
774.543	0.0144155
774.621	0.0144199
774.700	0.0145889
774.778	0.0145499
774.856	0.0144252
774.934	0.0145279
775.012	0.0145719
775.090	0.0144827
775.168	0.0145458
775.246	0.0145280
775.325	0.0145473
775.403	0.0145896
775.481	0.0145565
775.559	0.0145415
775.637	0.0146296
775.715	0.0146162
775.793	0.0144835
775.871	0.0145663
775.950	0.0145074
776.028	0.0144178
776.106	0.0145029
776.184	0.0144427
776.262	0.0146233
776.340	0.0146305
776.418	0.0144819
776.496	0.0145272
776.575	0.0143983
776.653	0.0144265
776.731	0.0144743
776.809	0.0144753
776.887	0.0144276
776.965	0.0144374
777.043	0.0144247
777.121	0.0144347
777.200	0.0144189
777.278	0.0143560
777.356	0.0143959
777.434	0.0143368
777.512	0.0143163
777.590	0.0144367
777.668	0.0144196
777.746	0.0144029
777.825	0.0142565
777.903	0.0145226
777.981	0.0145099
778.059	0.0145763
778.137	0.0144701
778.215	0.0145877
778.293	0.0144929
778.371	0.0145777
778.450	0.0146009
778.528	0.0145786
778.606	0.0145877
778.684	0.0145869
778.762	0.0146255
778.840	0.0146205
778.918	0.0143891
778.996	0.0144180
779.075	0.0144792
779.153	0.0143568
779.231	0.0144958
779.309	0.0144096
779.387	0.0144335
779.465	0.0144330
779.543	0.0142442
779.621	0.0143299
779.700	0.0143728
779.778	0.0144139
779.856	0.0144838
779.934	0.0144612
780.012	0.0144837
780.090	0.0145014
780.168	0.0144286
780.246	0.0145533
780.325	0.0144904
780.403	0.0143536
780.481	0.0144645
780.559	0.0147040
780.637	0.0146499
780.715	0.0145869
780.793	0.0143902
780.871	0.0144605
780.950	0.0145651
781.028	0.0145312
781.106	0.0143789
781.184	0.0145435
781.262	0.0146198
781.340	0.0146201
781.418	0.0145293
781.496	0.0143752
781.575	0.0145962
781.653	0.0146317
781.731	0.0145197
781.809	0.0144714
781.887	0.0145087
781.965	0.0145550
782.043	0.0145416
782.121	0.0144555
782.200	0.0144354
782.278	0.0144913
782.356	0.0145683
782.434	0.0145274
782.512	0.0144637
782.590	0.0143627
782.668	0.0145209
782.746	0.0146062
782.825	0.0144678
782.903	0.0144883
782.981	0.0144089
783.059	0.0146978
783.137	0.0143755
783.215	0.0145632
783.293	0.0144146
783.371	0.0144193
783.450	0.0145609
783.528	0.0144106
783.606	0.0144205
783.684	0.0144604
783.762	0.0144229
783.840	0.0144230
783.918	0.0145963
783.996	0.0144912
784.075	0.0143937
784.153	0.0144722
784.231	0.0144707
784.309	0.0146329
784.387	0.0143595
784.465	0.0144401
784.543	0.0145664
784.621	0.0145817
784.700	0.0146438
784.778	0.0145688
784.856	0.0143957
784.934	0.0145434
785.012	0.0146034
785.090	0.0145899
785.168	0.0145744
785.246	0.0146423
785.325	0.0146756
785.403	0.0145599
785.481	0.0145036
785.559	0.0143647
785.637	0.0146429
785.715	0.0148715
785.793	0.0144487
785.871	0.0145119
785.950	0.0145319
786.028	0.0146410
786.106	0.0145470
786.184	0.0144609
786.262	0.0145779
786.340	0.0144757
786.418	0.0145261
786.496	0.0144678
786.575	0.0145947
786.653	0.0145962
786.731	0.0144011
786.809	0.0146261
786.887	0.0144929
786.965	0.0144253
787.043	0.0146062
787.121	0.0145746
787.200	0.0145611
787.278	0.0147433
787.356	0.0147292
787.434	0.0146436
787.512	0.0146969
787.590	0.0146856
787.668	0.0145393
787.746	0.0144804
787.825	0.0147546
787.903	0.0146622
787.981	0.0145685
788.059	0.0144752
788.137	0.0145647
788.215	0.0146593
788.293	0.0145325
788.371	0.0145386
788.450	0.0145426
788.528	0.0146097
788.606	0.0145047
788.684	0.0145485
788.762	0.0145059
788.840	0.0144460
788.918	0.0145647
788.996	0.0143551
789.075	0.0144637
789.153	0.0144364
789.231	0.0144878
789.309	0.0146152
789.387	0.0145642
789.465	0.0144592
789.543	0.0144056
789.621	0.0145664
789.700	0.0145413
789.778	0.0145145
789.856	0.0147240
789.934	0.0144269
790.012	0.0145530
790.090	0.0145472
790.168	0.0146720
790.246	0.0146555
790.325	0.0146475
790.403	0.0145012
790.481	0.0146219
790.559	0.0148184
790.637	0.0147034
790.715	0.0145906
790.793	0.0146788
790.871	0.0145736
790.950	0.0146255
791.028	0.0145013
791.106	0.0145263
791.184	0.0144715
791.262	0.0146054
791.340	0.0144965
791.418	0.0144003
791.496	0.0145545
791.575	0.0143866
791.653	0.0143628
791.731	0.0145204
791.809	0.0144267
791.887	0.0144640
791.965	0.0144712
792.043	0.0144005
792.121	0.0143735
792.200	0.0145465
792.278	0.0144346
792.356	0.0144356
792.434	0.0144118
792.512	0.0144814
792.590	0.0144350
792.668	0.0145107
792.746	0.0146133
792.825	0.0144032
792.903	0.0146138
792.981	0.0146534
793.059	0.0145588
793.137	0.0145055
793.215	0.0145097
793.293	0.0145715
793.371	0.0144214
793.450	0.0145561
793.528	0.0146793
793.606	0.0146277
793.684	0.0145839
793.762	0.0144128
793.840	0.0144978
793.918	0.0145885
793.996	0.0145087
794.075	0.0144183
794.153	0.0146139
794.231	0.0144935
794.309	0.0143436
794.387	0.0143619
794.465	0.0143964
794.543	0.0145052
794.621	0.0145014
794.700	0.0144834
794.778	0.0144981
794.856	0.0144535
794.934	0.0145303
795.012	0.0145534
795.090	0.0146521
795.168	0.0146502
795.246	0.0145537
795.325	0.0144534
795.403	0.0144523
795.481	0.0145678
795.559	0.0145981
795.637	0.0146353
795.715	0.0145364
795.793	0.0145988
795.871	0.0145567
795.950	0.0145756
796.028	0.0145240
796.106	0.0145686
796.184	0.0144633
796.262	0.0145872
796.340	0.0145463
796.418	0.0143697
796.496	0.0144979
796.575	0.0145998
796.653	0.0144615
796.731	0.0143990
796.809	0.0146299
796.887	0.0145780
796.965	0.0146369
797.043	0.0145829
797.121	0.0143649
797.200	0.0144035
797.278	0.0142756
797.356	0.0145319
797.434	0.0143509
797.512	0.0145214
797.590	0.0144655
797.668	0.0144779
797.746	0.0145590
797.825	0.0145332
797.903	0.0145351
797.981	0.0145710
798.059	0.0146455
798.137	0.0145029
798.215	0.0146539
798.293	0.0144219
798.371	0.0147621
798.450	0.0145525
798.528	0.0143035
798.606	0.0145158
798.684	0.0146049
798.762	0.0146116
798.840	0.0146277
798.918	0.0144973
798.996	0.0146434
799.075	0.0144779
799.153	0.0146383
799.231	0.0145084
799.309	0.0144171
799.387	0.0146313
799.465	0.0144991
799.543	0.0145266
799.621	0.0146243
799.700	0.0143999
799.778	0.0146496
799.856	0.0145834
799.934	0.0144571
800.012	0.0144030
800.090	0.0143836
800.168	0.0144325
800.246	0.0143595
800.325	0.0143607
800.403	0.0144573
800.481	0.0145401
800.559	0.0144740
800.637	0.0144390
800.715	0.0145231
800.793	0.0145250
800.871	0.0143794
800.950	0.0143724
801.028	0.0145409
801.106	0.0145382
801.184	0.0144305
801.262	0.0145911
801.340	0.0144884
801.418	0.0145727
801.496	0.0145277
801.575	0.0146830
801.653	0.0145227
801.731	0.0145440
801.809	0.0144200
801.887	0.0144157
801.965	0.0146622
802.043	0.0145072
802.121	0.0145329
802.200	0.0145996
802.278	0.0144386
802.356	0.0144205
802.434	0.0145058
802.512	0.0145613
802.590	0.0144350
802.668	0.0144218
802.746	0.0144847
802.825	0.0146507
802.903	0.0144843
802.981	0.0144852
803.059	0.0144421
803.137	0.0145770
803.215	0.0143848
803.293	0.0146272
803.371	0.0145712
803.450	0.0143414
803.528	0.0144825
803.606	0.0144525
803.684	0.0144658
803.762	0.0143592
803.840	0.0145002
803.918	0.0145059
803.996	0.0144979
804.075	0.0144108
804.153	0.0145417
804.231	0.0145426
804.309	0.0146199
804.387	0.0144824
804.465	0.0143900
804.543	0.0144531
804.621	0.0145755
804.700	0.0145647
804.778	0.0144103
804.856	0.0145893
804.934	0.0144968
805.012	0.0143745
805.090	0.0144257
805.168	0.0143898
805.246	0.0144968
805.325	0.0144054
805.403	0.0143853
805.481	0.0144315
805.559	0.0144524
805.637	0.0144910
805.715	0.0144547
805.793	0.0143872
805.871	0.0145842
805.950	0.0145937
806.028	0.0144830
806.106	0.0143506
806.184	0.0143311
806.262	0.0145064
806.340	0.0144105
806.418	0.0145138
806.496	0.0143251
806.575	0.0144630
806.653	0.0144022
806.731	0.0143964
806.809	0.0144193
806.887	0.0143574
806.965	0.0145018
807.043	0.0145018
807.121	0.0143611
807.200	0.0144238
807.278	0.0143977
807.356	0.0144177
807.434	0.0144645
807.512	0.0144460
807.590	0.0145415
807.668	0.0144115
807.746	0.0144773
807.825	0.0145354
807.903	0.0145046
807.981	0.0145293
808.059	0.0145088
808.137	0.0145684
808.215	0.0146624
808.293	0.0143768
808.371	0.0145242
808.450	0.0144740
808.528	0.0146463
808.606	0.0146394
808.684	0.0146500
808.762	0.0146765
808.840	0.0146117
808.918	0.0145393
808.996	0.0145459
809.075	0.0145259
809.153	0.0145967
809.231	0.0145507
809.309	0.0146262
809.387	0.0145428
809.465	0.0144898
809.543	0.0144286
809.621	0.0145473
809.700	0.0145027
809.778	0.0144839
809.856	0.0145275
809.934	0.0145287
810.012	0.0144078
810.090	0.0145376
810.168	0.0144796
810.246	0.0145230
810.325	0.0145387
810.403	0.0143826
810.481	0.0145224
810.559	0.0144957
810.637	0.0145177
810.715	0.0146346
810.793	0.0144669
810.871	0.0143697
810.950	0.0146037
811.028	0.0145258
811.106	0.0144427
811.184	0.0145512
811.262	0.0146413
811.340	0.0144570
811.418	0.0145484
811.496	0.0145595
811.575	0.0146824
811.653	0.0144662
811.731	0.0145644
811.809	0.0146380
811.887	0.0146368
811.965	0.0145554
812.043	0.0145229
812.121	0.0145062
812.200	0.0145506
812.278	0.0145747
812.356	0.0144923
812.434	0.0144997
812.512	0.0144997
812.590	0.0144863
812.668	0.0144693
812.746	0.0144730
812.825	0.0145269
812.903	0.0146333
812.981	0.0145853
813.059	0.0145742
813.137	0.0144672
813.215	0.0144044
813.293	0.0144571
813.371	0.0146132
813.450	0.0145214
813.528	0.0144912
813.606	0.0144124
813.684	0.0145281
813.762	0.0144951
813.840	0.0144889
813.918	0.0144682
813.996	0.0145576
814.075	0.0146465
814.153	0.0146574
814.231	0.0145496
814.309	0.0145208
814.387	0.0145464
814.465	0.0146579
814.543	0.0143875
814.621	0.0146307
814.700	0.0145966
814.778	0.0145358
814.856	0.0146674
814.934	0.0144051
815.012	0.0144168
815.090	0.0144373
815.168	0.0145097
815.246	0.0146089
815.325	0.0145928
815.403	0.0144118
815.481	0.0145297
815.559	0.0145034
815.637	0.0143435
815.715	0.0144614
815.793	0.0145192
815.871	0.0145822
815.950	0.0145724
816.028	0.0144315
816.106	0.0144272
816.184	0.0144436
816.262	0.0144895
816.340	0.0145477
816.418	0.0147803
816.496	0.0146740
816.575	0.0144298
816.653	0.0144180
816.731	0.0145995
816.809	0.0145381
816.887	0.0146284
816.965	0.0146230
817.043	0.0145671
817.121	0.0144939
817.200	0.0145631
817.278	0.0144674
817.356	0.0145079
817.434	0.0145885
817.512	0.0146967
817.590	0.0146037
817.668	0.0145652
817.746	0.0145148
817.825	0.0144862
817.903	0.0146093
817.981	0.0145151
818.059	0.0145896
818.137	0.0145129
818.215	0.0145531
818.293	0.0146941
818.371	0.0144721
818.450	0.0144597
818.528	0.0144154
818.606	0.0145306
818.684	0.0145634
818.762	0.0145126
818.840	0.0144945
818.918	0.0143944
818.996	0.0144675
819.075	0.0144473
819.153	0.0144678
819.231	0.0145397
819.309	0.0145593
819.387	0.0145168
819.465	0.0145713
819.543	0.0145339
819.621	0.0146076
819.700	0.0146395
819.778	0.0147122
819.856	0.0144919
819.934	0.0144867
820.012	0.0146018
820.090	0.0147373
820.168	0.0144749
820.246	0.0145896
820.325	0.0146002
820.403	0.0145290
820.481	0.0144096
820.559	0.0144032
820.637	0.0146282
820.715	0.0147023
820.793	0.0145449
820.871	0.0143656
820.950	0.0144642
821.028	0.0144984
821.106	0.0145474
821.184	0.0144771
821.262	0.0145773
821.340	0.0144754
821.418	0.0146638
821.496	0.0145390
821.575	0.0145856
821.653	0.0145100
821.731	0.0145615
821.809	0.0145426
821.887	0.0146793
821.965	0.0145789
822.043	0.0146040
822.121	0.0146482
822.200	0.0146437
822.278	0.0144405
822.356	0.0145498
822.434	0.0146038
822.512	0.0145257
822.590	0.0145295
822.668	0.0146117
822.746	0.0146141
822.825	0.0145680
822.903	0.0145463
822.981	0.0146037
823.059	0.0146675
823.137	0.0146270
823.215	0.0144317
823.293	0.0143227
823.371	0.0145058
823.450	0.0144823
823.528	0.0143543
823.606	0.0145227
823.684	0.0144044
823.762	0.0142902
823.840	0.0143980
823.918	0.0145128
823.996	0.0143957
824.075	0.0144276
824.153	0.0144803
824.231	0.0145009
824.309	0.0144181
824.387	0.0144594
824.465	0.0143044
824.543	0.0144308
824.621	0.0144743
824.700	0.0145515
824.778	0.0144939
824.856	0.0144151
824.934	0.0145206
825.012	0.0144832
825.090	0.0145830
825.168	0.0145258
825.246	0.0145023
825.325	0.0144069
825.403	0.0144350
825.481	0.0144511
825.559	0.0144817
825.637	0.0145634
825.715	0.0145027
825.793	0.0144339
825.871	0.0145821
825.950	0.0145754
826.028	0.0144830
826.106	0.0145000
826.184	0.0144653
826.262	0.0145732
826.340	0.0146436
826.418	0.0145474
826.496	0.0145604
826.575	0.0144307
826.653	0.0144666
826.731	0.0145471
826.809	0.0145979
826.887	0.0145798
826.965	0.0145568
827.043	0.0146758
827.121	0.0144960
827.200	0.0143365
827.278	0.0145358
827.356	0.0145009
827.434	0.0144931
827.512	0.0147285
827.590	0.0145370
827.668	0.0145506
827.746	0.0145406
827.825	0.0146132
827.903	0.0146526
827.981	0.0146127
828.059	0.0144783
828.137	0.0145110
828.215	0.0146379
828.293	0.0144408
828.371	0.0145121
828.450	0.0145762
828.528	0.0145416
828.606	0.0143728
828.684	0.0142963
828.762	0.0144898
828.840	0.0144892
828.918	0.0144467
828.996	0.0143295
829.075	0.0143796
829.153	0.0146073
829.231	0.0145229
829.309	0.0143683
829.387	0.0143995
829.465	0.0144180
829.543	0.0144755
829.621	0.0143916
829.700	0.0143649
829.778	0.0145054
829.856	0.0145356
829.934	0.0146492
830.012	0.0145595
830.090	0.0146186
830.168	0.0146537
830.246	0.0146185
830.325	0.0146394
830.403	0.0146770
830.481	0.0146037
830.559	0.0146776
830.637	0.0146229
830.715	0.0145071
830.793	0.0145865
830.871	0.0146289
830.950	0.0145795
831.028	0.0145947
831.106	0.0145223
831.184	0.0144373
831.262	0.0145267
831.340	0.0144746
831.418	0.0145691
831.496	0.0144549
831.575	0.0144364
831.653	0.0144296
831.731	0.0145354
831.809	0.0144152
831.887	0.0144443
831.965	0.0144548
832.043	0.0145116
832.121	0.0145419
832.200	0.0145772
832.278	0.0144576
832.356	0.0144263
832.434	0.0144681
832.512	0.0146474
832.590	0.0145859
832.668	0.0143694
832.746	0.0144749
832.825	0.0143472
832.903	0.0144546
832.981	0.0145535
833.059	0.0144718
833.137	0.0143891
833.215	0.0144509
833.293	0.0145474
833.371	0.0145486
833.450	0.0144762
833.528	0.0144858
833.606	0.0144227
833.684	0.0143650
833.762	0.0145265
833.840	0.0146318
833.918	0.0145987
833.996	0.0145697
834.075	0.0146087
834.153	0.0144430
834.231	0.0145427
834.309	0.0145423
834.387	0.0144960
834.465	0.0144644
834.543	0.0145008
834.621	0.0144857
834.700	0.0144381
834.778	0.0144637
834.856	0.0143267
834.934	0.0142966
835.012	0.0143608
835.090	0.0142471
835.168	0.0144283
835.246	0.0143854
835.325	0.0146066
835.403	0.0143588
835.481	0.0145439
835.559	0.0144621
835.637	0.0145479
835.715	0.0145755
835.793	0.0145329
835.871	0.0143839
835.950	0.0145974
836.028	0.0145929
836.106	0.0146085
836.184	0.0145480
836.262	0.0144129
836.340	0.0145921
836.418	0.0146328
836.496	0.0144384
836.575	0.0145557
836.653	0.0144514
836.731	0.0143927
836.809	0.0143491
836.887	0.0143568
836.965	0.0143414
837.043	0.0143963
837.121	0.0144290
837.200	0.0144650
837.278	0.0145308
837.356	0.0144109
837.434	0.0143723
837.512	0.0144138
837.590	0.0144556
837.668	0.0144859
837.746	0.0143388
837.825	0.0144876
837.903	0.0146162
837.981	0.0144752
838.059	0.0144305
838.137	0.0144921
838.215	0.0144922
838.293	0.0144229
838.371	0.0146503
838.450	0.0144565
838.528	0.0145039
838.606	0.0144617
838.684	0.0145523
838.762	0.0146189
838.840	0.0145816
838.918	0.0144878
838.996	0.0144250
839.075	0.0145676
839.153	0.0144666
839.231	0.0145244
839.309	0.0144840
839.387	0.0145127
839.465	0.0144995
839.543	0.0146772
839.621	0.0145338
839.700	0.0145103
839.778	0.0144172
839.856	0.0143403
839.934	0.0144844
840.012	0.0144257
840.090	0.0144341
840.168	0.0145440
840.246	0.0144451
840.325	0.0143616
840.403	0.0145414
840.481	0.0143623
840.559	0.0145303
840.637	0.0144511
840.715	0.0144449
840.793	0.0143041
840.871	0.0144452
840.950	0.0144715
841.028	0.0144714
841.106	0.0145901
841.184	0.0145415
841.262	0.0145177
841.340	0.0145140
841.418	0.0145341
841.496	0.0145361
841.575	0.0145846
841.653	0.0145770
841.731	0.0144958
841.809	0.0145909
841.887	0.0146080
841.965	0.0146329
842.043	0.0145905
842.121	0.0144163
842.200	0.0144845
842.278	0.0145888
842.356	0.0144720
842.434	0.0145380
842.512	0.0145853
842.590	0.0145052
842.668	0.0144045
842.746	0.0143790
842.825	0.0145461
842.903	0.0144290
842.981	0.0144467
843.059	0.0144711
843.137	0.0144763
843.215	0.0144214
843.293	0.0145185
843.371	0.0144646
843.450	0.0144995
843.528	0.0145222
843.606	0.0145661
843.684	0.0144372
843.762	0.0145673
843.840	0.0145940
843.918	0.0145038
843.996	0.0145680
844.075	0.0144078
844.153	0.0144321
844.231	0.0146394
844.309	0.0145529
844.387	0.0145164
844.465	0.0145940
844.543	0.0145831
844.621	0.0144890
844.700	0.0145608
844.778	0.0146426
844.856	0.0145475
844.934	0.0144756
845.012	0.0145716
845.090	0.0144910
845.168	0.0145577
845.246	0.0146165
845.325	0.0144893
845.403	0.0143756
845.481	0.0145123
845.559	0.0145916
845.637	0.0144337
845.715	0.0145232
845.793	0.0145535
845.871	0.0144865
845.950	0.0143986
846.028	0.0145539
846.106	0.0144819
846.184	0.0145468
846.262	0.0144962
846.340	0.0146185
846.418	0.0146410
846.496	0.0146600
846.575	0.0146368
846.653	0.0146127
846.731	0.0146165
846.809	0.0144559
846.887	0.0145097
846.965	0.0146960
847.043	0.0146188
847.121	0.0145437
847.200	0.0145596
847.278	0.0145211
847.356	0.0144319
847.434	0.0144324
847.512	0.0145312
847.590	0.0144753
847.668	0.0144478
847.746	0.0144585
847.825	0.0144635
847.903	0.0143060
847.981	0.0144191
848.059	0.0145225
848.137	0.0144831
848.215	0.0144168
848.293	0.0143708
848.371	0.0143172
848.450	0.0145001
848.528	0.0145300
848.606	0.0145704
848.684	0.0144464
848.762	0.0144443
848.840	0.0145824
848.918	0.0145430
848.996	0.0145448
849.075	0.0144647
849.153	0.0145338
849.231	0.0143868
849.309	0.0144000
849.387	0.0144546
849.465	0.0143678
849.543	0.0144048
849.621	0.0145063
849.700	0.0144032
849.778	0.0144421
849.856	0.0144675
849.934	0.0145411
850.012	0.0144706
850.090	0.0142778
850.168	0.0144126
850.246	0.0145381
850.325	0.0144046
850.403	0.0144392
850.481	0.0144781
850.559	0.0144636
850.637	0.0144298
850.715	0.0144924
850.793	0.0145116
850.871	0.0144976
850.950	0.0144773
851.028	0.0144715
851.106	0.0144885
851.184	0.0144114
851.262	0.0144281
851.340	0.0146379
851.418	0.0145276
851.496	0.0144865
851.575	0.0144830
851.653	0.0147129
851.731	0.0144056
851.809	0.0144488
851.887	0.0144925
851.965	0.0144940
852.043	0.0144086
852.121	0.0145718
852.200	0.0145327
852.278	0.0144942
852.356	0.0145361
852.434	0.0145081
852.512	0.0146546
852.590	0.0145027
852.668	0.0143699
852.746	0.0145142
852.825	0.0144905
852.903	0.0143812
852.981	0.0143768
853.059	0.0144551
853.137	0.0143584
853.215	0.0145063
853.293	0.0144513
853.371	0.0145275
853.450	0.0144965
853.528	0.0143855
853.606	0.0143530
853.684	0.0145763
853.762	0.0145342
853.840	0.0144483
853.918	0.0145124
853.996	0.0144991
854.075	0.0145670
854.153	0.0144621
854.231	0.0145390
854.309	0.0145046
854.387	0.0145314
854.465	0.0146563
854.543	0.0145707
854.621	0.0145340
854.700	0.0144588
854.778	0.0145268
854.856	0.0146213
854.934	0.0146295
855.012	0.0144910
855.090	0.0144337
855.168	0.0145055
855.246	0.0143631
855.325	0.0143698
855.403	0.0146104
855.481	0.0145246
855.559	0.0145273
855.637	0.0146392
855.715	0.0144080
855.793	0.0144019
855.871	0.0144866
855.950	0.0145568
856.028	0.0145338
856.106	0.0145709
856.184	0.0144769
856.262	0.0144966
856.340	0.0146177
856.418	0.0145126
856.496	0.0145521
856.575	0.0145374
856.653	0.0145135
856.731	0.0146442
856.809	0.0144699
856.887	0.0144744
856.965	0.0145587
857.043	0.0145735
857.121	0.0144761
857.200	0.0144427
857.278	0.0144411
857.356	0.0145052
857.434	0.0146107
857.512	0.0145103
857.590	0.0144487
857.668	0.0145620
857.746	0.0145115
857.825	0.0144657
857.903	0.0146243
857.981	0.0145072
858.059	0.0144743
858.137	0.0144447
858.215	0.0145956
858.293	0.0144479
858.371	0.0144247
858.450	0.0145820
858.528	0.0143833
858.606	0.0145220
858.684	0.0144621
858.762	0.0145229
858.840	0.0145264
858.918	0.0145238
858.996	0.0145840
859.075	0.0145377
859.153	0.0146269
859.231	0.0145309
859.309	0.0144943
859.387	0.0146420
859.465	0.0145936
859.543	0.0145703
859.621	0.0145530
859.700	0.0145232
859.778	0.0145739
859.856	0.0144985
859.934	0.0145059
860.012	0.0144525
860.090	0.0143837
860.168	0.0146075
860.246	0.0145407
860.325	0.0144243
860.403	0.0144318
860.481	0.0145155
860.559	0.0143894
860.637	0.0144123
860.715	0.0144800
860.793	0.0144292
860.871	0.0145203
860.950	0.0145232
861.028	0.0144437
861.106	0.0145651
861.184	0.0143446
861.262	0.0144647
861.340	0.0145732
861.418	0.0144976
861.496	0.0146154
861.575	0.0145927
861.653	0.0145885
861.731	0.0146701
861.809	0.0145273
861.887	0.0146166
861.965	0.0145482
862.043	0.0145557
862.121	0.0145112
862.200	0.0146521
862.278	0.0145217
862.356	0.0145630
862.434	0.0145729
862.512	0.0144610
862.590	0.0145023
862.668	0.0145728
862.746	0.0145712
862.825	0.0144852
862.903	0.0145502
862.981	0.0144395
863.059	0.0144422
863.137	0.0142499
863.215	0.0144714
863.293	0.0145461
863.371	0.0144887
863.450	0.0144711
863.528	0.0145348
863.606	0.0144337
863.684	0.0145714
863.762	0.0145285
863.840	0.0144653
863.918	0.0145158
863.996	0.0144540
864.075	0.0145274
864.153	0.0146109
864.231	0.0144244
864.309	0.0144511
864.387	0.0145737
864.465	0.0144880
864.543	0.0144572
864.621	0.0147546
864.700	0.0145966
864.778	0.0146351
864.856	0.0144989
864.934	0.0144600
865.012	0.0144761
865.090	0.0146161
865.168	0.0145206
865.246	0.0146086
865.325	0.0145003
865.403	0.0145217
865.481	0.0144347
865.559	0.0144844
865.637	0.0145392
865.715	0.0144439
865.793	0.0144164
865.871	0.0145110
865.950	0.0145025
866.028	0.0143447
866.106	0.0144404
866.184	0.0144804
866.262	0.0144553
866.340	0.0145403
866.418	0.0145455
866.496	0.0144338
866.575	0.0144511
866.653	0.0144854
866.731	0.0144688
866.809	0.0143739
866.887	0.0145557
866.965	0.0144815
867.043	0.0145038
867.121	0.0146287
867.200	0.0144480
867.278	0.0143954
867.356	0.0145764
867.434	0.0146315
867.512	0.0145313
867.590	0.0145629
867.668	0.0144446
867.746	0.0145910
867.825	0.0144865
867.903	0.0144089
867.981	0.0143163
868.059	0.0145990
868.137	0.0145522
868.215	0.0143716
868.293	0.0145614
868.371	0.0144730
868.450	0.0145060
868.528	0.0145155
868.606	0.0145309
868.684	0.0144069
868.762	0.0144971
868.840	0.0146378
868.918	0.0144254
868.996	0.0145118
869.075	0.0144526
869.153	0.0144742
869.231	0.0145035
869.309	0.0144578
869.387	0.0144510
869.465	0.0145683
869.543	0.0143945
869.621	0.0143977
869.700	0.0144672
869.778	0.0143143
869.856	0.0143739
869.934	0.0143870
870.012	0.0143710
870.090	0.0143494
870.168	0.0144318
870.246	0.0145072
870.325	0.0144749
870.403	0.0144279
870.481	0.0144571
870.559	0.0147021
870.637	0.0145435
870.715	0.0146661
870.793	0.0144327
870.871	0.0144808
870.950	0.0146280
871.028	0.0145708
871.106	0.0145097
871.184	0.0144381
871.262	0.0145345
871.340	0.0146069
871.418	0.0146276
871.496	0.0144571
871.575	0.0143891
871.653	0.0144894
871.731	0.0145097
871.809	0.0144869
871.887	0.0144494
871.965	0.0144758
872.043	0.0145260
872.121	0.0144134
872.200	0.0144034
872.278	0.0145634
872.356	0.0144527
872.434	0.0144625
872.512	0.0144624
872.590	0.0144745
872.668	0.0145863
872.746	0.0145060
872.825	0.0146177
872.903	0.0146137
872.981	0.0144356
873.059	0.0144334
873.137	0.0145335
873.215	0.0145746
873.293	0.0143939
873.371	0.0145213
873.450	0.0142908
873.528	0.0145592
873.606	0.0143854
873.684	0.0142860
873.762	0.0145562
873.840	0.0145219
873.918	0.0144986
873.996	0.0145269
874.075	0.0146049
874.153	0.0145744
874.231	0.0146998
874.309	0.0145537
874.387	0.0145625
874.465	0.0145152
874.543	0.0144761
874.621	0.0145490
874.700	0.0145852
874.778	0.0144994
874.856	0.0144946
874.934	0.0145819
875.012	0.0146401
875.090	0.0145923
875.168	0.0145468
875.246	0.0144539
875.325	0.0147048
875.403	0.0144609
875.481	0.0146264
875.559	0.0145696
875.637	0.0145403
875.715	0.0145934
875.793	0.0145831
875.871	0.0145506
875.950	0.0145518
876.028	0.0145750
876.106	0.0145661
876.184	0.0146861
876.262	0.0146182
876.340	0.0144728
876.418	0.0146919
876.496	0.0144498
876.575	0.0146765
876.653	0.0145512
876.731	0.0144737
876.809	0.0143628
876.887	0.0145347
876.965	0.0144711
877.043	0.0145771
877.121	0.0144960
877.200	0.0144851
877.278	0.0145880
877.356	0.0144080
877.434	0.0145666
877.512	0.0145319
877.590	0.0144865
877.668	0.0144732
877.746	0.0145159
877.825	0.0146154
877.903	0.0145967
877.981	0.0145217
878.059	0.0144445
878.137	0.0145918
878.215	0.0145524
878.293	0.0146646
878.371	0.0145935
878.450	0.0146534
878.528	0.0145617
878.606	0.0146599
878.684	0.0145564
878.762	0.0145445
878.840	0.0145741
878.918	0.0144481
878.996	0.0144492
879.075	0.0144464
879.153	0.0145599
879.231	0.0144234
879.309	0.0144407
879.387	0.0145625
879.465	0.0144705
879.543	0.0144519
879.621	0.0145026
879.700	0.0143697
879.778	0.0143617
879.856	0.0145431
879.934	0.0144767
880.012	0.0144205
880.090	0.0143868
880.168	0.0143429
880.246	0.0145445
880.325	0.0145627
880.403	0.0144065
880.481	0.0143906
880.559	0.0146027
880.637	0.0145748
880.715	0.0145016
880.793	0.0144867
880.871	0.0144935
880.950	0.0144830
881.028	0.0144647
881.106	0.0144128
881.184	0.0144106
881.262	0.0143513
881.340	0.0143581
881.418	0.0143844
881.496	0.0144726
881.575	0.0144845
881.653	0.0145039
881.731	0.0144018
881.809	0.0143469
881.887	0.0143192
881.965	0.0144064
882.043	0.0144350
882.121	0.0143633
882.200	0.0145033
882.278	0.0144151
882.356	0.0145539
882.434	0.0146130
882.512	0.0146771
882.590	0.0144988
882.668	0.0146342
882.746	0.0144520
882.825	0.0146719
882.903	0.0145465
882.981	0.0145911
883.059	0.0146223
883.137	0.0145092
883.215	0.0145771
883.293	0.0145009
883.371	0.0144978
883.450	0.0145805
883.528	0.0145507
883.606	0.0145803
883.684	0.0144166
883.762	0.0143857
883.840	0.0145540
883.918	0.0145290
883.996	0.0143930
884.075	0.0145607
884.153	0.0145603
884.231	0.0144703
884.309	0.0145879
884.387	0.0144468
884.465	0.0144430
884.543	0.0145428
884.621	0.0145451
884.700	0.0146287
884.778	0.0145855
884.856	0.0144558
884.934	0.0143549
885.012	0.0146265
885.090	0.0145097
885.168	0.0144503
885.246	0.0145654
885.325	0.0146024
885.403	0.0144900
885.481	0.0145822
885.559	0.0145582
885.637	0.0146555
885.715	0.0145286
885.793	0.0145016
885.871	0.0145881
885.950	0.0146114
886.028	0.0145467
886.106	0.0146104
886.184	0.0145425
886.262	0.0145118
886.340	0.0146474
886.418	0.0145081
886.496	0.0145000
886.575	0.0145230
886.653	0.0143768
886.731	0.0143999
886.809	0.0143709
886.887	0.0144299
886.965	0.0145450
887.043	0.0143890
887.121	0.0143944
887.200	0.0145206
887.278	0.0144305
887.356	0.0143927
887.434	0.0144289
887.512	0.0144459
887.590	0.0145182
887.668	0.0144520
887.746	0.0144977
887.825	0.0144399
887.903	0.0144148
887.981	0.0144606
888.059	0.0144776
888.137	0.0144914
888.215	0.0144382
888.293	0.0145654
888.371	0.0144770
888.450	0.0143990
888.528	0.0145760
888.606	0.0144814
888.684	0.0145564
888.762	0.0146255
888.840	0.0144563
888.918	0.0144589
888.996	0.0144453
889.075	0.0144369
889.153	0.0143826
889.231	0.0143923
889.309	0.0145148
889.387	0.0143884
889.465	0.0144130
889.543	0.0144362
889.621	0.0143996
889.700	0.0144290
889.778	0.0143887
889.856	0.0143909
889.934	0.0143738
890.012	0.0144049
890.090	0.0143484
890.168	0.0143868
890.246	0.0144810
890.325	0.0143839
890.403	0.0143230
890.481	0.0143414
890.559	0.0142696
890.637	0.0143399
890.715	0.0143840
890.793	0.0143672
890.871	0.0144170
890.950	0.0144423
891.028	0.0144434
891.106	0.0144161
891.184	0.0144466
891.262	0.0145010
891.340	0.0145146
891.418	0.0145110
891.496	0.0144893
891.575	0.0143201
891.653	0.0143178
891.731	0.0143536
891.809	0.0142897
891.887	0.0144385
891.965	0.0144578
892.043	0.0143462
892.121	0.0144774
892.200	0.0145255
892.278	0.0143835
892.356	0.0143748
892.434	0.0145463
892.512	0.0144180
892.590	0.0144421
892.668	0.0144299
892.746	0.0145105
892.825	0.0144511
892.903	0.0146082
892.981	0.0144478
893.059	0.0142896
893.137	0.0142617
893.215	0.0143864
893.293	0.0145794
893.371	0.0145260
893.450	0.0145048
893.528	0.0143320
893.606	0.0144112
893.684	0.0144368
893.762	0.0145005
893.840	0.0144645
893.918	0.0144957
893.996	0.0143830
894.075	0.0144825
894.153	0.0143584
894.231	0.0144419
894.309	0.0145018
894.387	0.0144441
894.465	0.0143862
894.543	0.0144305
894.621	0.0145081
894.700	0.0146139
894.778	0.0144418
894.856	0.0144408
894.934	0.0145909
895.012	0.0144560
895.090	0.0145295
895.168	0.0143624
895.246	0.0145356
895.325	0.0144697
895.403	0.0144662
895.481	0.0145604
895.559	0.0144571
895.637	0.0145166
895.715	0.0146036
895.793	0.0144465
895.871	0.0146082
895.950	0.0145817
896.028	0.0146302
896.106	0.0146161
896.184	0.0145050
896.262	0.0145335
896.340	0.0143576
896.418	0.0144138
896.496	0.0145599
896.575	0.0145870
896.653	0.0145811
896.731	0.0146374
896.809	0.0145405
896.887	0.0144911
896.965	0.0144072
897.043	0.0145020
897.121	0.0144747
897.200	0.0146011
897.278	0.0145548
897.356	0.0145158
897.434	0.0145281
897.512	0.0144209
897.590	0.0144677
897.668	0.0144202
897.746	0.0145755
897.825	0.0144566
897.903	0.0144857
897.981	0.0144860
898.059	0.0143790
898.137	0.0143902
898.215	0.0145708
898.293	0.0146037
898.371	0.0146478
898.450	0.0145624
898.528	0.0145456
898.606	0.0144980
898.684	0.0146226
898.762	0.0145888
898.840	0.0145177
898.918	0.0146291
898.996	0.0144781
899.075	0.0145724
899.153	0.0144495
899.231	0.0145571
899.309	0.0145403
899.387	0.0145526
899.465	0.0145536
899.543	0.0145778
899.621	0.0145354
899.700	0.0145380
899.778	0.0144319
899.856	0.0145634
899.934	0.0144824
900.012	0.0145338
900.090	0.0144176
900.168	0.0145158
900.246	0.0145833
900.325	0.0146159
900.403	0.0145214
900.481	0.0145365
900.559	0.0145532
900.637	0.0147134
900.715	0.0144984
900.793	0.0144515
900.871	0.0145487
900.950	0.0145962
901.028	0.0145391
901.106	0.0145035
901.184	0.0145313
901.262	0.0145001
901.340	0.0145367
901.418	0.0145177
901.496	0.0145743
901.575	0.0145454
901.653	0.0145251
901.731	0.0146030
901.809	0.0145048
901.887	0.0145718
901.965	0.0143912
902.043	0.0145547
902.121	0.0143877
902.200	0.0143186
902.278	0.0145181
902.356	0.0144057
902.434	0.0144946
902.512	0.0143547
902.590	0.0145507
902.668	0.0144612
902.746	0.0145345
902.825	0.0145286
902.903	0.0145568
902.981	0.0145542
903.059	0.0145359
903.137	0.0145425
903.215	0.0145605
903.293	0.0144840
903.371	0.0144980
903.450	0.0146346
903.528	0.0144283
903.606	0.0144996
903.684	0.0145055
903.762	0.0146115
903.840	0.0144943
903.918	0.0145242
903.996	0.0146116
904.075	0.0146038
904.153	0.0147090
904.231	0.0144949
904.309	0.0145546
904.387	0.0145238
904.465	0.0144669
904.543	0.0144716
904.621	0.0144845
904.700	0.0145094
904.778	0.0145036
904.856	0.0144773
904.934	0.0145439
905.012	0.0145886
905.090	0.0145633
905.168	0.0144186
905.246	0.0144749
905.325	0.0145557
905.403	0.0145049
905.481	0.0145506
905.559	0.0146775
905.637	0.0146237
905.715	0.0144909
905.793	0.0145847
905.871	0.0147153
905.950	0.0146114
906.028	0.0146162
906.106	0.0145794
906.184	0.0146842
906.262	0.0146456
906.340	0.0146347
906.418	0.0145839
906.496	0.0144251
906.575	0.0145061
906.653	0.0146503
906.731	0.0145788
906.809	0.0146118
906.887	0.0144962
906.965	0.0145553
907.043	0.0146248
907.121	0.0144970
907.200	0.0143691
907.278	0.0144527
907.356	0.0145467
907.434	0.0146059
907.512	0.0145537
907.590	0.0145364
907.668	0.0146185
907.746	0.0145737
907.825	0.0146045
907.903	0.0145300
907.981	0.0144962
908.059	0.0146160
908.137	0.0145332
908.215	0.0145377
908.293	0.0146052
908.371	0.0144818
908.450	0.0144196
908.528	0.0145923
908.606	0.0145286
908.684	0.0144637
908.762	0.0145603
908.840	0.0145376
908.918	0.0145791
908.996	0.0145062
909.075	0.0144820
909.153	0.0146055
909.231	0.0145834
909.309	0.0144326
909.387	0.0146474
909.465	0.0145500
909.543	0.0144439
909.621	0.0144526
909.700	0.0145196
909.778	0.0146502
909.856	0.0146437
909.934	0.0146100
910.012	0.0143512
910.090	0.0144193
910.168	0.0144747
910.246	0.0144634
910.325	0.0146241
910.403	0.0144805
910.481	0.0145423
910.559	0.0145551
910.637	0.0144971
910.715	0.0144431
910.793	0.0145663
910.871	0.0143035
910.950	0.0143790
911.028	0.0145316
911.106	0.0144903
911.184	0.0142629
911.262	0.0143913
911.340	0.0144849
911.418	0.0145340
911.496	0.0143090
911.575	0.0142724
911.653	0.0143905
911.731	0.0143056
911.809	0.0144268
911.887	0.0144880
911.965	0.0143784
912.043	0.0143906
912.121	0.0144608
912.200	0.0144245
912.278	0.0143590
912.356	0.0145715
912.434	0.0146506
912.512	0.0145649
912.590	0.0145892
912.668	0.0144902
912.746	0.0146253
912.825	0.0146455
912.903	0.0144353
912.981	0.0145327
913.059	0.0144990
913.137	0.0145055
913.215	0.0145096
913.293	0.0145432
913.371	0.0145586
913.450	0.0144927
913.528	0.0143839
913.606	0.0144878
913.684	0.0144695
913.762	0.0145697
913.840	0.0143735
913.918	0.0143822
913.996	0.0144548
914.075	0.0144181
914.153	0.0144834
914.231	0.0144283
914.309	0.0143342
914.387	0.0142912
914.465	0.0144688
914.543	0.0142998
914.621	0.0143237
914.700	0.0142926
914.778	0.0143345
914.856	0.0145325
914.934	0.0144458
915.012	0.0145253
915.090	0.0144418
915.168	0.0145591
915.246	0.0144455
915.325	0.0143298
915.403	0.0144133
915.481	0.0144054
915.559	0.0144611
915.637	0.0144851
915.715	0.0143739
915.793	0.0145704
915.871	0.0144897
915.950	0.0145309
916.028	0.0143900
916.106	0.0144601
916.184	0.0145188
916.262	0.0144540
916.340	0.0144788
916.418	0.0146286
916.496	0.0146571
916.575	0.0144789
916.653	0.0145338
916.731	0.0146324
916.809	0.0144956
916.887	0.0144115
916.965	0.0145502
917.043	0.0144339
917.121	0.0145760
917.200	0.0145542
917.278	0.0144021
917.356	0.0146252
917.434	0.0145225
917.512	0.0144567
917.590	0.0145427
917.668	0.0145549
917.746	0.0145721
917.825	0.0145389
917.903	0.0145788
917.981	0.0146001
918.059	0.0145813
918.137	0.0144978
918.215	0.0145573
918.293	0.0146590
918.371	0.0143942
918.450	0.0144593
918.528	0.0144838
918.606	0.0144906
918.684	0.0145805
918.762	0.0144427
918.840	0.0143238
918.918	0.0146311
918.996	0.0146631
919.075	0.0145869
919.153	0.0145016
919.231	0.0144874
919.309	0.0145428
919.387	0.0144736
919.465	0.0145152
919.543	0.0145023
919.621	0.0144691
919.700	0.0145048
919.778	0.0146503
919.856	0.0144627
919.934	0.0144599
920.012	0.0146158
920.090	0.0145536
920.168	0.0145671
920.246	0.0144714
920.325	0.0144684
920.403	0.0145193
920.481	0.0145887
920.559	0.0146203
920.637	0.0145917
920.715	0.0145332
920.793	0.0144147
920.871	0.0145561
920.950	0.0144939
921.028	0.0146392
921.106	0.0145986
921.184	0.0145935
921.262	0.0144077
921.340	0.0145289
921.418	0.0144376
921.496	0.0145948
921.575	0.0146501
921.653	0.0145779
921.731	0.0146742
921.809	0.0144664
921.887	0.0145054
921.965	0.0146204
922.043	0.0144295
922.121	0.0145863
922.200	0.0145145
922.278	0.0145551
922.356	0.0145098
922.434	0.0145272
922.512	0.0145937
922.590	0.0145092
922.668	0.0145829
922.746	0.0144957
922.825	0.0144889
922.903	0.0144360
922.981	0.0145850
923.059	0.0145208
923.137	0.0144457
923.215	0.0144543
923.293	0.0145135
923.371	0.0146232
923.450	0.0146366
923.528	0.0144745
923.606	0.0144759
923.684	0.0144808
923.762	0.0145399
923.840	0.0145660
923.918	0.0145628
923.996	0.0146379
924.075	0.0144008
924.153	0.0145032
924.231	0.0144710
924.309	0.0145346
924.387	0.0146082
924.465	0.0144614
924.543	0.0144782
924.621	0.0146277
924.700	0.0145891
924.778	0.0145634
924.856	0.0146045
924.934	0.0144733
925.012	0.0143515
925.090	0.0145403
925.168	0.0146592
925.246	0.0145901
925.325	0.0145105
925.403	0.0145135
925.481	0.0145740
925.559	0.0144820
925.637	0.0147332
925.715	0.0145225
925.793	0.0146076
925.871	0.0146850
925.950	0.0145989
926.028	0.0145699
926.106	0.0146713
926.184	0.0146577
926.262	0.0145333
926.340	0.0146224
926.418	0.0144990
926.496	0.0145596
926.575	0.0146803
926.653	0.0146471
926.731	0.0145666
926.809	0.0145943
926.887	0.0146238
926.965	0.0146373
927.043	0.0145389
927.121	0.0144786
927.200	0.0145557
927.278	0.0146103
927.356	0.0146098
927.434	0.0144830
927.512	0.0145496
927.590	0.0145278
927.668	0.0145257
927.746	0.0144926
927.825	0.0143941
927.903	0.0146592
927.981	0.0145049
928.059	0.0145245
928.137	0.0145396
928.215	0.0144797
928.293	0.0145631
928.371	0.0146174
928.450	0.0145349
928.528	0.0144758
928.606	0.0146017
928.684	0.0145211
928.762	0.0145911
928.840	0.0145148
928.918	0.0143857
928.996	0.0142740
929.075	0.0144290
929.153	0.0144756
929.231	0.0144038
929.309	0.0142825
929.387	0.0145424
929.465	0.0146255
929.543	0.0145390
929.621	0.0145370
929.700	0.0145222
929.778	0.0145587
929.856	0.0144773
929.934	0.0145325
930.012	0.0144699
930.090	0.0144509
930.168	0.0145889
930.246	0.0145562
930.325	0.0144766
930.403	0.0144471
930.481	0.0145527
930.559	0.0145778
930.637	0.0145208
930.715	0.0143684
930.793	0.0143927
930.871	0.0143812
930.950	0.0144221
931.028	0.0144747
931.106	0.0145969
931.184	0.0145422
931.262	0.0144862
931.340	0.0144409
931.418	0.0144738
931.496	0.0144166
931.575	0.0144394
931.653	0.0145673
931.731	0.0144185
931.809	0.0144615
931.887	0.0144524
931.965	0.0144147
932.043	0.0143623
932.121	0.0144339
932.200	0.0143747
932.278	0.0144917
932.356	0.0144756
932.434	0.0143816
932.512	0.0144206
932.590	0.0144685
932.668	0.0144421
932.746	0.0144219
932.825	0.0145121
932.903	0.0145340
932.981	0.0144094
933.059	0.0144177
933.137	0.0144942
933.215	0.0144334
933.293	0.0144332
933.371	0.0144072
933.450	0.0143365
933.528	0.0144661
933.606	0.0144218
933.684	0.0144426
933.762	0.0144814
933.840	0.0143967
933.918	0.0145695
933.996	0.0144374
934.075	0.0143240
934.153	0.0144572
934.231	0.0145738
934.309	0.0144524
934.387	0.0144670
934.465	0.0143739
934.543	0.0144959
934.621	0.0144713
934.700	0.0145664
934.778	0.0144649
934.856	0.0144384
934.934	0.0144167
935.012	0.0144532
935.090	0.0145889
935.168	0.0144791
935.246	0.0144773
935.325	0.0144026
935.403	0.0144524
935.481	0.0145241
935.559	0.0146038
935.637	0.0146067
935.715	0.0147634
935.793	0.0145000
935.871	0.0145339
935.950	0.0146394
936.028	0.0147173
936.106	0.0145121
936.184	0.0145759
936.262	0.0147330
936.340	0.0146148
936.418	0.0145406
936.496	0.0145289
936.575	0.0144444
936.653	0.0144456
936.731	0.0145370
936.809	0.0145097
936.887	0.0144148
936.965	0.0145282
937.043	0.0143833
937.121	0.0143672
937.200	0.0143941
937.278	0.0145136
937.356	0.0145032
937.434	0.0144633
937.512	0.0144675
937.590	0.0145654
937.668	0.0145894
937.746	0.0146312
937.825	0.0145570
937.903	0.0145229
937.981	0.0144384
938.059	0.0145702
938.137	0.0144743
938.215	0.0144783
938.293	0.0145898
938.371	0.0145605
938.450	0.0145963
938.528	0.0144164
938.606	0.0146743
938.684	0.0145425
938.762	0.0144661
938.840	0.0144617
938.918	0.0144141
938.996	0.0146051
939.075	0.0145140
939.153	0.0144980
939.231	0.0145516
939.309	0.0145230
939.387	0.0145952
939.465	0.0143901
939.543	0.0145722
939.621	0.0144662
939.700	0.0144878
939.778	0.0144695
939.856	0.0145412
939.934	0.0145468
940.012	0.0145083
940.090	0.0144006
940.168	0.0144003
940.246	0.0144677
940.325	0.0144899
940.403	0.0144153
940.481	0.0144286
940.559	0.0145358
940.637	0.0143472
940.715	0.0144878
940.793	0.0144853
940.871	0.0143459
940.950	0.0145212
941.028	0.0144991
941.106	0.0145763
941.184	0.0144262
941.262	0.0145460
941.340	0.0145523
941.418	0.0145285
941.496	0.0145638
941.575	0.0146960
941.653	0.0146456
941.731	0.0144420
941.809	0.0146800
941.887	0.0146898
941.965	0.0146838
942.043	0.0145795
942.121	0.0145151
942.200	0.0145071
942.278	0.0145097
942.356	0.0145441
942.434	0.0144447
942.512	0.0143567
942.590	0.0143704
942.668	0.0142977
942.746	0.0144894
942.825	0.0144482
942.903	0.0143666
942.981	0.0144268
943.059	0.0145958
943.137	0.0144765
943.215	0.0143871
943.293	0.0144285
943.371	0.0144786
943.450	0.0144103
943.528	0.0145193
943.606	0.0144163
943.684	0.0145017
943.762	0.0144718
943.840	0.0145404
943.918	0.0143260
943.996	0.0144805
944.075	0.0143987
944.153	0.0144203
944.231	0.0144462
944.309	0.0144862
944.387	0.0144871
944.465	0.0144267
944.543	0.0145415
944.621	0.0144606
944.700	0.0145315
944.778	0.0144549
944.856	0.0145834
944.934	0.0146024
945.012	0.0145966
945.090	0.0145423
945.168	0.0147121
945.246	0.0145737
945.325	0.0145180
945.403	0.0145533
945.481	0.0144704
945.559	0.0146845
945.637	0.0145969
945.715	0.0145745
945.793	0.0145158
945.871	0.0144868
945.950	0.0144881
946.028	0.0144688
946.106	0.0146727
946.184	0.0143598
946.262	0.0144518
946.340	0.0144838
946.418	0.0144747
946.496	0.0144972
946.575	0.0143999
946.653	0.0144361
946.731	0.0145466
946.809	0.0145609
946.887	0.0146291
946.965	0.0145789
947.043	0.0145528
947.121	0.0146088
947.200	0.0144261
947.278	0.0146323
947.356	0.0146172
947.434	0.0146519
947.512	0.0146371
947.590	0.0145049
947.668	0.0144437
947.746	0.0144809
947.825	0.0146091
947.903	0.0144018
947.981	0.0145479
948.059	0.0144747
948.137	0.0144494
948.215	0.0145357
948.293	0.0144450
948.371	0.0145020
948.450	0.0144606
948.528	0.0144870
948.606	0.0143904
948.684	0.0144328
948.762	0.0144244
948.840	0.0145628
948.918	0.0144725
948.996	0.0145012
949.075	0.0144496
949.153	0.0143737
949.231	0.0145374
949.309	0.0143481
949.387	0.0143752
949.465	0.0145120
949.543	0.0143947
949.621	0.0143453
949.700	0.0145235
949.778	0.0145900
949.856	0.0143557
949.934	0.0143653
950.012	0.0144552
950.090	0.0143841
950.168	0.0144128
950.246	0.0144089
950.325	0.0143755
950.403	0.0145701
950.481	0.0144282
950.559	0.0144503
950.637	0.0145283
950.715	0.0144582
950.793	0.0143500
950.871	0.0145628
950.950	0.0144888
951.028	0.0144878
951.106	0.0144939
951.184	0.0145831
951.262	0.0146706
951.340	0.0146567
951.418	0.0145062
951.496	0.0145038
951.575	0.0145753
951.653	0.0146062
951.731	0.0145562
951.809	0.0144563
951.887	0.0143896
951.965	0.0144150
952.043	0.0143365
952.121	0.0143631
952.200	0.0143932
952.278	0.0144264
952.356	0.0145193
952.434	0.0144521
952.512	0.0144027
952.590	0.0144254
952.668	0.0144649
952.746	0.0144202
952.825	0.0145744
952.903	0.0146452
952.981	0.0145381
953.059	0.0144885
953.137	0.0144263
953.215	0.0144250
953.293	0.0145292
953.371	0.0145083
953.450	0.0145401
953.528	0.0144522
953.606	0.0145102
953.684	0.0144089
953.762	0.0145365
953.840	0.0144798
953.918	0.0144614
953.996	0.0145528
954.075	0.0145505
954.153	0.0144065
954.231	0.0144389
954.309	0.0143726
954.387	0.0144057
954.465	0.0143647
954.543	0.0145074
954.621	0.0144719
954.700	0.0144618
954.778	0.0143419
954.856	0.0143855
954.934	0.0145292
955.012	0.0144907
955.090	0.0146638
955.168	0.0145995
955.246	0.0145249
955.325	0.0144508
955.403	0.0144692
955.481	0.0144777
955.559	0.0146615
955.637	0.0144547
955.715	0.0144968
955.793	0.0144660
955.871	0.0144585
955.950	0.0145067
956.028	0.0143975
956.106	0.0144572
956.184	0.0145746
956.262	0.0145599
956.340	0.0144248
956.418	0.0144666
956.496	0.0144544
956.575	0.0145182
956.653	0.0145103
956.731	0.0144272
956.809	0.0143620
956.887	0.0145107
956.965	0.0145715
957.043	0.0147137
957.121	0.0145415
957.200	0.0146064
957.278	0.0145500
957.356	0.0145426
957.434	0.0146000
957.512	0.0146709
957.590	0.0146961
957.668	0.0144656
957.746	0.0146040
957.825	0.0145734
957.903	0.0146242
957.981	0.0146365
958.059	0.0144230
958.137	0.0145942
958.215	0.0146223
958.293	0.0145361
958.371	0.0145174
958.450	0.0144940
958.528	0.0144302
958.606	0.0143077
958.684	0.0145272
958.762	0.0144451
958.840	0.0145972
958.918	0.0144373
958.996	0.0143884
959.075	0.0144360
959.153	0.0145951
959.231	0.0146608
959.309	0.0145015
959.387	0.0145381
959.465	0.0145675
959.543	0.0146403
959.621	0.0145786
959.700	0.0145679
959.778	0.0145625
959.856	0.0146336
959.934	0.0146436
960.012	0.0146511
960.090	0.0145201
960.168	0.0146564
960.246	0.0145684
960.325	0.0145820
960.403	0.0144616
960.481	0.0145180
960.559	0.0145308
960.637	0.0146299
960.715	0.0145256
960.793	0.0144598
960.871	0.0145441
960.950	0.0144643
961.028	0.0144608
961.106	0.0147253
961.184	0.0145284
961.262	0.0146159
961.340	0.0145193
961.418	0.0145791
961.496	0.0145870
961.575	0.0145889
961.653	0.0146564
961.731	0.0143612
961.809	0.0144467
961.887	0.0146004
961.965	0.0146345
962.043	0.0144326
962.121	0.0145119
962.200	0.0146204
962.278	0.0145452
962.356	0.0144805
962.434	0.0145263
962.512	0.0145097
962.590	0.0145893
962.668	0.0144505
962.746	0.0146044
962.825	0.0147542
962.903	0.0144727
962.981	0.0144622
963.059	0.0144704
963.137	0.0144215
963.215	0.0144794
963.293	0.0145187
963.371	0.0144403
963.450	0.0143917
963.528	0.0146098
963.606	0.0144942
963.684	0.0143658
963.762	0.0144948
963.840	0.0145570
963.918	0.0144333
963.996	0.0145625
964.075	0.0146271
964.153	0.0146381
964.231	0.0145213
964.309	0.0144814
964.387	0.0145086
964.465	0.0144160
964.543	0.0145716
964.621	0.0146145
964.700	0.0144549
964.778	0.0144794
964.856	0.0144250
964.934	0.0144670
965.012	0.0144754
965.090	0.0144791
965.168	0.0144080
965.246	0.0145762
965.325	0.0144549
965.403	0.0144817
965.481	0.0144793
965.559	0.0143852
965.637	0.0144716
965.715	0.0146532
965.793	0.0145155
965.871	0.0145600
965.950	0.0146959
966.028	0.0145152
966.106	0.0144862
966.184	0.0145322
966.262	0.0145229
966.340	0.0146150
966.418	0.0145448
966.496	0.0144927
966.575	0.0145001
966.653	0.0143859
966.731	0.0146410
966.809	0.0146358
966.887	0.0144797
966.965	0.0145905
967.043	0.0146134
967.121	0.0145354
967.200	0.0143835
967.278	0.0146057
967.356	0.0145294
967.434	0.0144378
967.512	0.0145201
967.590	0.0144888
967.668	0.0145470
967.746	0.0144377
967.825	0.0145695
967.903	0.0144757
967.981	0.0144121
968.059	0.0144401
968.137	0.0143848
968.215	0.0144646
968.293	0.0143964
968.371	0.0145516
968.450	0.0144804
968.528	0.0142884
968.606	0.0144007
968.684	0.0144415
968.762	0.0145357
968.840	0.0143828
968.918	0.0145866
968.996	0.0144769
969.075	0.0144350
969.153	0.0146053
969.231	0.0146075
969.309	0.0144796
969.387	0.0145861
969.465	0.0145751
969.543	0.0144935
969.621	0.0145147
969.700	0.0145020
969.778	0.0145986
969.856	0.0145771
969.934	0.0144565
970.012	0.0145620
970.090	0.0145512
970.168	0.0145087
970.246	0.0144953
970.325	0.0145936
970.403	0.0144703
970.481	0.0146110
970.559	0.0143743
970.637	0.0145528
970.715	0.0145283
970.793	0.0145372
970.871	0.0145661
970.950	0.0143551
971.028	0.0144241
971.106	0.0146114
971.184	0.0144897
971.262	0.0144360
971.340	0.0145122
971.418	0.0143404
971.496	0.0144690
971.575	0.0143478
971.653	0.0145683
971.731	0.0144908
971.809	0.0144469
971.887	0.0145151
971.965	0.0145418
972.043	0.0146343
972.121	0.0145082
972.200	0.0145723
972.278	0.0145361
972.356	0.0146281
972.434	0.0146410
972.512	0.0145069
972.590	0.0146095
972.668	0.0146104
972.746	0.0145792
972.825	0.0146152
972.903	0.0146478
972.981	0.0145309
973.059	0.0146374
973.137	0.0144922
973.215	0.0144097
973.293	0.0145040
973.371	0.0146029
973.450	0.0144233
973.528	0.0145485
973.606	0.0144754
973.684	0.0143188
973.762	0.0143925
973.840	0.0144357
973.918	0.0143867
973.996	0.0143355
974.075	0.0145245
974.153	0.0144299
974.231	0.0143409
974.309	0.0145563
974.387	0.0143953
974.465	0.0144173
974.543	0.0144788
974.621	0.0144525
974.700	0.0144522
974.778	0.0144181
974.856	0.0144712
974.934	0.0146577
975.012	0.0144551
975.090	0.0145292
975.168	0.0145478
975.246	0.0146408
975.325	0.0145641
975.403	0.0145290
975.481	0.0145661
975.559	0.0144283
975.637	0.0145000
975.715	0.0145671
975.793	0.0144774
975.871	0.0144475
975.950	0.0144555
976.028	0.0145318
976.106	0.0145557
976.184	0.0146725
976.262	0.0145364
976.340	0.0144423
976.418	0.0144361
976.496	0.0144093
976.575	0.0145595
976.653	0.0143591
976.731	0.0144717
976.809	0.0146022
976.887	0.0144549
976.965	0.0144498
977.043	0.0143599
977.121	0.0144398
977.200	0.0144498
977.278	0.0143015
977.356	0.0144538
977.434	0.0145779
977.512	0.0144762
977.590	0.0145318
977.668	0.0144397
977.746	0.0144959
977.825	0.0145093
977.903	0.0145949
977.981	0.0147454
978.059	0.0145902
978.137	0.0144830
978.215	0.0146296
978.293	0.0144428
978.371	0.0145449
978.450	0.0145843
978.528	0.0145595
978.606	0.0144615
978.684	0.0144648
978.762	0.0146411
978.840	0.0145528
978.918	0.0143959
978.996	0.0146574
979.075	0.0145109
979.153	0.0144549
979.231	0.0146051
979.309	0.0146480
979.387	0.0144063
979.465	0.0143588
979.543	0.0143414
979.621	0.0144319
979.700	0.0143587
979.778	0.0144199
979.856	0.0144184
979.934	0.0143012
980.012	0.0143387
980.090	0.0144453
980.168	0.0144533
980.246	0.0144337
980.325	0.0145831
980.403	0.0144084
980.481	0.0145241
980.559	0.0145279
980.637	0.0145207
980.715	0.0145892
980.793	0.0145383
980.871	0.0145631
980.950	0.0146362
981.028	0.0145316
981.106	0.0145804
981.184	0.0145901
981.262	0.0147398
981.340	0.0146103
981.418	0.0145735
981.496	0.0144491
981.575	0.0146387
981.653	0.0145483
981.731	0.0144171
981.809	0.0145254
981.887	0.0144780
981.965	0.0144974
982.043	0.0144958
982.121	0.0144392
982.200	0.0144922
982.278	0.0144543
982.356	0.0144567
982.434	0.0145143
982.512	0.0146873
982.590	0.0145445
982.668	0.0144733
982.746	0.0145700
982.825	0.0143861
982.903	0.0144087
982.981	0.0145112
983.059	0.0144283
983.137	0.0145152
983.215	0.0143698
983.293	0.0143751
983.371	0.0145445
983.450	0.0144563
983.528	0.0145095
983.606	0.0146484
983.684	0.0145547
983.762	0.0144856
983.840	0.0143559
983.918	0.0144910
983.996	0.0145910
984.075	0.0144980
984.153	0.0142458
984.231	0.0144378
984.309	0.0145792
984.387	0.0144549
984.465	0.0144820
984.543	0.0144812
984.621	0.0144938
984.700	0.0144371
984.778	0.0145659
984.856	0.0146146
984.934	0.0145091
985.012	0.0145650
985.090	0.0146663
985.168	0.0145415
985.246	0.0144820
985.325	0.0145452
985.403	0.0145708
985.481	0.0145139
985.559	0.0145377
985.637	0.0144762
985.715	0.0144462
985.793	0.0143921
985.871	0.0143855
985.950	0.0144845
986.028	0.0145313
986.106	0.0145664
986.184	0.0145000
986.262	0.0144396
986.340	0.0145472
986.418	0.0144622
986.496	0.0145506
986.575	0.0146171
986.653	0.0146194
986.731	0.0145911
986.809	0.0147146
986.887	0.0146847
986.965	0.0145559
987.043	0.0145985
987.121	0.0146273
987.200	0.0146188
987.278	0.0146117
987.356	0.0146751
987.434	0.0146108
987.512	0.0145788
987.590	0.0145081
987.668	0.0145299
987.746	0.0145446
987.825	0.0145419
987.903	0.0145360
987.981	0.0145761
988.059	0.0145159
988.137	0.0144460
988.215	0.0146085
988.293	0.0146676
988.371	0.0145083
988.450	0.0145010
988.528	0.0145451
988.606	0.0144647
988.684	0.0145260
988.762	0.0145105
988.840	0.0144622
988.918	0.0144685
988.996	0.0145962
989.075	0.0145061
989.153	0.0145018
989.231	0.0143960
989.309	0.0144405
989.387	0.0144866
989.465	0.0146036
989.543	0.0144790
989.621	0.0144933
989.700	0.0143887
989.778	0.0144254
989.856	0.0145587
989.934	0.0146689
990.012	0.0146278
990.090	0.0146288
990.168	0.0144698
990.246	0.0146131
990.325	0.0146146
990.403	0.0145232
990.481	0.0144733
990.559	0.0145279
990.637	0.0144129
990.715	0.0143369
990.793	0.0143938
990.871	0.0144305
990.950	0.0144546
991.028	0.0144092
991.106	0.0143789
991.184	0.0144585
991.262	0.0143418
991.340	0.0144437
991.418	0.0145329
991.496	0.0144969
991.575	0.0145270
991.653	0.0143977
991.731	0.0145038
991.809	0.0146007
991.887	0.0144550
991.965	0.0144601
992.043	0.0145708
992.121	0.0145470
992.200	0.0146239
992.278	0.0145347
992.356	0.0144170
992.434	0.0144922
992.512	0.0145104
992.590	0.0144668
992.668	0.0144720
992.746	0.0143874
992.825	0.0145042
992.903	0.0144998
992.981	0.0144218
993.059	0.0144701
993.137	0.0143655
993.215	0.0143644
993.293	0.0144726
993.371	0.0143439
993.450	0.0142317
993.528	0.0143857
993.606	0.0143613
993.684	0.0143834
993.762	0.0144032
993.840	0.0145036
993.918	0.0144093
993.996	0.0144706
994.075	0.0145425
994.153	0.0144709
994.231	0.0144780
994.309	0.0145874
994.387	0.0145004
994.465	0.0145933
994.543	0.0145080
994.621	0.0144872
994.700	0.0145460
994.778	0.0145480
994.856	0.0145432
994.934	0.0144862
995.012	0.0144527
995.090	0.0145845
995.168	0.0144098
995.246	0.0143874
995.325	0.0143752
995.403	0.0143735
995.481	0.0145125
995.559	0.0144479
995.637	0.0144738
995.715	0.0146150
995.793	0.0144541
995.871	0.0144364
995.950	0.0146127
996.028	0.0144998
996.106	0.0145004
996.184	0.0145066
996.262	0.0145351
996.340	0.0145830
996.418	0.0145025
996.496	0.0145406
996.575	0.0145380
996.653	0.0145747
996.731	0.0145398
996.809	0.0145796
996.887	0.0145441
996.965	0.0145586
997.043	0.0146219
997.121	0.0145190
997.200	0.0145364
997.278	0.0143142
997.356	0.0145786
997.434	0.0146405
997.512	0.0145985
997.590	0.0146133
997.668	0.0145290
997.746	0.0144245
997.825	0.0145792
997.903	0.0145757
997.981	0.0144199
998.059	0.0145497
998.137	0.0143370
998.215	0.0144736
998.293	0.0145041
998.371	0.0145415
998.450	0.0145451
998.528	0.0145516
998.606	0.0145375
998.684	0.0145718
998.762	0.0145821
998.840	0.0145199
998.918	0.0145756
