05/04/2022	21:32:03	Ver.	4.1	UNKNOWN
Optical Delay	678.989730	Delta X		0.078125	Sweeps	1	Scan Rate	0/0
Coordinates	Axis 1	NaN	Axis 2	NaN	Axis 3	NaN	Axis 4	NaN	Axis 5	NaN	Axis 6	0.000000
TX Power	0.000000	RX Power	0.000000

678.990	0.0142319
679.068	0.0144052
679.146	0.0142554
679.224	0.0140325
679.302	0.0141912
679.380	0.0140588
679.458	0.0140682
679.537	0.0140820
679.615	0.0140680
679.693	0.0141499
679.771	0.0141290
679.849	0.0141058
679.927	0.0141181
680.005	0.0140861
680.083	0.0142207
680.162	0.0142708
680.240	0.0141999
680.318	0.0142968
680.396	0.0143564
680.474	0.0143083
680.552	0.0142184
680.630	0.0142575
680.708	0.0143890
680.787	0.0142622
680.865	0.0143590
680.943	0.0141968
681.021	0.0142015
681.099	0.0143248
681.177	0.0144016
681.255	0.0141701
681.333	0.0142132
681.412	0.0141495
681.490	0.0143066
681.568	0.0142493
681.646	0.0141521
681.724	0.0141254
681.802	0.0142208
681.880	0.0140575
681.958	0.0142708
682.037	0.0141331
682.115	0.0140971
682.193	0.0141929
682.271	0.0141182
682.349	0.0141477
682.427	0.0142479
682.505	0.0142398
682.583	0.0141566
682.662	0.0142302
682.740	0.0142811
682.818	0.0142155
682.896	0.0141393
682.974	0.0141643
683.052	0.0143148
683.130	0.0144502
683.208	0.0142313
683.287	0.0142924
683.365	0.0143867
683.443	0.0141924
683.521	0.0144031
683.599	0.0144627
683.677	0.0143186
683.755	0.0143581
683.833	0.0143252
683.912	0.0143820
683.990	0.0142883
684.068	0.0142702
684.146	0.0142697
684.224	0.0142010
684.302	0.0143304
684.380	0.0143326
684.458	0.0141740
684.537	0.0141099
684.615	0.0142966
684.693	0.0140960
684.771	0.0141078
684.849	0.0141199
684.927	0.0141034
685.005	0.0142278
685.083	0.0142780
685.162	0.0143981
685.240	0.0142880
685.318	0.0142155
685.396	0.0143110
685.474	0.0143324
685.552	0.0142817
685.630	0.0144992
685.708	0.0144312
685.787	0.0143340
685.865	0.0142666
685.943	0.0142767
686.021	0.0142651
686.099	0.0143169
686.177	0.0144794
686.255	0.0143048
686.333	0.0141769
686.412	0.0141715
686.490	0.0142186
686.568	0.0142297
686.646	0.0141571
686.724	0.0141115
686.802	0.0140746
686.880	0.0142635
686.958	0.0139687
687.037	0.0139493
687.115	0.0140540
687.193	0.0139402
687.271	0.0140224
687.349	0.0140047
687.427	0.0140372
687.505	0.0141309
687.583	0.0141427
687.662	0.0140415
687.740	0.0141704
687.818	0.0141554
687.896	0.0142287
687.974	0.0142864
688.052	0.0143668
688.130	0.0144086
688.208	0.0144796
688.287	0.0146496
688.365	0.0145624
688.443	0.0146577
688.521	0.0147388
688.599	0.0145669
688.677	0.0145335
688.755	0.0143648
688.833	0.0142339
688.912	0.0142747
688.990	0.0142744
689.068	0.0140678
689.146	0.0139922
689.224	0.0139972
689.302	0.0140084
689.380	0.0139904
689.458	0.0139302
689.537	0.0138360
689.615	0.0139119
689.693	0.0137875
689.771	0.0138708
689.849	0.0138597
689.927	0.0139344
690.005	0.0140730
690.083	0.0141782
690.162	0.0143251
690.240	0.0144167
690.318	0.0145146
690.396	0.0145007
690.474	0.0145205
690.552	0.0144526
690.630	0.0146590
690.708	0.0144214
690.787	0.0144968
690.865	0.0145412
690.943	0.0144360
691.021	0.0145996
691.099	0.0145967
691.177	0.0144023
691.255	0.0144514
691.333	0.0145796
691.412	0.0146415
691.490	0.0145436
691.568	0.0145029
691.646	0.0143780
691.724	0.0143464
691.802	0.0142909
691.880	0.0142757
691.958	0.0141696
692.037	0.0141648
692.115	0.0141609
692.193	0.0139056
692.271	0.0138642
692.349	0.0138698
692.427	0.0137976
692.505	0.0138013
692.583	0.0138039
692.662	0.0137299
692.740	0.0138186
692.818	0.0138390
692.896	0.0139459
692.974	0.0138655
693.052	0.0139928
693.130	0.0141835
693.208	0.0141288
693.287	0.0142458
693.365	0.0144762
693.443	0.0145090
693.521	0.0145191
693.599	0.0145651
693.677	0.0147272
693.755	0.0146637
693.833	0.0146622
693.912	0.0145936
693.990	0.0146267
694.068	0.0144548
694.146	0.0146110
694.224	0.0146706
694.302	0.0144571
694.380	0.0144587
694.458	0.0144527
694.537	0.0142970
694.615	0.0142746
694.693	0.0143487
694.771	0.0141572
694.849	0.0141858
694.927	0.0141117
695.005	0.0138722
695.083	0.0139419
695.162	0.0139127
695.240	0.0138942
695.318	0.0139120
695.396	0.0138789
695.474	0.0138026
695.552	0.0139590
695.630	0.0139909
695.708	0.0137893
695.787	0.0139681
695.865	0.0137966
695.943	0.0139020
696.021	0.0139973
696.099	0.0139658
696.177	0.0141104
696.255	0.0141991
696.333	0.0143225
696.412	0.0146221
696.490	0.0146854
696.568	0.0146958
696.646	0.0148149
696.724	0.0148199
696.802	0.0149640
696.880	0.0149352
696.958	0.0147871
697.037	0.0147833
697.115	0.0147414
697.193	0.0145256
697.271	0.0143086
697.349	0.0142733
697.427	0.0142375
697.505	0.0141573
697.583	0.0140900
697.662	0.0141093
697.740	0.0141148
697.818	0.0140572
697.896	0.0139931
697.974	0.0139782
698.052	0.0140218
698.130	0.0139615
698.208	0.0139767
698.287	0.0140684
698.365	0.0140775
698.443	0.0141260
698.521	0.0142218
698.599	0.0143344
698.677	0.0142018
698.755	0.0140739
698.833	0.0140668
698.912	0.0140710
698.990	0.0141406
699.068	0.0141264
699.146	0.0140748
699.224	0.0139336
699.302	0.0141843
699.380	0.0141073
699.458	0.0140917
699.537	0.0142150
699.615	0.0142588
699.693	0.0144421
699.771	0.0143344
699.849	0.0145129
699.927	0.0144190
700.005	0.0145308
700.083	0.0146262
700.162	0.0145523
700.240	0.0146180
700.318	0.0145146
700.396	0.0144638
700.474	0.0144366
700.552	0.0145644
700.630	0.0144026
700.708	0.0144456
700.787	0.0144276
700.865	0.0144344
700.943	0.0142532
701.021	0.0142297
701.099	0.0142290
701.177	0.0140737
701.255	0.0139848
701.333	0.0140247
701.412	0.0139902
701.490	0.0139980
701.568	0.0140095
701.646	0.0139656
701.724	0.0139470
701.802	0.0140247
701.880	0.0141167
701.958	0.0142105
702.037	0.0142809
702.115	0.0144179
702.193	0.0144208
702.271	0.0144721
702.349	0.0143556
702.427	0.0143903
702.505	0.0143517
702.583	0.0143254
702.662	0.0143082
702.740	0.0141786
702.818	0.0140986
702.896	0.0140714
702.974	0.0141568
703.052	0.0142010
703.130	0.0143137
703.208	0.0142966
703.287	0.0143104
703.365	0.0142716
703.443	0.0142912
703.521	0.0142918
703.599	0.0143715
703.677	0.0143328
703.755	0.0142696
703.833	0.0143513
703.912	0.0142111
703.990	0.0142568
704.068	0.0141763
704.146	0.0142748
704.224	0.0142233
704.302	0.0140443
704.380	0.0140244
704.458	0.0139857
704.537	0.0138525
704.615	0.0139453
704.693	0.0138902
704.771	0.0139385
704.849	0.0138779
704.927	0.0139895
705.005	0.0141329
705.083	0.0141598
705.162	0.0141872
705.240	0.0143700
705.318	0.0144718
705.396	0.0143649
705.474	0.0143324
705.552	0.0142631
705.630	0.0142257
705.708	0.0142031
705.787	0.0142298
705.865	0.0141407
705.943	0.0141760
706.021	0.0141238
706.099	0.0140810
706.177	0.0143283
706.255	0.0143207
706.333	0.0142476
706.412	0.0145229
706.490	0.0145624
706.568	0.0145322
706.646	0.0145341
706.724	0.0145133
706.802	0.0145358
706.880	0.0144997
706.958	0.0144469
707.037	0.0143875
707.115	0.0141856
707.193	0.0141331
707.271	0.0142363
707.349	0.0140426
707.427	0.0140530
707.505	0.0139877
707.583	0.0140894
707.662	0.0139909
707.740	0.0140073
707.818	0.0140573
707.896	0.0140659
707.974	0.0139832
708.052	0.0142250
708.130	0.0143442
708.208	0.0143553
708.287	0.0144308
708.365	0.0144353
708.443	0.0144074
708.521	0.0144298
708.599	0.0144717
708.677	0.0144855
708.755	0.0143122
708.833	0.0144131
708.912	0.0142020
708.990	0.0143537
709.068	0.0142139
709.146	0.0142543
709.224	0.0142439
709.302	0.0142237
709.380	0.0143545
709.458	0.0142991
709.537	0.0143920
709.615	0.0144046
709.693	0.0142977
709.771	0.0143093
709.849	0.0143049
709.927	0.0141428
710.005	0.0141090
710.083	0.0140519
710.162	0.0141702
710.240	0.0141119
710.318	0.0142097
710.396	0.0140857
710.474	0.0140476
710.552	0.0139238
710.630	0.0140222
710.708	0.0140371
710.787	0.0140369
710.865	0.0140905
710.943	0.0141021
711.021	0.0142626
711.099	0.0142065
711.177	0.0144188
711.255	0.0143813
711.333	0.0144652
711.412	0.0143935
711.490	0.0144470
711.568	0.0144606
711.646	0.0143014
711.724	0.0143618
711.802	0.0143958
711.880	0.0143104
711.958	0.0143427
712.037	0.0142334
712.115	0.0141802
712.193	0.0141888
712.271	0.0141782
712.349	0.0141527
712.427	0.0143260
712.505	0.0144338
712.583	0.0143610
712.662	0.0142184
712.740	0.0144011
712.818	0.0143703
712.896	0.0142242
712.974	0.0141244
713.052	0.0141361
713.130	0.0141452
713.208	0.0140848
713.287	0.0141204
713.365	0.0140518
713.443	0.0140068
713.521	0.0142313
713.599	0.0141930
713.677	0.0139845
713.755	0.0141286
713.833	0.0141337
713.912	0.0142195
713.990	0.0143066
714.068	0.0144897
714.146	0.0142663
714.224	0.0141652
714.302	0.0143156
714.380	0.0144762
714.458	0.0144181
714.537	0.0142432
714.615	0.0143208
714.693	0.0142432
714.771	0.0142426
714.849	0.0142255
714.927	0.0142101
715.005	0.0142720
715.083	0.0141967
715.162	0.0141801
715.240	0.0143284
715.318	0.0143723
715.396	0.0142122
715.474	0.0143271
715.552	0.0142887
715.630	0.0142564
715.708	0.0143743
715.787	0.0143394
715.865	0.0142040
715.943	0.0144025
716.021	0.0142524
716.099	0.0142054
716.177	0.0141814
716.255	0.0141851
716.333	0.0140656
716.412	0.0140506
716.490	0.0139808
716.568	0.0140792
716.646	0.0141690
716.724	0.0141143
716.802	0.0140314
716.880	0.0140646
716.958	0.0139726
717.037	0.0139996
717.115	0.0140298
717.193	0.0141068
717.271	0.0141695
717.349	0.0143454
717.427	0.0143668
717.505	0.0142339
717.583	0.0143524
717.662	0.0143319
717.740	0.0145693
717.818	0.0143934
717.896	0.0143089
717.974	0.0141634
718.052	0.0142946
718.130	0.0140971
718.208	0.0142059
718.287	0.0142294
718.365	0.0142462
718.443	0.0142224
718.521	0.0139964
718.599	0.0142134
718.677	0.0142861
718.755	0.0143317
718.833	0.0141805
718.912	0.0143085
718.990	0.0144818
719.068	0.0143148
719.146	0.0143134
719.224	0.0142739
719.302	0.0143204
719.380	0.0144141
719.458	0.0145279
719.537	0.0144238
719.615	0.0143610
719.693	0.0142383
719.771	0.0141840
719.849	0.0142350
719.927	0.0142136
720.005	0.0140816
720.083	0.0140604
720.162	0.0141920
720.240	0.0141233
720.318	0.0141647
720.396	0.0141088
720.474	0.0140962
720.552	0.0141032
720.630	0.0140617
720.708	0.0141041
720.787	0.0142766
720.865	0.0141534
720.943	0.0142376
721.021	0.0142401
721.099	0.0141293
721.177	0.0143080
721.255	0.0142674
721.333	0.0141557
721.412	0.0143040
721.490	0.0142706
721.568	0.0141920
721.646	0.0142960
721.724	0.0142970
721.802	0.0142087
721.880	0.0142747
721.958	0.0142625
722.037	0.0140847
722.115	0.0142322
722.193	0.0143306
722.271	0.0143408
722.349	0.0142582
722.427	0.0142450
722.505	0.0143346
722.583	0.0144137
722.662	0.0144154
722.740	0.0143886
722.818	0.0144711
722.896	0.0146098
722.974	0.0144908
723.052	0.0144420
723.130	0.0143026
723.208	0.0144897
723.287	0.0143521
723.365	0.0143366
723.443	0.0143172
723.521	0.0139848
723.599	0.0140425
723.677	0.0141153
723.755	0.0140779
723.833	0.0139465
723.912	0.0139508
723.990	0.0140533
724.068	0.0141295
724.146	0.0140011
724.224	0.0139983
724.302	0.0142759
724.380	0.0140514
724.458	0.0141518
724.537	0.0142123
724.615	0.0140365
724.693	0.0142626
724.771	0.0143079
724.849	0.0143672
724.927	0.0142516
725.005	0.0143987
725.083	0.0144550
725.162	0.0145036
725.240	0.0144065
725.318	0.0144067
725.396	0.0143996
725.474	0.0144123
725.552	0.0143591
725.630	0.0145402
725.708	0.0144533
725.787	0.0144908
725.865	0.0143413
725.943	0.0144401
726.021	0.0143073
726.099	0.0143073
726.177	0.0142480
726.255	0.0142807
726.333	0.0142367
726.412	0.0141438
726.490	0.0142236
726.568	0.0141906
726.646	0.0142166
726.724	0.0141073
726.802	0.0140657
726.880	0.0141486
726.958	0.0141235
727.037	0.0139069
727.115	0.0142000
727.193	0.0139739
727.271	0.0141052
727.349	0.0140980
727.427	0.0142965
727.505	0.0143076
727.583	0.0142108
727.662	0.0141909
727.740	0.0142918
727.818	0.0142490
727.896	0.0142398
727.974	0.0143080
728.052	0.0143964
728.130	0.0143221
728.208	0.0141830
728.287	0.0143055
728.365	0.0142647
728.443	0.0142617
728.521	0.0141946
728.599	0.0141662
728.677	0.0143007
728.755	0.0142404
728.833	0.0141588
728.912	0.0141730
728.990	0.0142120
729.068	0.0142374
729.146	0.0143255
729.224	0.0141618
729.302	0.0142984
729.380	0.0142623
729.458	0.0142868
729.537	0.0144124
729.615	0.0142774
729.693	0.0142400
729.771	0.0144362
729.849	0.0143637
729.927	0.0145609
730.005	0.0144662
730.083	0.0143742
730.162	0.0142467
730.240	0.0144053
730.318	0.0142562
730.396	0.0143523
730.474	0.0142046
730.552	0.0142816
730.630	0.0141468
730.708	0.0141746
730.787	0.0141290
730.865	0.0141401
730.943	0.0142338
731.021	0.0141978
731.099	0.0141939
731.177	0.0140188
731.255	0.0140877
731.333	0.0139310
731.412	0.0139439
731.490	0.0138839
731.568	0.0139636
731.646	0.0141422
731.724	0.0140806
731.802	0.0141821
731.880	0.0141643
731.958	0.0143296
732.037	0.0143692
732.115	0.0143019
732.193	0.0143129
732.271	0.0145191
732.349	0.0144037
732.427	0.0144049
732.505	0.0144565
732.583	0.0144921
732.662	0.0144302
732.740	0.0145142
732.818	0.0144583
732.896	0.0144527
732.974	0.0142753
733.052	0.0142802
733.130	0.0143090
733.208	0.0143035
733.287	0.0143122
733.365	0.0143618
733.443	0.0143043
733.521	0.0142703
733.599	0.0144129
733.677	0.0142017
733.755	0.0140804
733.833	0.0141435
733.912	0.0139747
733.990	0.0140160
734.068	0.0140595
734.146	0.0140829
734.224	0.0141139
734.302	0.0140013
734.380	0.0140009
734.458	0.0142178
734.537	0.0141600
734.615	0.0142274
734.693	0.0142105
734.771	0.0141986
734.849	0.0142786
734.927	0.0143970
735.005	0.0143805
735.083	0.0143243
735.162	0.0143746
735.240	0.0144940
735.318	0.0144921
735.396	0.0145924
735.474	0.0143593
735.552	0.0143890
735.630	0.0145267
735.708	0.0143887
735.787	0.0143110
735.865	0.0142903
735.943	0.0142406
736.021	0.0143408
736.099	0.0141853
736.177	0.0141766
736.255	0.0143304
736.333	0.0142314
736.412	0.0141936
736.490	0.0141222
736.568	0.0141150
736.646	0.0140818
736.724	0.0141875
736.802	0.0141404
736.880	0.0140855
736.958	0.0140350
737.037	0.0140679
737.115	0.0141271
737.193	0.0141695
737.271	0.0140446
737.349	0.0141459
737.427	0.0142371
737.505	0.0141898
737.583	0.0144124
737.662	0.0143041
737.740	0.0142179
737.818	0.0142374
737.896	0.0142423
737.974	0.0143404
738.052	0.0144270
738.130	0.0144291
738.208	0.0143040
738.287	0.0143272
738.365	0.0142944
738.443	0.0142843
738.521	0.0142319
738.599	0.0140756
738.677	0.0141868
738.755	0.0142767
738.833	0.0141179
738.912	0.0139082
738.990	0.0142696
739.068	0.0140704
739.146	0.0141105
739.224	0.0142535
739.302	0.0142325
739.380	0.0141406
739.458	0.0141559
739.537	0.0142110
739.615	0.0142375
739.693	0.0141499
739.771	0.0141639
739.849	0.0142458
739.927	0.0142374
740.005	0.0142386
740.083	0.0142612
740.162	0.0141965
740.240	0.0143197
740.318	0.0141599
740.396	0.0142471
740.474	0.0142519
740.552	0.0142155
740.630	0.0142190
740.708	0.0142430
740.787	0.0141771
740.865	0.0140395
740.943	0.0141621
741.021	0.0141589
741.099	0.0142142
741.177	0.0141760
741.255	0.0142413
741.333	0.0141961
741.412	0.0142531
741.490	0.0143121
741.568	0.0142704
741.646	0.0141696
741.724	0.0142713
741.802	0.0143101
741.880	0.0143089
741.958	0.0141737
742.037	0.0142728
742.115	0.0144923
742.193	0.0143054
742.271	0.0142305
742.349	0.0144346
742.427	0.0144924
742.505	0.0142682
742.583	0.0142715
742.662	0.0144301
742.740	0.0142792
742.818	0.0143731
742.896	0.0142848
742.974	0.0142239
743.052	0.0143319
743.130	0.0143485
743.208	0.0143384
743.287	0.0143970
743.365	0.0141353
743.443	0.0141324
743.521	0.0142098
743.599	0.0140410
743.677	0.0141880
743.755	0.0143026
743.833	0.0142258
743.912	0.0140886
743.990	0.0141686
744.068	0.0140161
744.146	0.0140314
744.224	0.0139570
744.302	0.0141846
744.380	0.0140363
744.458	0.0140459
744.537	0.0140708
744.615	0.0141387
744.693	0.0141978
744.771	0.0141558
744.849	0.0142083
744.927	0.0142451
745.005	0.0142509
745.083	0.0143314
745.162	0.0144850
745.240	0.0142778
745.318	0.0144592
745.396	0.0144199
745.474	0.0142831
745.552	0.0144677
745.630	0.0143700
745.708	0.0143172
745.787	0.0143053
745.865	0.0143793
745.943	0.0143607
746.021	0.0143190
746.099	0.0144112
746.177	0.0142706
746.255	0.0141649
746.333	0.0142967
746.412	0.0141219
746.490	0.0141221
746.568	0.0143477
746.646	0.0143192
746.724	0.0141784
746.802	0.0139692
746.880	0.0139893
746.958	0.0139050
747.037	0.0141173
747.115	0.0141196
747.193	0.0140678
747.271	0.0142638
747.349	0.0141856
747.427	0.0140289
747.505	0.0141696
747.583	0.0141979
747.662	0.0142915
747.740	0.0143115
747.818	0.0142326
747.896	0.0142427
747.974	0.0143105
748.052	0.0144992
748.130	0.0144076
748.208	0.0143386
748.287	0.0144280
748.365	0.0144347
748.443	0.0143051
748.521	0.0143185
748.599	0.0143600
748.677	0.0142065
748.755	0.0144286
748.833	0.0143352
748.912	0.0142044
748.990	0.0143011
749.068	0.0141309
749.146	0.0142315
749.224	0.0143435
749.302	0.0143274
749.380	0.0143157
749.458	0.0142276
749.537	0.0142075
749.615	0.0142342
749.693	0.0142702
749.771	0.0143075
749.849	0.0142900
749.927	0.0143382
750.005	0.0142177
750.083	0.0142496
750.162	0.0143173
750.240	0.0142915
750.318	0.0143383
750.396	0.0145024
750.474	0.0143317
750.552	0.0142183
750.630	0.0143106
750.708	0.0142812
750.787	0.0142843
750.865	0.0142030
750.943	0.0142069
751.021	0.0141587
751.099	0.0142274
751.177	0.0141796
751.255	0.0142346
751.333	0.0141636
751.412	0.0141171
751.490	0.0142223
751.568	0.0140405
751.646	0.0140758
751.724	0.0140262
751.802	0.0142043
751.880	0.0140094
751.958	0.0140363
752.037	0.0141412
752.115	0.0140829
752.193	0.0141493
752.271	0.0142797
752.349	0.0140941
752.427	0.0141557
752.505	0.0142854
752.583	0.0142307
752.662	0.0142514
752.740	0.0142741
752.818	0.0141873
752.896	0.0144126
752.974	0.0143810
753.052	0.0143138
753.130	0.0144077
753.208	0.0143640
753.287	0.0144061
753.365	0.0143694
753.443	0.0143129
753.521	0.0143553
753.599	0.0142484
753.677	0.0142341
753.755	0.0142204
753.833	0.0143482
753.912	0.0142702
753.990	0.0141960
754.068	0.0141689
754.146	0.0142477
754.224	0.0142307
754.302	0.0141068
754.380	0.0141278
754.458	0.0141488
754.537	0.0140462
754.615	0.0140939
754.693	0.0141875
754.771	0.0141975
754.849	0.0142793
754.927	0.0140727
755.005	0.0142632
755.083	0.0142422
755.162	0.0141989
755.240	0.0143433
755.318	0.0142117
755.396	0.0143407
755.474	0.0140878
755.552	0.0141377
755.630	0.0143187
755.708	0.0142397
755.787	0.0143701
755.865	0.0142694
755.943	0.0143065
756.021	0.0142934
756.099	0.0142025
756.177	0.0143463
756.255	0.0142894
756.333	0.0142710
756.412	0.0143524
756.490	0.0142442
756.568	0.0141394
756.646	0.0142005
756.724	0.0142867
756.802	0.0141270
756.880	0.0142061
756.958	0.0141182
757.037	0.0140501
757.115	0.0142194
757.193	0.0142923
757.271	0.0142139
757.349	0.0142409
757.427	0.0141779
757.505	0.0141703
757.583	0.0142545
757.662	0.0143343
757.740	0.0142354
757.818	0.0142236
757.896	0.0142716
757.974	0.0142715
758.052	0.0143133
758.130	0.0142822
758.208	0.0143579
758.287	0.0144891
758.365	0.0144173
758.443	0.0143241
758.521	0.0143364
758.599	0.0142748
758.677	0.0143880
758.755	0.0143945
758.833	0.0141553
758.912	0.0142588
758.990	0.0143092
759.068	0.0143262
759.146	0.0141223
759.224	0.0139441
759.302	0.0142562
759.380	0.0141733
759.458	0.0141247
759.537	0.0141039
759.615	0.0141450
759.693	0.0141183
759.771	0.0142804
759.849	0.0141802
759.927	0.0141815
760.005	0.0141454
760.083	0.0142808
760.162	0.0144155
760.240	0.0142363
760.318	0.0142609
760.396	0.0142206
760.474	0.0142493
760.552	0.0143070
760.630	0.0142719
760.708	0.0142359
760.787	0.0143273
760.865	0.0143183
760.943	0.0142078
761.021	0.0141618
761.099	0.0141486
761.177	0.0142043
761.255	0.0141957
761.333	0.0142214
761.412	0.0142203
761.490	0.0141772
761.568	0.0141605
761.646	0.0140541
761.724	0.0141451
761.802	0.0140817
761.880	0.0143369
761.958	0.0142235
762.037	0.0142150
762.115	0.0143021
762.193	0.0142636
762.271	0.0141937
762.349	0.0141674
762.427	0.0142879
762.505	0.0144487
762.583	0.0142123
762.662	0.0142097
762.740	0.0142898
762.818	0.0142371
762.896	0.0141362
762.974	0.0141968
763.052	0.0142261
763.130	0.0142389
763.208	0.0142580
763.287	0.0141401
763.365	0.0142033
763.443	0.0142458
763.521	0.0142036
763.599	0.0143108
763.677	0.0142735
763.755	0.0142785
763.833	0.0141263
763.912	0.0141984
763.990	0.0141569
764.068	0.0141325
764.146	0.0141077
764.224	0.0140788
764.302	0.0141212
764.380	0.0141685
764.458	0.0140044
764.537	0.0140778
764.615	0.0141653
764.693	0.0140816
764.771	0.0141160
764.849	0.0141599
764.927	0.0140951
765.005	0.0141428
765.083	0.0141472
765.162	0.0142631
765.240	0.0139813
765.318	0.0142073
765.396	0.0142773
765.474	0.0143882
765.552	0.0141125
765.630	0.0142996
765.708	0.0142040
765.787	0.0142535
765.865	0.0142339
765.943	0.0142699
766.021	0.0142745
766.099	0.0141631
766.177	0.0142589
766.255	0.0142639
766.333	0.0143693
766.412	0.0142199
766.490	0.0142887
766.568	0.0143847
766.646	0.0141512
766.724	0.0141246
766.802	0.0141351
766.880	0.0142244
766.958	0.0141632
767.037	0.0141231
767.115	0.0141913
767.193	0.0142098
767.271	0.0140244
767.349	0.0142413
767.427	0.0140637
767.505	0.0140163
767.583	0.0141774
767.662	0.0142094
767.740	0.0142049
767.818	0.0141463
767.896	0.0142831
767.974	0.0142013
768.052	0.0143563
768.130	0.0141126
768.208	0.0142128
768.287	0.0143710
768.365	0.0141959
768.443	0.0142077
768.521	0.0142788
768.599	0.0142714
768.677	0.0142069
768.755	0.0142149
768.833	0.0142958
768.912	0.0143980
768.990	0.0142313
769.068	0.0142754
769.146	0.0143319
769.224	0.0143121
769.302	0.0142590
769.380	0.0143423
769.458	0.0141720
769.537	0.0141399
769.615	0.0142421
769.693	0.0143029
769.771	0.0143042
769.849	0.0143666
769.927	0.0141994
770.005	0.0142869
770.083	0.0143128
770.162	0.0142509
770.240	0.0142497
770.318	0.0143235
770.396	0.0143974
770.474	0.0141934
770.552	0.0142349
770.630	0.0143155
770.708	0.0143495
770.787	0.0143066
770.865	0.0142712
770.943	0.0142420
771.021	0.0142703
771.099	0.0141754
771.177	0.0142428
771.255	0.0143204
771.333	0.0141383
771.412	0.0143093
771.490	0.0142818
771.568	0.0141213
771.646	0.0142802
771.724	0.0143026
771.802	0.0141349
771.880	0.0142001
771.958	0.0141156
772.037	0.0141035
772.115	0.0142793
772.193	0.0142878
772.271	0.0142335
772.349	0.0142621
772.427	0.0141212
772.505	0.0142094
772.583	0.0141808
772.662	0.0143732
772.740	0.0143569
772.818	0.0143258
772.896	0.0142599
772.974	0.0142442
773.052	0.0143704
773.130	0.0143941
773.208	0.0143542
773.287	0.0142932
773.365	0.0142292
773.443	0.0143859
773.521	0.0143580
773.599	0.0142155
773.677	0.0141981
773.755	0.0143096
773.833	0.0143551
773.912	0.0142891
773.990	0.0144034
774.068	0.0142776
774.146	0.0142480
774.224	0.0142059
774.302	0.0142021
774.380	0.0142354
774.458	0.0142109
774.537	0.0141829
774.615	0.0142255
774.693	0.0143565
774.771	0.0142488
774.849	0.0142463
774.927	0.0142090
775.005	0.0143301
775.083	0.0142557
775.162	0.0142743
775.240	0.0142659
775.318	0.0142839
775.396	0.0145366
775.474	0.0143725
775.552	0.0143765
775.630	0.0143350
775.708	0.0143521
775.787	0.0142599
775.865	0.0144164
775.943	0.0144596
776.021	0.0143170
776.099	0.0142782
776.177	0.0141702
776.255	0.0142964
776.333	0.0143605
776.412	0.0143708
776.490	0.0141698
776.568	0.0141967
776.646	0.0141505
776.724	0.0139935
776.802	0.0143274
776.880	0.0142580
776.958	0.0140842
777.037	0.0140823
777.115	0.0140660
777.193	0.0144030
777.271	0.0142869
777.349	0.0143210
777.427	0.0143015
777.505	0.0142648
777.583	0.0144141
777.662	0.0142728
777.740	0.0141792
777.818	0.0144091
777.896	0.0143071
777.974	0.0143105
778.052	0.0142293
778.130	0.0142683
778.208	0.0142730
778.287	0.0144002
778.365	0.0141670
778.443	0.0143700
778.521	0.0142285
778.599	0.0143790
778.677	0.0143065
778.755	0.0142714
778.833	0.0143170
778.912	0.0143099
778.990	0.0143929
779.068	0.0141429
779.146	0.0141772
779.224	0.0142590
779.302	0.0141244
779.380	0.0141734
779.458	0.0142941
779.537	0.0144060
779.615	0.0142365
779.693	0.0140684
779.771	0.0141967
779.849	0.0142803
779.927	0.0142337
780.005	0.0141714
780.083	0.0141262
780.162	0.0141555
780.240	0.0143423
780.318	0.0142713
780.396	0.0142690
780.474	0.0141666
780.552	0.0142709
780.630	0.0141322
780.708	0.0142620
780.787	0.0141637
780.865	0.0141196
780.943	0.0143382
781.021	0.0142982
781.099	0.0141348
781.177	0.0143488
781.255	0.0143677
781.333	0.0141161
781.412	0.0143520
781.490	0.0142034
781.568	0.0143223
781.646	0.0142120
781.724	0.0142847
781.802	0.0142525
781.880	0.0143374
781.958	0.0142338
782.037	0.0143031
782.115	0.0142389
782.193	0.0142773
782.271	0.0142541
782.349	0.0143676
782.427	0.0142688
782.505	0.0141898
782.583	0.0142731
782.662	0.0142615
782.740	0.0143472
782.818	0.0143508
782.896	0.0142934
782.974	0.0141686
783.052	0.0142136
783.130	0.0143504
783.208	0.0143036
783.287	0.0142288
783.365	0.0142275
783.443	0.0142797
783.521	0.0143269
783.599	0.0143462
783.677	0.0143822
783.755	0.0142033
783.833	0.0142313
783.912	0.0142412
783.990	0.0142880
784.068	0.0142577
784.146	0.0141869
784.224	0.0143668
784.302	0.0143018
784.380	0.0142620
784.458	0.0143095
784.537	0.0142551
784.615	0.0143237
784.693	0.0141786
784.771	0.0143238
784.849	0.0142023
784.927	0.0143701
785.005	0.0143463
785.083	0.0141184
785.162	0.0142123
785.240	0.0142223
785.318	0.0142269
785.396	0.0142200
785.474	0.0142756
785.552	0.0141328
785.630	0.0142072
785.708	0.0142820
785.787	0.0143055
785.865	0.0141552
785.943	0.0144757
786.021	0.0144613
786.099	0.0143444
786.177	0.0143226
786.255	0.0143121
786.333	0.0143143
786.412	0.0141875
786.490	0.0142171
786.568	0.0142614
786.646	0.0143562
786.724	0.0142946
786.802	0.0142632
786.880	0.0143678
786.958	0.0143141
787.037	0.0142146
787.115	0.0143037
787.193	0.0141615
787.271	0.0141703
787.349	0.0141655
787.427	0.0142985
787.505	0.0141418
787.583	0.0142889
787.662	0.0143054
787.740	0.0143175
787.818	0.0142509
787.896	0.0142432
787.974	0.0143587
788.052	0.0142046
788.130	0.0141832
788.208	0.0142509
788.287	0.0141651
788.365	0.0142525
788.443	0.0142668
788.521	0.0141934
788.599	0.0141559
788.677	0.0142847
788.755	0.0143430
788.833	0.0142898
788.912	0.0142605
788.990	0.0141302
789.068	0.0143530
789.146	0.0142772
789.224	0.0141603
789.302	0.0142953
789.380	0.0143236
789.458	0.0142779
789.537	0.0143169
789.615	0.0141620
789.693	0.0142755
789.771	0.0143215
789.849	0.0141529
789.927	0.0143465
790.005	0.0143247
790.083	0.0143444
790.162	0.0143819
790.240	0.0143430
790.318	0.0142851
790.396	0.0142354
790.474	0.0142579
790.552	0.0143230
790.630	0.0142127
790.708	0.0141954
790.787	0.0142323
790.865	0.0141451
790.943	0.0142683
791.021	0.0142876
791.099	0.0141339
791.177	0.0142481
791.255	0.0141893
791.333	0.0141470
791.412	0.0141165
791.490	0.0142593
791.568	0.0141928
791.646	0.0141098
791.724	0.0142289
791.802	0.0141480
791.880	0.0141078
791.958	0.0141952
792.037	0.0142178
792.115	0.0143635
792.193	0.0142556
792.271	0.0143452
792.349	0.0141765
792.427	0.0143832
792.505	0.0143471
792.583	0.0142672
792.662	0.0141319
792.740	0.0145181
792.818	0.0143348
792.896	0.0143242
792.974	0.0143530
793.052	0.0143242
793.130	0.0144648
793.208	0.0142955
793.287	0.0142799
793.365	0.0143110
793.443	0.0143784
793.521	0.0143101
793.599	0.0143573
793.677	0.0143530
793.755	0.0142963
793.833	0.0140854
793.912	0.0142596
793.990	0.0142940
794.068	0.0143022
794.146	0.0143519
794.224	0.0142114
794.302	0.0142274
794.380	0.0142649
794.458	0.0143012
794.537	0.0142171
794.615	0.0142975
794.693	0.0141808
794.771	0.0142793
794.849	0.0142192
794.927	0.0141383
795.005	0.0143526
795.083	0.0144125
795.162	0.0143120
795.240	0.0142458
795.318	0.0143484
795.396	0.0143452
795.474	0.0142457
795.552	0.0141669
795.630	0.0143540
795.708	0.0144674
795.787	0.0142678
795.865	0.0142248
795.943	0.0143793
796.021	0.0143555
796.099	0.0143497
796.177	0.0141821
796.255	0.0141659
796.333	0.0143258
796.412	0.0143574
796.490	0.0141980
796.568	0.0141805
796.646	0.0142877
796.724	0.0142662
796.802	0.0141735
796.880	0.0143242
796.958	0.0142738
797.037	0.0143059
797.115	0.0143389
797.193	0.0141448
797.271	0.0142400
797.349	0.0141794
797.427	0.0142786
797.505	0.0142365
797.583	0.0143500
797.662	0.0143166
797.740	0.0142525
797.818	0.0144347
797.896	0.0141512
797.974	0.0142725
798.052	0.0143498
798.130	0.0143245
798.208	0.0141264
798.287	0.0143210
798.365	0.0144107
798.443	0.0143770
798.521	0.0143320
798.599	0.0142693
798.677	0.0143638
798.755	0.0143659
798.833	0.0141566
798.912	0.0142091
798.990	0.0144186
799.068	0.0143242
799.146	0.0142144
799.224	0.0142058
799.302	0.0142230
799.380	0.0142149
799.458	0.0142345
799.537	0.0142829
799.615	0.0142005
799.693	0.0142978
799.771	0.0142368
799.849	0.0141554
799.927	0.0141878
800.005	0.0142794
800.083	0.0141975
800.162	0.0142767
800.240	0.0141922
800.318	0.0141907
800.396	0.0142626
800.474	0.0142245
800.552	0.0143247
800.630	0.0143819
800.708	0.0143040
800.787	0.0142037
800.865	0.0141737
800.943	0.0142188
801.021	0.0143934
801.099	0.0143152
801.177	0.0142592
801.255	0.0142820
801.333	0.0142200
801.412	0.0142657
801.490	0.0142945
801.568	0.0145200
801.646	0.0142280
801.724	0.0142187
801.802	0.0140931
801.880	0.0142776
801.958	0.0141896
802.037	0.0140999
802.115	0.0142556
802.193	0.0141633
802.271	0.0141869
802.349	0.0142818
802.427	0.0142174
802.505	0.0141649
802.583	0.0142529
802.662	0.0143353
802.740	0.0143515
802.818	0.0143413
802.896	0.0142402
802.974	0.0142153
803.052	0.0143641
803.130	0.0143118
803.208	0.0142306
803.287	0.0141915
803.365	0.0141725
803.443	0.0142406
803.521	0.0143377
803.599	0.0142978
803.677	0.0142641
803.755	0.0140404
803.833	0.0142739
803.912	0.0140984
803.990	0.0142516
804.068	0.0143630
804.146	0.0142252
804.224	0.0142036
804.302	0.0142126
804.380	0.0142552
804.458	0.0142167
804.537	0.0142681
804.615	0.0142797
804.693	0.0142706
804.771	0.0143066
804.849	0.0142915
804.927	0.0143635
805.005	0.0142450
805.083	0.0142903
805.162	0.0142698
805.240	0.0142877
805.318	0.0142061
805.396	0.0144106
805.474	0.0144244
805.552	0.0142931
805.630	0.0144009
805.708	0.0143483
805.787	0.0143526
805.865	0.0143244
805.943	0.0143093
806.021	0.0143179
806.099	0.0143213
806.177	0.0142928
806.255	0.0141420
806.333	0.0142676
806.412	0.0144131
806.490	0.0142758
806.568	0.0141714
806.646	0.0142357
806.724	0.0141319
806.802	0.0142379
806.880	0.0141972
806.958	0.0142733
807.037	0.0142271
807.115	0.0141785
807.193	0.0142132
807.271	0.0141749
807.349	0.0143068
807.427	0.0143125
807.505	0.0142670
807.583	0.0142978
807.662	0.0142621
807.740	0.0143257
807.818	0.0143733
807.896	0.0144056
807.974	0.0143310
808.052	0.0142944
808.130	0.0142249
808.208	0.0142597
808.287	0.0143726
808.365	0.0141521
808.443	0.0141582
808.521	0.0142131
808.599	0.0141584
808.677	0.0142836
808.755	0.0142202
808.833	0.0142457
808.912	0.0141000
808.990	0.0141540
809.068	0.0143172
809.146	0.0143045
809.224	0.0143515
809.302	0.0143113
809.380	0.0142402
809.458	0.0142712
809.537	0.0143185
809.615	0.0141473
809.693	0.0142465
809.771	0.0142880
809.849	0.0143617
809.927	0.0143398
810.005	0.0141788
810.083	0.0143064
810.162	0.0143505
810.240	0.0141829
810.318	0.0143073
810.396	0.0143616
810.474	0.0143137
810.552	0.0142625
810.630	0.0144358
810.708	0.0142677
810.787	0.0141299
810.865	0.0141507
810.943	0.0142850
811.021	0.0143297
811.099	0.0144772
811.177	0.0144104
811.255	0.0142430
811.333	0.0143119
811.412	0.0143365
811.490	0.0142908
811.568	0.0142393
811.646	0.0142742
811.724	0.0141965
811.802	0.0141080
811.880	0.0142788
811.958	0.0142726
812.037	0.0141685
812.115	0.0143050
812.193	0.0142462
812.271	0.0141071
812.349	0.0141643
812.427	0.0141802
812.505	0.0141416
812.583	0.0141932
812.662	0.0140800
812.740	0.0141483
812.818	0.0142439
812.896	0.0142471
812.974	0.0142735
813.052	0.0143287
813.130	0.0142226
813.208	0.0143122
813.287	0.0143599
813.365	0.0140941
813.443	0.0142724
813.521	0.0144873
813.599	0.0145040
813.677	0.0142928
813.755	0.0144247
813.833	0.0142707
813.912	0.0143553
813.990	0.0142779
814.068	0.0143970
814.146	0.0143716
814.224	0.0141830
814.302	0.0143324
814.380	0.0143149
814.458	0.0142905
814.537	0.0142741
814.615	0.0142735
814.693	0.0141985
814.771	0.0142902
814.849	0.0142815
814.927	0.0141483
815.005	0.0142720
815.083	0.0142725
815.162	0.0142119
815.240	0.0142338
815.318	0.0143750
815.396	0.0143577
815.474	0.0143131
815.552	0.0143131
815.630	0.0144016
815.708	0.0142123
815.787	0.0142251
815.865	0.0143317
815.943	0.0143191
816.021	0.0141921
816.099	0.0143279
816.177	0.0142766
816.255	0.0143228
816.333	0.0142406
816.412	0.0142614
816.490	0.0142703
816.568	0.0143681
816.646	0.0142687
816.724	0.0143615
816.802	0.0142808
816.880	0.0143206
816.958	0.0143756
817.037	0.0144341
817.115	0.0142521
817.193	0.0143372
817.271	0.0142550
817.349	0.0144475
817.427	0.0143191
817.505	0.0143125
817.583	0.0141676
817.662	0.0141512
817.740	0.0142675
817.818	0.0142818
817.896	0.0142183
817.974	0.0142467
818.052	0.0143211
818.130	0.0141156
818.208	0.0141758
818.287	0.0142583
818.365	0.0142857
818.443	0.0142285
818.521	0.0143006
818.599	0.0141692
818.677	0.0142471
818.755	0.0142257
818.833	0.0142515
818.912	0.0143164
818.990	0.0143764
819.068	0.0141597
819.146	0.0143130
819.224	0.0144233
819.302	0.0143527
819.380	0.0143417
819.458	0.0144341
819.537	0.0143676
819.615	0.0142720
819.693	0.0142316
819.771	0.0142973
819.849	0.0143441
819.927	0.0143629
820.005	0.0143321
820.083	0.0140966
820.162	0.0142251
820.240	0.0143126
820.318	0.0142062
820.396	0.0141393
820.474	0.0142782
820.552	0.0143445
820.630	0.0142942
820.708	0.0142278
820.787	0.0142226
820.865	0.0142305
820.943	0.0141483
821.021	0.0142187
821.099	0.0141420
821.177	0.0142422
821.255	0.0142548
821.333	0.0141539
821.412	0.0141425
821.490	0.0143395
821.568	0.0142807
821.646	0.0141875
821.724	0.0142514
821.802	0.0142256
821.880	0.0143309
821.958	0.0143311
822.037	0.0143568
822.115	0.0141830
822.193	0.0141744
822.271	0.0143024
822.349	0.0141914
822.427	0.0142200
822.505	0.0142185
822.583	0.0142126
822.662	0.0142227
822.740	0.0141795
822.818	0.0141542
822.896	0.0143371
822.974	0.0143213
823.052	0.0142312
823.130	0.0142625
823.208	0.0142519
823.287	0.0142876
823.365	0.0141954
823.443	0.0141486
823.521	0.0142786
823.599	0.0142676
823.677	0.0141853
823.755	0.0142168
823.833	0.0141292
823.912	0.0142031
823.990	0.0142330
824.068	0.0141122
824.146	0.0142680
824.224	0.0141435
824.302	0.0142141
824.380	0.0143219
824.458	0.0142714
824.537	0.0141890
824.615	0.0143169
824.693	0.0143130
824.771	0.0142185
824.849	0.0142358
824.927	0.0143747
825.005	0.0143103
825.083	0.0143898
825.162	0.0143506
825.240	0.0143831
825.318	0.0142197
825.396	0.0143504
825.474	0.0142538
825.552	0.0143377
825.630	0.0141851
825.708	0.0142286
825.787	0.0141312
825.865	0.0142829
825.943	0.0143989
826.021	0.0142001
826.099	0.0141898
826.177	0.0142286
826.255	0.0141996
826.333	0.0141538
826.412	0.0141743
826.490	0.0142718
826.568	0.0141631
826.646	0.0142211
826.724	0.0142612
826.802	0.0141458
826.880	0.0141683
826.958	0.0142649
827.037	0.0142577
827.115	0.0142184
827.193	0.0142426
827.271	0.0142522
827.349	0.0143833
827.427	0.0143233
827.505	0.0142875
827.583	0.0142925
827.662	0.0143861
827.740	0.0142866
827.818	0.0144365
827.896	0.0143164
827.974	0.0142907
828.052	0.0141550
828.130	0.0141901
828.208	0.0141430
828.287	0.0142226
828.365	0.0143024
828.443	0.0142406
828.521	0.0142881
828.599	0.0142020
828.677	0.0141302
828.755	0.0142731
828.833	0.0142213
828.912	0.0142349
828.990	0.0141792
829.068	0.0142641
829.146	0.0142494
829.224	0.0143314
829.302	0.0143350
829.380	0.0144542
829.458	0.0144187
829.537	0.0143581
829.615	0.0142222
829.693	0.0143202
829.771	0.0143385
829.849	0.0143945
829.927	0.0142616
830.005	0.0143451
830.083	0.0141438
830.162	0.0141843
830.240	0.0143490
830.318	0.0143561
830.396	0.0144114
830.474	0.0143558
830.552	0.0143517
830.630	0.0143273
830.708	0.0142547
830.787	0.0143414
830.865	0.0143253
830.943	0.0142604
831.021	0.0143631
831.099	0.0144483
831.177	0.0142712
831.255	0.0142792
831.333	0.0143384
831.412	0.0142441
831.490	0.0142081
831.568	0.0141802
831.646	0.0143110
831.724	0.0142043
831.802	0.0141498
831.880	0.0142329
831.958	0.0141845
832.037	0.0142464
832.115	0.0142960
832.193	0.0141438
832.271	0.0142534
832.349	0.0143571
832.427	0.0143115
832.505	0.0141861
832.583	0.0142839
832.662	0.0142249
832.740	0.0143340
832.818	0.0143693
832.896	0.0143980
832.974	0.0144319
833.052	0.0143102
833.130	0.0144370
833.208	0.0143837
833.287	0.0142951
833.365	0.0144653
833.443	0.0143963
833.521	0.0142869
833.599	0.0141964
833.677	0.0143390
833.755	0.0143620
833.833	0.0143098
833.912	0.0144382
833.990	0.0142834
834.068	0.0141586
834.146	0.0142209
834.224	0.0142756
834.302	0.0141809
834.380	0.0142380
834.458	0.0144234
834.537	0.0142908
834.615	0.0144237
834.693	0.0143690
834.771	0.0142863
834.849	0.0143077
834.927	0.0142319
835.005	0.0143858
835.083	0.0143288
835.162	0.0143218
835.240	0.0143055
835.318	0.0143486
835.396	0.0140931
835.474	0.0142477
835.552	0.0142258
835.630	0.0142641
835.708	0.0142070
835.787	0.0141529
835.865	0.0142178
835.943	0.0143194
836.021	0.0142399
836.099	0.0141876
836.177	0.0143683
836.255	0.0143388
836.333	0.0143344
836.412	0.0143649
836.490	0.0142510
836.568	0.0143011
836.646	0.0143034
836.724	0.0141734
836.802	0.0142259
836.880	0.0141779
836.958	0.0142228
837.037	0.0141922
837.115	0.0143102
837.193	0.0141602
837.271	0.0142930
837.349	0.0142355
837.427	0.0142578
837.505	0.0141421
837.583	0.0143883
837.662	0.0143655
837.740	0.0142741
837.818	0.0142486
837.896	0.0141892
837.974	0.0142626
838.052	0.0140948
838.130	0.0142239
838.208	0.0142409
838.287	0.0142508
838.365	0.0142152
838.443	0.0143837
838.521	0.0144081
838.599	0.0143449
838.677	0.0141458
838.755	0.0144305
838.833	0.0144073
838.912	0.0142535
838.990	0.0142962
839.068	0.0142344
839.146	0.0142517
839.224	0.0143523
839.302	0.0142515
839.380	0.0141456
839.458	0.0142840
839.537	0.0141672
839.615	0.0141947
839.693	0.0141816
839.771	0.0141938
839.849	0.0142071
839.927	0.0143170
840.005	0.0143363
840.083	0.0143214
840.162	0.0141959
840.240	0.0141621
840.318	0.0142706
840.396	0.0143478
840.474	0.0143414
840.552	0.0142669
840.630	0.0143062
840.708	0.0142532
840.787	0.0141274
840.865	0.0142538
840.943	0.0143106
841.021	0.0142712
841.099	0.0141605
841.177	0.0143082
841.255	0.0143234
841.333	0.0142896
841.412	0.0143107
841.490	0.0142057
841.568	0.0141761
841.646	0.0141669
841.724	0.0143737
841.802	0.0141550
841.880	0.0142636
841.958	0.0142667
842.037	0.0142828
842.115	0.0141965
842.193	0.0142931
842.271	0.0140232
842.349	0.0141637
842.427	0.0141952
842.505	0.0142519
842.583	0.0141740
842.662	0.0141449
842.740	0.0142264
842.818	0.0143556
842.896	0.0142529
842.974	0.0142377
843.052	0.0142808
843.130	0.0142871
843.208	0.0142042
843.287	0.0142875
843.365	0.0142949
843.443	0.0143546
843.521	0.0143279
843.599	0.0143536
843.677	0.0142889
843.755	0.0142206
843.833	0.0141622
843.912	0.0143317
843.990	0.0141330
844.068	0.0141439
844.146	0.0143516
844.224	0.0142078
844.302	0.0141311
844.380	0.0141254
844.458	0.0141869
844.537	0.0141843
844.615	0.0142554
844.693	0.0143790
844.771	0.0143669
844.849	0.0141736
844.927	0.0142496
845.005	0.0142279
845.083	0.0141878
845.162	0.0142033
845.240	0.0140988
845.318	0.0141890
845.396	0.0141336
845.474	0.0140811
845.552	0.0141665
845.630	0.0140909
845.708	0.0141820
845.787	0.0141528
845.865	0.0143264
845.943	0.0142681
846.021	0.0141112
846.099	0.0142844
846.177	0.0142891
846.255	0.0142785
846.333	0.0143323
846.412	0.0143013
846.490	0.0141947
846.568	0.0143027
846.646	0.0140643
846.724	0.0141982
846.802	0.0142368
846.880	0.0141905
846.958	0.0143224
847.037	0.0141251
847.115	0.0142367
847.193	0.0141248
847.271	0.0141003
847.349	0.0142455
847.427	0.0142033
847.505	0.0141808
847.583	0.0141269
847.662	0.0141257
847.740	0.0140691
847.818	0.0143273
847.896	0.0142720
847.974	0.0141374
848.052	0.0142883
848.130	0.0141808
848.208	0.0141827
848.287	0.0142769
848.365	0.0143629
848.443	0.0142841
848.521	0.0142542
848.599	0.0143216
848.677	0.0142450
848.755	0.0143820
848.833	0.0142889
848.912	0.0142197
848.990	0.0142215
849.068	0.0142340
849.146	0.0142315
849.224	0.0143481
849.302	0.0142581
849.380	0.0142384
849.458	0.0143108
849.537	0.0141399
849.615	0.0142342
849.693	0.0141746
849.771	0.0143249
849.849	0.0141602
849.927	0.0142701
850.005	0.0142311
850.083	0.0142166
850.162	0.0141985
850.240	0.0142155
850.318	0.0144019
850.396	0.0142910
850.474	0.0143616
850.552	0.0142626
850.630	0.0142713
850.708	0.0144202
850.787	0.0144112
850.865	0.0142505
850.943	0.0143319
851.021	0.0143296
851.099	0.0142271
851.177	0.0143002
851.255	0.0142602
851.333	0.0142634
851.412	0.0142377
851.490	0.0143905
851.568	0.0142871
851.646	0.0143252
851.724	0.0143519
851.802	0.0144591
851.880	0.0142505
851.958	0.0143638
852.037	0.0143371
852.115	0.0142262
852.193	0.0143346
852.271	0.0143289
852.349	0.0142747
852.427	0.0142870
852.505	0.0142745
852.583	0.0143429
852.662	0.0142519
852.740	0.0142806
852.818	0.0143958
852.896	0.0143350
852.974	0.0143307
853.052	0.0142660
853.130	0.0142454
853.208	0.0142553
853.287	0.0143815
853.365	0.0143794
853.443	0.0142481
853.521	0.0141810
853.599	0.0143630
853.677	0.0143656
853.755	0.0143185
853.833	0.0142680
853.912	0.0141127
853.990	0.0141165
854.068	0.0142878
854.146	0.0143076
854.224	0.0141189
854.302	0.0140683
854.380	0.0141903
854.458	0.0142722
854.537	0.0141917
854.615	0.0140163
854.693	0.0140754
854.771	0.0140211
854.849	0.0141915
854.927	0.0143254
855.005	0.0142477
855.083	0.0141541
855.162	0.0141795
855.240	0.0144000
855.318	0.0143488
855.396	0.0141750
855.474	0.0142430
855.552	0.0141666
855.630	0.0142669
855.708	0.0142119
855.787	0.0143736
855.865	0.0142270
855.943	0.0142396
856.021	0.0141428
856.099	0.0143475
856.177	0.0143707
856.255	0.0142483
856.333	0.0142010
856.412	0.0142155
856.490	0.0143223
856.568	0.0140665
856.646	0.0141843
856.724	0.0142023
856.802	0.0141004
856.880	0.0142834
856.958	0.0141882
857.037	0.0143270
857.115	0.0142523
857.193	0.0141715
857.271	0.0141129
857.349	0.0141782
857.427	0.0140834
857.505	0.0142607
857.583	0.0141090
857.662	0.0140620
857.740	0.0140208
857.818	0.0142190
857.896	0.0143243
857.974	0.0142310
858.052	0.0141353
858.130	0.0142216
858.208	0.0142538
858.287	0.0143325
858.365	0.0142381
858.443	0.0142249
858.521	0.0143233
858.599	0.0143056
858.677	0.0141870
858.755	0.0141867
858.833	0.0143015
858.912	0.0143111
858.990	0.0142821
859.068	0.0143559
859.146	0.0143117
859.224	0.0142641
859.302	0.0142400
859.380	0.0143353
859.458	0.0142955
859.537	0.0142416
859.615	0.0141290
859.693	0.0142189
859.771	0.0141524
859.849	0.0141954
859.927	0.0142850
860.005	0.0142037
860.083	0.0142418
860.162	0.0141451
860.240	0.0141265
860.318	0.0142773
860.396	0.0141324
860.474	0.0141423
860.552	0.0141905
860.630	0.0141082
860.708	0.0142546
860.787	0.0141099
860.865	0.0141214
860.943	0.0141274
861.021	0.0142528
861.099	0.0143023
861.177	0.0143469
861.255	0.0143249
861.333	0.0142490
861.412	0.0142722
861.490	0.0143133
861.568	0.0144308
861.646	0.0144214
861.724	0.0143982
861.802	0.0142707
861.880	0.0143127
861.958	0.0143452
862.037	0.0142698
862.115	0.0143434
862.193	0.0141885
862.271	0.0142286
862.349	0.0143321
862.427	0.0142715
862.505	0.0143130
862.583	0.0142280
862.662	0.0142142
862.740	0.0140919
862.818	0.0142516
862.896	0.0142599
862.974	0.0142323
863.052	0.0143313
863.130	0.0143768
863.208	0.0141872
863.287	0.0142171
863.365	0.0142281
863.443	0.0141967
863.521	0.0143192
863.599	0.0143076
863.677	0.0142230
863.755	0.0142706
863.833	0.0143195
863.912	0.0142107
863.990	0.0141891
864.068	0.0142085
864.146	0.0141884
864.224	0.0142577
864.302	0.0142515
864.380	0.0142750
864.458	0.0141770
864.537	0.0142004
864.615	0.0142822
864.693	0.0142130
864.771	0.0141952
864.849	0.0141650
864.927	0.0141968
865.005	0.0143858
865.083	0.0143463
865.162	0.0143119
865.240	0.0142007
865.318	0.0141753
865.396	0.0143307
865.474	0.0143308
865.552	0.0142374
865.630	0.0141676
865.708	0.0141878
865.787	0.0143297
865.865	0.0142321
865.943	0.0143965
866.021	0.0142216
866.099	0.0142220
866.177	0.0142766
866.255	0.0141696
866.333	0.0142994
866.412	0.0142934
866.490	0.0141453
866.568	0.0142728
866.646	0.0142704
866.724	0.0140965
866.802	0.0141986
866.880	0.0142564
866.958	0.0141976
867.037	0.0142263
867.115	0.0141454
867.193	0.0141811
867.271	0.0141966
867.349	0.0141233
867.427	0.0140007
867.505	0.0141599
867.583	0.0141100
867.662	0.0142239
867.740	0.0142225
867.818	0.0142329
867.896	0.0142085
867.974	0.0141238
868.052	0.0141434
868.130	0.0141482
868.208	0.0143137
868.287	0.0142464
868.365	0.0142198
868.443	0.0142455
868.521	0.0141676
868.599	0.0141890
868.677	0.0141687
868.755	0.0142282
868.833	0.0142249
868.912	0.0141259
868.990	0.0141417
869.068	0.0141169
869.146	0.0143186
869.224	0.0142120
869.302	0.0142609
869.380	0.0143365
869.458	0.0142944
869.537	0.0143028
869.615	0.0143823
869.693	0.0142427
869.771	0.0141824
869.849	0.0140924
869.927	0.0142060
870.005	0.0143789
870.083	0.0142654
870.162	0.0142459
870.240	0.0142661
870.318	0.0142863
870.396	0.0142545
870.474	0.0141975
870.552	0.0144464
870.630	0.0141660
870.708	0.0140934
870.787	0.0143386
870.865	0.0142293
870.943	0.0141855
871.021	0.0143143
871.099	0.0141871
871.177	0.0141412
871.255	0.0143253
871.333	0.0143098
871.412	0.0143638
871.490	0.0142078
871.568	0.0141653
871.646	0.0140720
871.724	0.0141988
871.802	0.0143330
871.880	0.0143740
871.958	0.0142297
872.037	0.0142185
872.115	0.0142518
872.193	0.0142818
872.271	0.0143198
872.349	0.0143063
872.427	0.0142085
872.505	0.0143987
872.583	0.0144327
872.662	0.0144112
872.740	0.0142245
872.818	0.0143469
872.896	0.0143269
872.974	0.0143249
873.052	0.0142478
873.130	0.0142907
873.208	0.0143634
873.287	0.0142241
873.365	0.0141401
873.443	0.0142392
873.521	0.0143599
873.599	0.0142587
873.677	0.0142678
873.755	0.0142363
873.833	0.0142479
873.912	0.0142142
873.990	0.0142973
874.068	0.0143303
874.146	0.0142446
874.224	0.0143076
874.302	0.0142346
874.380	0.0143081
874.458	0.0142484
874.537	0.0142289
874.615	0.0141624
874.693	0.0142697
874.771	0.0143513
874.849	0.0141006
874.927	0.0143130
875.005	0.0141591
875.083	0.0142834
875.162	0.0143510
875.240	0.0143174
875.318	0.0143463
875.396	0.0143134
875.474	0.0141992
875.552	0.0143695
875.630	0.0143945
875.708	0.0143099
875.787	0.0140755
875.865	0.0141724
875.943	0.0142253
876.021	0.0142189
876.099	0.0141166
876.177	0.0141948
876.255	0.0141574
876.333	0.0141992
876.412	0.0143088
876.490	0.0140437
876.568	0.0141605
876.646	0.0143108
876.724	0.0142351
876.802	0.0142200
876.880	0.0142037
876.958	0.0142945
877.037	0.0143684
877.115	0.0142361
877.193	0.0141914
877.271	0.0142059
877.349	0.0141561
877.427	0.0141455
877.505	0.0143312
877.583	0.0142417
877.662	0.0141958
877.740	0.0142144
877.818	0.0143047
877.896	0.0142231
877.974	0.0142538
878.052	0.0141840
878.130	0.0142715
878.208	0.0143482
878.287	0.0141106
878.365	0.0142273
878.443	0.0142637
878.521	0.0140989
878.599	0.0142354
878.677	0.0143049
878.755	0.0142102
878.833	0.0143100
878.912	0.0142342
878.990	0.0141609
879.068	0.0142223
879.146	0.0142449
879.224	0.0142338
879.302	0.0142769
879.380	0.0143063
879.458	0.0142854
879.537	0.0143425
879.615	0.0142921
879.693	0.0142551
879.771	0.0143174
879.849	0.0144070
879.927	0.0143652
880.005	0.0143507
880.083	0.0142084
880.162	0.0142669
880.240	0.0143890
880.318	0.0143189
880.396	0.0142547
880.474	0.0143176
880.552	0.0141829
880.630	0.0142083
880.708	0.0141399
880.787	0.0142374
880.865	0.0142504
880.943	0.0140114
881.021	0.0141331
881.099	0.0141932
881.177	0.0141348
881.255	0.0141409
881.333	0.0143593
881.412	0.0141575
881.490	0.0141231
881.568	0.0141564
881.646	0.0141544
881.724	0.0142959
881.802	0.0143708
881.880	0.0142402
881.958	0.0142339
882.037	0.0143502
882.115	0.0142970
882.193	0.0143571
882.271	0.0144245
882.349	0.0142635
882.427	0.0143451
882.505	0.0142594
882.583	0.0142908
882.662	0.0142286
882.740	0.0143279
882.818	0.0143147
882.896	0.0143291
882.974	0.0142852
883.052	0.0142318
883.130	0.0142382
883.208	0.0142422
883.287	0.0142459
883.365	0.0142676
883.443	0.0143069
883.521	0.0142046
883.599	0.0143087
883.677	0.0142526
883.755	0.0142037
883.833	0.0141879
883.912	0.0141602
883.990	0.0141678
884.068	0.0142912
884.146	0.0141132
884.224	0.0142980
884.302	0.0141174
884.380	0.0141858
884.458	0.0142698
884.537	0.0141753
884.615	0.0143217
884.693	0.0143958
884.771	0.0140407
884.849	0.0142458
884.927	0.0142457
885.005	0.0142389
885.083	0.0142735
885.162	0.0142886
885.240	0.0141794
885.318	0.0143372
885.396	0.0141904
885.474	0.0142017
885.552	0.0143065
885.630	0.0141193
885.708	0.0142529
885.787	0.0142664
885.865	0.0141148
885.943	0.0142076
886.021	0.0142165
886.099	0.0140538
886.177	0.0140609
886.255	0.0142656
886.333	0.0142402
886.412	0.0142674
886.490	0.0142973
886.568	0.0142885
886.646	0.0140968
886.724	0.0142831
886.802	0.0142768
886.880	0.0142930
886.958	0.0142888
887.037	0.0143800
887.115	0.0142857
887.193	0.0142546
887.271	0.0141856
887.349	0.0140637
887.427	0.0142676
887.505	0.0143591
887.583	0.0142500
887.662	0.0143140
887.740	0.0142324
887.818	0.0142294
887.896	0.0142247
887.974	0.0143237
888.052	0.0144125
888.130	0.0142210
888.208	0.0141528
888.287	0.0142157
888.365	0.0142074
888.443	0.0142033
888.521	0.0143245
888.599	0.0142204
888.677	0.0143326
888.755	0.0142446
888.833	0.0141315
888.912	0.0141215
888.990	0.0142608
889.068	0.0141921
889.146	0.0143111
889.224	0.0142212
889.302	0.0142468
889.380	0.0142788
889.458	0.0142097
889.537	0.0142376
889.615	0.0142104
889.693	0.0143630
889.771	0.0142178
889.849	0.0142442
889.927	0.0143324
890.005	0.0142030
890.083	0.0141542
890.162	0.0143174
890.240	0.0143020
890.318	0.0141717
890.396	0.0143021
890.474	0.0141319
890.552	0.0140418
890.630	0.0142444
890.708	0.0142765
890.787	0.0141838
890.865	0.0142269
890.943	0.0141985
891.021	0.0142971
891.099	0.0142876
891.177	0.0142622
891.255	0.0141454
891.333	0.0142836
891.412	0.0143074
891.490	0.0142045
891.568	0.0142024
891.646	0.0142297
891.724	0.0143472
891.802	0.0142891
891.880	0.0143178
891.958	0.0143205
892.037	0.0143037
892.115	0.0143336
892.193	0.0143537
892.271	0.0142342
892.349	0.0142489
892.427	0.0141190
892.505	0.0142526
892.583	0.0142766
892.662	0.0141914
892.740	0.0143174
892.818	0.0143042
892.896	0.0142489
892.974	0.0142986
893.052	0.0142878
893.130	0.0143451
893.208	0.0142426
893.287	0.0141857
893.365	0.0143317
893.443	0.0143902
893.521	0.0142025
893.599	0.0141935
893.677	0.0143654
893.755	0.0143860
893.833	0.0143335
893.912	0.0141808
893.990	0.0143055
894.068	0.0142976
894.146	0.0142980
894.224	0.0141669
894.302	0.0144222
894.380	0.0143449
894.458	0.0143929
894.537	0.0141968
894.615	0.0143308
894.693	0.0142972
894.771	0.0142108
894.849	0.0142485
894.927	0.0142316
895.005	0.0142914
895.083	0.0142752
895.162	0.0142538
895.240	0.0142525
895.318	0.0143165
895.396	0.0143247
895.474	0.0143507
895.552	0.0143330
895.630	0.0144059
895.708	0.0143836
895.787	0.0143930
895.865	0.0142318
895.943	0.0141156
896.021	0.0142228
896.099	0.0143552
896.177	0.0143382
896.255	0.0142667
896.333	0.0145170
896.412	0.0143230
896.490	0.0143266
896.568	0.0143867
896.646	0.0141887
896.724	0.0142428
896.802	0.0142717
896.880	0.0142125
896.958	0.0141592
897.037	0.0141959
897.115	0.0143198
897.193	0.0143932
897.271	0.0141957
897.349	0.0141432
897.427	0.0141418
897.505	0.0143495
897.583	0.0142566
897.662	0.0141841
897.740	0.0142813
897.818	0.0143178
897.896	0.0142884
897.974	0.0142137
898.052	0.0141717
898.130	0.0142264
898.208	0.0142459
898.287	0.0143042
898.365	0.0143172
898.443	0.0144785
898.521	0.0143056
898.599	0.0143121
898.677	0.0143050
898.755	0.0141767
898.833	0.0141841
898.912	0.0142300
898.990	0.0142387
899.068	0.0142695
899.146	0.0143058
899.224	0.0142552
899.302	0.0141605
899.380	0.0141831
899.458	0.0141045
899.537	0.0142456
899.615	0.0143051
899.693	0.0140029
899.771	0.0142208
899.849	0.0142879
899.927	0.0142097
900.005	0.0143117
900.083	0.0143123
900.162	0.0143021
900.240	0.0142278
900.318	0.0142296
900.396	0.0141869
900.474	0.0142159
900.552	0.0142887
900.630	0.0141891
900.708	0.0143423
900.787	0.0142108
900.865	0.0142473
900.943	0.0141685
901.021	0.0143432
901.099	0.0141885
901.177	0.0140907
901.255	0.0141604
901.333	0.0142613
901.412	0.0142716
901.490	0.0143001
901.568	0.0141235
901.646	0.0142983
901.724	0.0142303
901.802	0.0141846
901.880	0.0140379
901.958	0.0141421
902.037	0.0141254
902.115	0.0142578
902.193	0.0142357
902.271	0.0141472
902.349	0.0143661
902.427	0.0142323
902.505	0.0143584
902.583	0.0142342
902.662	0.0142524
902.740	0.0143214
902.818	0.0143535
902.896	0.0144444
902.974	0.0142814
903.052	0.0142857
903.130	0.0142486
903.208	0.0143616
903.287	0.0142848
903.365	0.0142664
903.443	0.0142290
903.521	0.0143113
903.599	0.0141689
903.677	0.0141161
903.755	0.0141321
903.833	0.0140918
903.912	0.0141576
903.990	0.0141601
904.068	0.0142438
904.146	0.0142439
904.224	0.0141669
904.302	0.0141766
904.380	0.0142424
904.458	0.0142076
904.537	0.0142461
904.615	0.0140945
904.693	0.0143179
904.771	0.0143035
904.849	0.0142200
904.927	0.0142179
905.005	0.0140490
905.083	0.0141563
905.162	0.0143405
905.240	0.0142413
905.318	0.0143165
905.396	0.0141618
905.474	0.0143013
905.552	0.0142883
905.630	0.0142643
905.708	0.0142288
905.787	0.0142361
905.865	0.0142963
905.943	0.0141605
906.021	0.0143001
906.099	0.0143799
906.177	0.0144099
906.255	0.0141498
906.333	0.0142874
906.412	0.0143118
906.490	0.0142060
906.568	0.0141659
906.646	0.0143047
906.724	0.0143066
906.802	0.0143168
906.880	0.0141882
906.958	0.0141489
907.037	0.0140932
907.115	0.0142281
907.193	0.0142815
907.271	0.0142200
907.349	0.0143491
907.427	0.0143408
907.505	0.0141554
907.583	0.0141869
907.662	0.0141708
907.740	0.0143235
907.818	0.0143227
907.896	0.0143851
907.974	0.0142523
908.052	0.0142656
908.130	0.0143056
908.208	0.0142726
908.287	0.0142571
908.365	0.0141543
908.443	0.0141525
908.521	0.0141704
908.599	0.0141322
908.677	0.0143075
908.755	0.0141901
908.833	0.0142213
908.912	0.0142841
908.990	0.0143122
909.068	0.0143903
909.146	0.0143593
909.224	0.0143856
909.302	0.0144248
909.380	0.0143563
909.458	0.0143118
909.537	0.0142141
909.615	0.0142895
909.693	0.0142711
909.771	0.0141650
909.849	0.0143303
909.927	0.0143593
910.005	0.0143975
910.083	0.0142801
910.162	0.0142440
910.240	0.0142146
910.318	0.0145073
910.396	0.0143104
910.474	0.0142937
910.552	0.0140163
910.630	0.0142693
910.708	0.0143056
910.787	0.0143458
910.865	0.0143554
910.943	0.0143111
911.021	0.0143010
911.099	0.0142751
911.177	0.0142023
911.255	0.0141488
911.333	0.0141175
911.412	0.0141373
911.490	0.0141193
911.568	0.0142537
911.646	0.0142388
911.724	0.0142491
911.802	0.0141560
911.880	0.0142117
911.958	0.0142026
912.037	0.0143441
912.115	0.0143909
912.193	0.0143203
912.271	0.0144535
912.349	0.0142865
912.427	0.0142462
912.505	0.0142558
912.583	0.0143127
912.662	0.0143688
912.740	0.0143871
912.818	0.0141328
912.896	0.0144089
912.974	0.0143529
913.052	0.0142991
913.130	0.0142544
913.208	0.0143542
913.287	0.0143095
913.365	0.0143618
913.443	0.0142638
913.521	0.0142683
913.599	0.0142043
913.677	0.0144471
913.755	0.0143387
913.833	0.0142426
913.912	0.0141460
913.990	0.0143055
914.068	0.0142632
914.146	0.0142064
914.224	0.0142870
914.302	0.0142931
914.380	0.0143011
914.458	0.0143246
914.537	0.0142182
914.615	0.0141925
914.693	0.0143256
914.771	0.0143439
914.849	0.0141836
914.927	0.0143954
915.005	0.0142467
915.083	0.0141472
915.162	0.0143143
915.240	0.0143633
915.318	0.0143279
915.396	0.0143784
915.474	0.0141699
915.552	0.0143185
915.630	0.0143193
915.708	0.0143262
915.787	0.0143227
915.865	0.0141963
915.943	0.0142434
916.021	0.0143353
916.099	0.0143076
916.177	0.0142608
916.255	0.0142362
916.333	0.0142540
916.412	0.0144035
916.490	0.0143289
916.568	0.0142779
916.646	0.0143267
916.724	0.0143570
916.802	0.0143015
916.880	0.0141961
916.958	0.0143173
917.037	0.0143053
917.115	0.0143157
917.193	0.0142988
917.271	0.0143136
917.349	0.0141766
917.427	0.0141930
917.505	0.0142210
917.583	0.0142223
917.662	0.0141705
917.740	0.0142172
917.818	0.0141032
917.896	0.0142732
917.974	0.0142250
918.052	0.0141969
918.130	0.0141264
918.208	0.0142386
918.287	0.0143140
918.365	0.0140687
918.443	0.0140639
918.521	0.0141009
918.599	0.0142347
918.677	0.0141895
918.755	0.0141512
918.833	0.0143394
918.912	0.0141533
918.990	0.0140885
919.068	0.0143990
919.146	0.0142095
919.224	0.0142184
919.302	0.0143044
919.380	0.0141295
919.458	0.0140958
919.537	0.0141130
919.615	0.0141418
919.693	0.0141475
919.771	0.0140032
919.849	0.0141416
919.927	0.0142831
920.005	0.0142162
920.083	0.0141030
920.162	0.0141443
920.240	0.0141550
920.318	0.0142135
920.396	0.0141061
920.474	0.0141143
920.552	0.0142216
920.630	0.0142368
920.708	0.0141331
920.787	0.0143180
920.865	0.0142812
920.943	0.0142207
921.021	0.0142438
921.099	0.0142020
921.177	0.0142184
921.255	0.0142451
921.333	0.0141927
921.412	0.0142464
921.490	0.0142855
921.568	0.0143134
921.646	0.0143804
921.724	0.0141837
921.802	0.0141623
921.880	0.0143648
921.958	0.0142638
922.037	0.0142054
922.115	0.0142532
922.193	0.0143024
922.271	0.0141947
922.349	0.0142156
922.427	0.0141977
922.505	0.0141770
922.583	0.0142624
922.662	0.0140778
922.740	0.0141310
922.818	0.0142565
922.896	0.0141713
922.974	0.0143295
923.052	0.0142233
923.130	0.0142489
923.208	0.0141911
923.287	0.0142030
923.365	0.0141917
923.443	0.0142654
923.521	0.0142442
923.599	0.0143317
923.677	0.0141963
923.755	0.0142039
923.833	0.0141618
923.912	0.0142482
923.990	0.0141581
924.068	0.0143056
924.146	0.0140668
924.224	0.0142177
924.302	0.0141570
924.380	0.0142014
924.458	0.0142358
924.537	0.0140971
924.615	0.0141383
924.693	0.0142242
924.771	0.0142976
924.849	0.0141701
924.927	0.0142158
925.005	0.0142354
925.083	0.0143282
925.162	0.0144714
925.240	0.0143555
925.318	0.0142405
925.396	0.0144490
925.474	0.0143623
925.552	0.0143498
925.630	0.0144069
925.708	0.0142305
925.787	0.0143022
925.865	0.0143289
925.943	0.0142986
926.021	0.0142188
926.099	0.0142781
926.177	0.0142812
926.255	0.0142500
926.333	0.0143008
926.412	0.0143262
926.490	0.0143595
926.568	0.0143163
926.646	0.0143140
926.724	0.0142683
926.802	0.0141887
926.880	0.0143327
926.958	0.0143164
927.037	0.0142574
927.115	0.0143816
927.193	0.0142716
927.271	0.0143356
927.349	0.0143473
927.427	0.0141002
927.505	0.0142635
927.583	0.0142725
927.662	0.0141836
927.740	0.0141356
927.818	0.0141265
927.896	0.0142445
927.974	0.0140701
928.052	0.0139887
928.130	0.0140639
928.208	0.0142273
928.287	0.0142741
928.365	0.0142632
928.443	0.0142636
928.521	0.0142385
928.599	0.0143027
928.677	0.0141587
928.755	0.0141431
928.833	0.0143239
928.912	0.0142154
928.990	0.0141286
929.068	0.0142873
929.146	0.0140379
929.224	0.0141819
929.302	0.0142531
929.380	0.0141699
929.458	0.0144062
929.537	0.0142690
929.615	0.0143827
929.693	0.0142474
929.771	0.0142237
929.849	0.0141314
929.927	0.0143959
930.005	0.0142690
930.083	0.0143169
930.162	0.0143058
930.240	0.0142028
930.318	0.0142339
930.396	0.0143559
930.474	0.0143146
930.552	0.0141995
930.630	0.0141605
930.708	0.0142001
930.787	0.0142781
930.865	0.0142073
930.943	0.0143397
931.021	0.0142400
931.099	0.0143193
931.177	0.0144270
931.255	0.0143091
931.333	0.0142565
931.412	0.0141372
931.490	0.0143252
931.568	0.0142968
931.646	0.0143116
931.724	0.0142029
931.802	0.0140505
931.880	0.0142894
931.958	0.0141902
932.037	0.0141001
932.115	0.0142345
932.193	0.0142426
932.271	0.0142499
932.349	0.0142318
932.427	0.0142438
932.505	0.0143053
932.583	0.0142139
932.662	0.0141639
932.740	0.0142750
932.818	0.0143611
932.896	0.0141935
932.974	0.0142360
933.052	0.0143302
933.130	0.0143136
933.208	0.0142737
933.287	0.0142120
933.365	0.0141681
933.443	0.0141203
933.521	0.0142378
933.599	0.0141441
933.677	0.0141785
933.755	0.0142363
933.833	0.0141721
933.912	0.0141738
933.990	0.0141066
934.068	0.0141494
934.146	0.0142028
934.224	0.0141921
934.302	0.0143076
934.380	0.0143958
934.458	0.0142656
934.537	0.0143526
934.615	0.0143177
934.693	0.0142892
934.771	0.0142331
934.849	0.0144081
934.927	0.0143420
935.005	0.0139989
935.083	0.0140994
935.162	0.0143295
935.240	0.0142278
935.318	0.0142316
935.396	0.0142092
935.474	0.0142926
935.552	0.0142899
935.630	0.0142762
935.708	0.0143127
935.787	0.0143310
935.865	0.0143417
935.943	0.0143509
936.021	0.0141834
936.099	0.0144402
936.177	0.0142677
936.255	0.0140503
936.333	0.0143859
936.412	0.0142901
936.490	0.0143931
936.568	0.0143618
936.646	0.0142247
936.724	0.0141322
936.802	0.0142038
936.880	0.0142390
936.958	0.0141762
937.037	0.0141445
937.115	0.0141592
937.193	0.0143223
937.271	0.0140840
937.349	0.0141344
937.427	0.0142178
937.505	0.0142834
937.583	0.0141158
937.662	0.0140696
937.740	0.0140903
937.818	0.0141970
937.896	0.0140108
937.974	0.0141371
938.052	0.0141451
938.130	0.0142439
938.208	0.0142650
938.287	0.0141525
938.365	0.0140634
938.443	0.0142166
938.521	0.0141553
938.599	0.0143024
938.677	0.0142508
938.755	0.0141780
938.833	0.0142778
938.912	0.0142376
938.990	0.0142081
939.068	0.0142464
939.146	0.0142400
939.224	0.0141562
939.302	0.0142599
939.380	0.0142034
939.458	0.0140998
939.537	0.0140247
939.615	0.0142545
939.693	0.0142543
939.771	0.0141474
939.849	0.0141626
939.927	0.0141708
940.005	0.0142235
940.083	0.0143575
940.162	0.0143471
940.240	0.0141315
940.318	0.0142091
940.396	0.0141981
940.474	0.0141891
940.552	0.0142671
940.630	0.0142448
940.708	0.0142586
940.787	0.0142812
940.865	0.0141739
940.943	0.0142207
941.021	0.0142309
941.099	0.0142307
941.177	0.0141835
941.255	0.0141722
941.333	0.0140748
941.412	0.0141888
941.490	0.0143180
941.568	0.0143179
941.646	0.0142110
941.724	0.0143370
941.802	0.0143459
941.880	0.0142159
941.958	0.0142915
942.037	0.0141544
942.115	0.0141448
942.193	0.0141812
942.271	0.0142638
942.349	0.0142670
942.427	0.0142243
942.505	0.0141113
942.583	0.0141443
942.662	0.0141039
942.740	0.0142099
942.818	0.0142336
942.896	0.0142539
942.974	0.0141842
943.052	0.0141394
943.130	0.0141295
943.208	0.0142317
943.287	0.0142024
943.365	0.0141257
943.443	0.0140372
943.521	0.0142319
943.599	0.0142490
943.677	0.0140681
943.755	0.0142626
943.833	0.0141948
943.912	0.0141867
943.990	0.0143136
944.068	0.0142432
944.146	0.0143456
944.224	0.0142133
944.302	0.0142910
944.380	0.0143330
944.458	0.0143947
944.537	0.0143291
944.615	0.0141167
944.693	0.0143305
944.771	0.0142366
944.849	0.0143282
944.927	0.0141772
945.005	0.0142011
945.083	0.0142268
945.162	0.0142060
945.240	0.0142150
945.318	0.0141984
945.396	0.0141960
945.474	0.0143219
945.552	0.0143135
945.630	0.0143385
945.708	0.0143156
945.787	0.0142498
945.865	0.0142014
945.943	0.0143786
946.021	0.0143019
946.099	0.0142031
946.177	0.0144295
946.255	0.0143581
946.333	0.0141787
946.412	0.0143193
946.490	0.0142941
946.568	0.0143701
946.646	0.0142656
946.724	0.0141986
946.802	0.0142865
946.880	0.0142751
946.958	0.0141407
947.037	0.0142226
947.115	0.0142344
947.193	0.0142011
947.271	0.0141176
947.349	0.0140836
947.427	0.0139565
947.505	0.0141325
947.583	0.0142805
947.662	0.0142964
947.740	0.0141264
947.818	0.0142381
947.896	0.0142019
947.974	0.0142997
948.052	0.0141421
948.130	0.0143040
948.208	0.0143913
948.287	0.0143195
948.365	0.0143488
948.443	0.0142091
948.521	0.0143282
948.599	0.0142828
948.677	0.0142980
948.755	0.0142696
948.833	0.0139968
948.912	0.0140769
948.990	0.0141166
949.068	0.0141679
949.146	0.0141711
949.224	0.0141610
949.302	0.0142210
949.380	0.0142866
949.458	0.0143154
949.537	0.0142590
949.615	0.0143893
949.693	0.0141263
949.771	0.0142942
949.849	0.0143679
949.927	0.0142175
950.005	0.0142389
950.083	0.0143061
950.162	0.0142455
950.240	0.0142977
950.318	0.0142451
950.396	0.0142010
950.474	0.0142848
950.552	0.0142363
950.630	0.0142719
950.708	0.0142764
950.787	0.0142662
950.865	0.0142574
950.943	0.0144133
951.021	0.0143078
951.099	0.0142946
951.177	0.0141975
951.255	0.0143498
951.333	0.0142719
951.412	0.0143150
951.490	0.0142525
951.568	0.0142070
951.646	0.0141973
951.724	0.0141553
951.802	0.0141772
951.880	0.0141862
951.958	0.0142018
952.037	0.0142957
952.115	0.0141484
952.193	0.0142242
952.271	0.0142461
952.349	0.0142723
952.427	0.0141910
952.505	0.0142954
952.583	0.0142715
952.662	0.0141759
952.740	0.0142073
952.818	0.0141799
952.896	0.0142162
952.974	0.0142780
953.052	0.0142299
953.130	0.0141027
953.208	0.0141542
953.287	0.0141314
953.365	0.0141040
953.443	0.0141835
953.521	0.0141473
953.599	0.0143510
953.677	0.0142761
953.755	0.0142120
953.833	0.0141748
953.912	0.0142884
953.990	0.0141923
954.068	0.0143400
954.146	0.0143193
954.224	0.0142039
954.302	0.0142745
954.380	0.0144209
954.458	0.0143058
954.537	0.0141656
954.615	0.0142685
954.693	0.0142557
954.771	0.0142528
954.849	0.0142249
954.927	0.0142716
955.005	0.0142790
955.083	0.0142388
955.162	0.0143079
955.240	0.0141631
955.318	0.0141187
955.396	0.0141562
955.474	0.0141175
955.552	0.0142980
955.630	0.0142460
955.708	0.0141338
955.787	0.0142187
955.865	0.0142329
955.943	0.0142964
956.021	0.0141846
956.099	0.0141446
956.177	0.0141559
956.255	0.0142934
956.333	0.0143367
956.412	0.0143324
956.490	0.0141499
956.568	0.0142889
956.646	0.0143460
956.724	0.0143034
956.802	0.0143966
956.880	0.0143115
956.958	0.0143748
957.037	0.0141968
957.115	0.0142431
957.193	0.0144450
957.271	0.0143140
957.349	0.0142773
957.427	0.0142663
957.505	0.0142055
957.583	0.0143235
957.662	0.0141563
957.740	0.0142813
957.818	0.0142329
957.896	0.0143423
957.974	0.0142539
958.052	0.0142393
958.130	0.0142570
958.208	0.0142217
958.287	0.0143311
958.365	0.0143321
958.443	0.0142545
958.521	0.0142846
958.599	0.0142216
958.677	0.0141611
958.755	0.0142226
958.833	0.0142444
958.912	0.0142232
958.990	0.0142184
959.068	0.0142008
959.146	0.0141356
959.224	0.0143197
959.302	0.0143154
959.380	0.0142397
959.458	0.0143106
959.537	0.0142776
959.615	0.0143268
959.693	0.0140915
959.771	0.0141992
959.849	0.0141376
959.927	0.0142903
960.005	0.0143228
960.083	0.0142092
960.162	0.0141840
960.240	0.0143693
960.318	0.0141972
960.396	0.0141423
960.474	0.0141744
960.552	0.0142209
960.630	0.0142365
960.708	0.0142851
960.787	0.0142556
960.865	0.0144472
960.943	0.0142809
961.021	0.0142238
961.099	0.0142262
961.177	0.0141848
961.255	0.0143343
961.333	0.0143265
961.412	0.0142406
961.490	0.0142307
961.568	0.0142602
961.646	0.0141702
961.724	0.0141183
961.802	0.0142657
961.880	0.0142391
961.958	0.0142219
962.037	0.0141537
962.115	0.0141234
962.193	0.0142180
962.271	0.0141580
962.349	0.0141794
962.427	0.0141853
962.505	0.0141956
962.583	0.0141088
962.662	0.0141928
962.740	0.0142466
962.818	0.0142318
962.896	0.0142291
962.974	0.0141956
963.052	0.0142191
963.130	0.0142796
963.208	0.0141612
963.287	0.0141995
963.365	0.0143299
963.443	0.0142504
963.521	0.0142543
963.599	0.0143126
963.677	0.0142761
963.755	0.0142616
963.833	0.0142449
963.912	0.0143098
963.990	0.0142646
964.068	0.0143970
964.146	0.0142953
964.224	0.0141982
964.302	0.0143285
964.380	0.0143642
964.458	0.0141849
964.537	0.0142721
964.615	0.0142688
964.693	0.0143498
964.771	0.0142271
964.849	0.0142807
964.927	0.0142612
965.005	0.0142029
965.083	0.0141879
965.162	0.0142355
965.240	0.0142628
965.318	0.0141748
965.396	0.0142583
965.474	0.0142604
965.552	0.0141399
965.630	0.0140797
965.708	0.0142860
965.787	0.0142131
965.865	0.0142612
965.943	0.0144425
966.021	0.0142204
966.099	0.0142908
966.177	0.0142271
966.255	0.0142950
966.333	0.0143036
966.412	0.0142638
966.490	0.0143434
966.568	0.0143549
966.646	0.0143168
966.724	0.0142613
966.802	0.0141389
966.880	0.0143803
966.958	0.0142625
967.037	0.0142337
967.115	0.0143986
967.193	0.0144009
967.271	0.0142474
967.349	0.0142078
967.427	0.0142088
967.505	0.0142339
967.583	0.0142696
967.662	0.0141982
967.740	0.0141505
967.818	0.0143192
967.896	0.0142507
967.974	0.0141683
968.052	0.0140440
968.130	0.0142806
968.208	0.0142539
968.287	0.0141251
968.365	0.0140964
968.443	0.0142042
968.521	0.0141241
968.599	0.0143500
968.677	0.0142175
968.755	0.0141401
968.833	0.0142220
968.912	0.0142222
968.990	0.0142284
969.068	0.0141673
969.146	0.0141456
969.224	0.0141744
969.302	0.0142735
969.380	0.0142692
969.458	0.0142122
969.537	0.0141067
969.615	0.0142127
969.693	0.0143124
969.771	0.0143316
969.849	0.0142838
969.927	0.0143234
970.005	0.0142487
970.083	0.0143273
970.162	0.0141838
970.240	0.0142757
970.318	0.0142725
970.396	0.0142878
970.474	0.0141677
970.552	0.0141229
970.630	0.0140750
970.708	0.0140979
970.787	0.0139908
970.865	0.0140929
970.943	0.0140639
971.021	0.0141841
971.099	0.0141077
971.177	0.0140201
971.255	0.0140499
971.333	0.0141715
971.412	0.0143858
971.490	0.0142535
971.568	0.0142312
971.646	0.0141003
971.724	0.0141642
971.802	0.0142819
971.880	0.0141920
971.958	0.0143178
972.037	0.0143588
972.115	0.0142258
972.193	0.0142583
972.271	0.0142027
972.349	0.0143125
972.427	0.0141808
972.505	0.0143005
972.583	0.0142167
972.662	0.0141248
972.740	0.0141115
972.818	0.0141940
972.896	0.0142523
972.974	0.0141801
973.052	0.0142620
973.130	0.0140771
973.208	0.0141312
973.287	0.0141737
973.365	0.0141370
973.443	0.0143353
973.521	0.0142735
973.599	0.0142601
973.677	0.0142000
973.755	0.0142438
973.833	0.0142991
973.912	0.0141177
973.990	0.0142632
974.068	0.0142155
974.146	0.0141038
974.224	0.0142406
974.302	0.0141763
974.380	0.0142687
974.458	0.0142805
974.537	0.0142741
974.615	0.0142556
974.693	0.0143243
974.771	0.0143198
974.849	0.0143111
974.927	0.0144015
975.005	0.0144035
975.083	0.0144248
975.162	0.0143022
975.240	0.0142681
975.318	0.0143241
975.396	0.0143893
975.474	0.0143327
975.552	0.0140985
975.630	0.0142467
975.708	0.0142922
975.787	0.0142750
975.865	0.0142703
975.943	0.0141229
976.021	0.0142184
976.099	0.0142554
976.177	0.0141753
976.255	0.0141479
976.333	0.0142237
976.412	0.0141142
976.490	0.0142986
976.568	0.0141596
976.646	0.0141229
976.724	0.0142487
976.802	0.0141296
976.880	0.0142159
976.958	0.0142383
977.037	0.0141352
977.115	0.0141679
977.193	0.0141723
977.271	0.0142704
977.349	0.0141934
977.427	0.0142541
977.505	0.0144319
977.583	0.0143482
977.662	0.0143012
977.740	0.0142587
977.818	0.0142397
977.896	0.0142555
977.974	0.0142168
978.052	0.0143523
978.130	0.0142593
978.208	0.0143678
978.287	0.0144339
978.365	0.0144138
978.443	0.0143351
978.521	0.0142022
978.599	0.0142677
978.677	0.0142147
978.755	0.0141949
978.833	0.0143295
978.912	0.0143713
978.990	0.0143249
979.068	0.0141846
979.146	0.0143080
979.224	0.0142056
979.302	0.0141932
979.380	0.0142041
979.458	0.0142512
979.537	0.0142764
979.615	0.0142458
979.693	0.0142775
979.771	0.0141563
979.849	0.0143048
979.927	0.0141524
980.005	0.0140619
980.083	0.0142565
980.162	0.0142470
980.240	0.0142703
980.318	0.0141760
980.396	0.0141850
980.474	0.0141877
980.552	0.0142873
980.630	0.0141709
980.708	0.0142346
980.787	0.0141559
980.865	0.0140647
980.943	0.0141404
981.021	0.0143186
981.099	0.0143356
981.177	0.0141198
981.255	0.0143185
981.333	0.0142754
981.412	0.0142509
981.490	0.0143028
981.568	0.0143854
981.646	0.0142863
981.724	0.0143128
981.802	0.0143336
981.880	0.0143668
981.958	0.0143861
982.037	0.0143443
982.115	0.0142659
982.193	0.0142848
982.271	0.0142597
982.349	0.0142970
982.427	0.0143806
982.505	0.0143457
982.583	0.0142789
982.662	0.0141180
982.740	0.0142463
982.818	0.0142768
982.896	0.0142724
982.974	0.0142615
983.052	0.0142325
983.130	0.0140877
983.208	0.0141116
983.287	0.0141911
983.365	0.0141797
983.443	0.0142265
983.521	0.0141835
983.599	0.0142783
983.677	0.0141079
983.755	0.0142899
983.833	0.0143530
983.912	0.0142865
983.990	0.0143137
984.068	0.0143575
984.146	0.0143938
984.224	0.0142938
984.302	0.0142729
984.380	0.0143129
984.458	0.0142923
984.537	0.0143114
984.615	0.0143200
984.693	0.0142383
984.771	0.0142518
984.849	0.0143461
984.927	0.0141347
985.005	0.0142348
985.083	0.0142204
985.162	0.0141856
985.240	0.0141967
985.318	0.0142136
985.396	0.0142561
985.474	0.0142989
985.552	0.0142643
985.630	0.0143098
985.708	0.0142107
985.787	0.0142988
985.865	0.0143526
985.943	0.0142533
986.021	0.0141988
986.099	0.0142998
986.177	0.0142870
986.255	0.0143513
986.333	0.0143056
986.412	0.0141418
986.490	0.0142037
986.568	0.0142664
986.646	0.0143188
986.724	0.0143513
986.802	0.0142070
986.880	0.0143240
986.958	0.0142863
987.037	0.0142475
987.115	0.0143548
987.193	0.0142080
987.271	0.0143659
987.349	0.0143399
987.427	0.0142811
987.505	0.0141630
987.583	0.0143105
987.662	0.0142902
987.740	0.0141171
987.818	0.0143601
987.896	0.0141925
987.974	0.0141144
988.052	0.0142932
988.130	0.0141991
988.208	0.0140980
988.287	0.0143790
988.365	0.0143902
988.443	0.0142588
988.521	0.0141946
988.599	0.0143028
988.677	0.0141591
988.755	0.0142181
988.833	0.0142622
988.912	0.0142715
988.990	0.0142127
989.068	0.0143678
989.146	0.0142757
989.224	0.0142686
989.302	0.0143171
989.380	0.0142470
989.458	0.0143008
989.537	0.0143891
989.615	0.0142053
989.693	0.0142097
989.771	0.0143741
989.849	0.0142135
989.927	0.0141913
990.005	0.0141932
990.083	0.0143020
990.162	0.0140909
990.240	0.0142969
990.318	0.0141080
990.396	0.0142239
990.474	0.0141790
990.552	0.0141657
990.630	0.0141386
990.708	0.0142191
990.787	0.0141256
990.865	0.0143092
990.943	0.0142963
991.021	0.0143208
991.099	0.0143794
991.177	0.0142699
991.255	0.0143135
991.333	0.0143011
991.412	0.0142462
991.490	0.0142764
991.568	0.0143208
991.646	0.0143023
991.724	0.0143503
991.802	0.0141579
991.880	0.0142705
991.958	0.0143092
992.037	0.0142158
992.115	0.0142093
992.193	0.0141710
992.271	0.0141448
992.349	0.0140639
992.427	0.0141879
992.505	0.0141217
992.583	0.0141198
992.662	0.0142361
992.740	0.0142447
992.818	0.0142020
992.896	0.0141682
992.974	0.0141480
993.052	0.0141380
993.130	0.0142583
993.208	0.0142149
993.287	0.0142383
993.365	0.0141859
993.443	0.0142947
993.521	0.0142638
993.599	0.0142136
993.677	0.0141582
993.755	0.0142593
993.833	0.0141430
993.912	0.0142071
993.990	0.0142754
994.068	0.0141351
994.146	0.0142120
994.224	0.0143363
994.302	0.0142977
994.380	0.0144203
994.458	0.0142801
994.537	0.0142376
994.615	0.0141620
994.693	0.0143230
994.771	0.0142278
994.849	0.0143147
994.927	0.0142215
995.005	0.0142508
995.083	0.0142246
995.162	0.0142616
995.240	0.0141870
995.318	0.0139651
995.396	0.0141752
995.474	0.0142757
995.552	0.0142229
995.630	0.0141853
995.708	0.0142769
995.787	0.0142319
995.865	0.0140778
995.943	0.0143703
996.021	0.0141622
996.099	0.0143114
996.177	0.0143565
996.255	0.0143187
996.333	0.0142766
996.412	0.0143176
996.490	0.0143166
996.568	0.0142670
996.646	0.0143281
996.724	0.0143525
996.802	0.0142701
996.880	0.0143460
996.958	0.0143095
997.037	0.0143757
997.115	0.0141946
997.193	0.0142381
997.271	0.0140957
997.349	0.0141214
997.427	0.0142879
997.505	0.0142722
997.583	0.0141685
997.662	0.0141866
997.740	0.0140645
997.818	0.0141596
997.896	0.0142249
997.974	0.0141523
998.052	0.0141285
998.130	0.0142352
998.208	0.0143063
998.287	0.0141666
998.365	0.0140423
998.443	0.0141187
998.521	0.0141149
998.599	0.0142712
998.677	0.0143330
998.755	0.0143712
998.833	0.0142578
998.912	0.0143143
