05/06/2022	18:40:53	Ver.	4.1	UNKNOWN
Optical Delay	600.015094	Delta X		0.078125	Sweeps	1	Scan Rate	0/0
Coordinates	Axis 1	NaN	Axis 2	NaN	Axis 3	NaN	Axis 4	NaN	Axis 5	NaN	Axis 6	0.000000
TX Power	0.000000	RX Power	0.000000

600.015	0.0129039
600.093	0.0130672
600.171	0.0129737
600.249	0.0128494
600.328	0.0128171
600.406	0.0128168
600.484	0.0129020
600.562	0.0130729
600.640	0.0129348
600.718	0.0129091
600.796	0.0129893
600.874	0.0129765
600.953	0.0129583
601.031	0.0129776
601.109	0.0129617
601.187	0.0129891
601.265	0.0129355
601.343	0.0128659
601.421	0.0129713
601.499	0.0129469
601.578	0.0129272
601.656	0.0130474
601.734	0.0129832
601.812	0.0130000
601.890	0.0127900
601.968	0.0129166
602.046	0.0128204
602.124	0.0128852
602.203	0.0129527
602.281	0.0129310
602.359	0.0129112
602.437	0.0129385
602.515	0.0129113
602.593	0.0129951
602.671	0.0130315
602.749	0.0129009
602.828	0.0127886
602.906	0.0128988
602.984	0.0128484
603.062	0.0129071
603.140	0.0129758
603.218	0.0129643
603.296	0.0129861
603.374	0.0129102
603.453	0.0129481
603.531	0.0128937
603.609	0.0127189
603.687	0.0129784
603.765	0.0129265
603.843	0.0129478
603.921	0.0128177
603.999	0.0129504
604.078	0.0130498
604.156	0.0129688
604.234	0.0128459
604.312	0.0128398
604.390	0.0128421
604.468	0.0128617
604.546	0.0129644
604.624	0.0129491
604.703	0.0128622
604.781	0.0128833
604.859	0.0126188
604.937	0.0128925
605.015	0.0129447
605.093	0.0128789
605.171	0.0128876
605.249	0.0128672
605.328	0.0128692
605.406	0.0130709
605.484	0.0129018
605.562	0.0128717
605.640	0.0129108
605.718	0.0128112
605.796	0.0129819
605.874	0.0129826
605.953	0.0129550
606.031	0.0128841
606.109	0.0129194
606.187	0.0128200
606.265	0.0128458
606.343	0.0129500
606.421	0.0129692
606.499	0.0128339
606.578	0.0127590
606.656	0.0128365
606.734	0.0128294
606.812	0.0128658
606.890	0.0129273
606.968	0.0129946
607.046	0.0129318
607.124	0.0130569
607.203	0.0129339
607.281	0.0129240
607.359	0.0130319
607.437	0.0128375
607.515	0.0129550
607.593	0.0128807
607.671	0.0127916
607.749	0.0128756
607.828	0.0128632
607.906	0.0129034
607.984	0.0130235
608.062	0.0128853
608.140	0.0128046
608.218	0.0128481
608.296	0.0128002
608.374	0.0129475
608.453	0.0128765
608.531	0.0129136
608.609	0.0129800
608.687	0.0128550
608.765	0.0129069
608.843	0.0129559
608.921	0.0129691
608.999	0.0129848
609.078	0.0128831
609.156	0.0129893
609.234	0.0130042
609.312	0.0128048
609.390	0.0129372
609.468	0.0129647
609.546	0.0128126
609.624	0.0128010
609.703	0.0127900
609.781	0.0129408
609.859	0.0129045
609.937	0.0128343
610.015	0.0129037
610.093	0.0130453
610.171	0.0128899
610.249	0.0128571
610.328	0.0129462
610.406	0.0129806
610.484	0.0129729
610.562	0.0128329
610.640	0.0130170
610.718	0.0130397
610.796	0.0128940
610.874	0.0129901
610.953	0.0128556
611.031	0.0129062
611.109	0.0130534
611.187	0.0130859
611.265	0.0129811
611.343	0.0130264
611.421	0.0128717
611.499	0.0128947
611.578	0.0129165
611.656	0.0130235
611.734	0.0129673
611.812	0.0129348
611.890	0.0128368
611.968	0.0128014
612.046	0.0129195
612.124	0.0129512
612.203	0.0127981
612.281	0.0129270
612.359	0.0128410
612.437	0.0127618
612.515	0.0130126
612.593	0.0130408
612.671	0.0130095
612.749	0.0128967
612.828	0.0129159
612.906	0.0129301
612.984	0.0130280
613.062	0.0128218
613.140	0.0129493
613.218	0.0131324
613.296	0.0129078
613.374	0.0129886
613.453	0.0128051
613.531	0.0129509
613.609	0.0129890
613.687	0.0129305
613.765	0.0128300
613.843	0.0128323
613.921	0.0129086
613.999	0.0130154
614.078	0.0129542
614.156	0.0129698
614.234	0.0129034
614.312	0.0128615
614.390	0.0128927
614.468	0.0129403
614.546	0.0130518
614.624	0.0129352
614.703	0.0130418
614.781	0.0129874
614.859	0.0129745
614.937	0.0129870
615.015	0.0129144
615.093	0.0129115
615.171	0.0128778
615.249	0.0130565
615.328	0.0130511
615.406	0.0130945
615.484	0.0129108
615.562	0.0130322
615.640	0.0129766
615.718	0.0128162
615.796	0.0129440
615.874	0.0129269
615.953	0.0129407
616.031	0.0129212
616.109	0.0129609
616.187	0.0129550
616.265	0.0128933
616.343	0.0129922
616.421	0.0130273
616.499	0.0128754
616.578	0.0129234
616.656	0.0128471
616.734	0.0129994
616.812	0.0129874
616.890	0.0128578
616.968	0.0129424
617.046	0.0129908
617.124	0.0129897
617.203	0.0129939
617.281	0.0129663
617.359	0.0129591
617.437	0.0129832
617.515	0.0130345
617.593	0.0128965
617.671	0.0129170
617.749	0.0129374
617.828	0.0128487
617.906	0.0130442
617.984	0.0129826
618.062	0.0129444
618.140	0.0130338
618.218	0.0128450
618.296	0.0128873
618.374	0.0128209
618.453	0.0130618
618.531	0.0129993
618.609	0.0129049
618.687	0.0128835
618.765	0.0129149
618.843	0.0129623
618.921	0.0130424
618.999	0.0129849
619.078	0.0128864
619.156	0.0129977
619.234	0.0130023
619.312	0.0129607
619.390	0.0129691
619.468	0.0128989
619.546	0.0130221
619.624	0.0130170
619.703	0.0129044
619.781	0.0130166
619.859	0.0129176
619.937	0.0128918
620.015	0.0129371
620.093	0.0129499
620.171	0.0128979
620.249	0.0129371
620.328	0.0129790
620.406	0.0129114
620.484	0.0128777
620.562	0.0128826
620.640	0.0129970
620.718	0.0129984
620.796	0.0129458
620.874	0.0128870
620.953	0.0129804
621.031	0.0129695
621.109	0.0129703
621.187	0.0130230
621.265	0.0129346
621.343	0.0129662
621.421	0.0129397
621.499	0.0129349
621.578	0.0128798
621.656	0.0129147
621.734	0.0128333
621.812	0.0129693
621.890	0.0129450
621.968	0.0129556
622.046	0.0129048
622.124	0.0129105
622.203	0.0130164
622.281	0.0128624
622.359	0.0130249
622.437	0.0131132
622.515	0.0128441
622.593	0.0129417
622.671	0.0128880
622.749	0.0129685
622.828	0.0130019
622.906	0.0127959
622.984	0.0129059
623.062	0.0129136
623.140	0.0128908
623.218	0.0129665
623.296	0.0129536
623.374	0.0128811
623.453	0.0128535
623.531	0.0130283
623.609	0.0130215
623.687	0.0127408
623.765	0.0128648
623.843	0.0129166
623.921	0.0127703
623.999	0.0127661
624.078	0.0129383
624.156	0.0129834
624.234	0.0129314
624.312	0.0129056
624.390	0.0128545
624.468	0.0129536
624.546	0.0129026
624.624	0.0130359
624.703	0.0129252
624.781	0.0130819
624.859	0.0128521
624.937	0.0128585
625.015	0.0128308
625.093	0.0129797
625.171	0.0130556
625.249	0.0129721
625.328	0.0130043
625.406	0.0131303
625.484	0.0128983
625.562	0.0128742
625.640	0.0128954
625.718	0.0129401
625.796	0.0129713
625.874	0.0129915
625.953	0.0129129
626.031	0.0130181
626.109	0.0130333
626.187	0.0130584
626.265	0.0128642
626.343	0.0128085
626.421	0.0129523
626.499	0.0129530
626.578	0.0127841
626.656	0.0129794
626.734	0.0128687
626.812	0.0129673
626.890	0.0128548
626.968	0.0129322
627.046	0.0129430
627.124	0.0129133
627.203	0.0128848
627.281	0.0129794
627.359	0.0129257
627.437	0.0129451
627.515	0.0129675
627.593	0.0129227
627.671	0.0127984
627.749	0.0128624
627.828	0.0128799
627.906	0.0129153
627.984	0.0128922
628.062	0.0129028
628.140	0.0131489
628.218	0.0130196
628.296	0.0129230
628.374	0.0129539
628.453	0.0129094
628.531	0.0129488
628.609	0.0130071
628.687	0.0129868
628.765	0.0129145
628.843	0.0128940
628.921	0.0129287
628.999	0.0129636
629.078	0.0129615
629.156	0.0129711
629.234	0.0128275
629.312	0.0127711
629.390	0.0128461
629.468	0.0129202
629.546	0.0129939
629.624	0.0129186
629.703	0.0128476
629.781	0.0128037
629.859	0.0128848
629.937	0.0128914
630.015	0.0128216
630.093	0.0129161
630.171	0.0129108
630.249	0.0129749
630.328	0.0130610
630.406	0.0129537
630.484	0.0130079
630.562	0.0129689
630.640	0.0129285
630.718	0.0128855
630.796	0.0129675
630.874	0.0128201
630.953	0.0130505
631.031	0.0129551
631.109	0.0128491
631.187	0.0129343
631.265	0.0130116
631.343	0.0130211
631.421	0.0128994
631.499	0.0130598
631.578	0.0129408
631.656	0.0128964
631.734	0.0129474
631.812	0.0129752
631.890	0.0129427
631.968	0.0129137
632.046	0.0129670
632.124	0.0130733
632.203	0.0130085
632.281	0.0128468
632.359	0.0128676
632.437	0.0129929
632.515	0.0129128
632.593	0.0128220
632.671	0.0131351
632.749	0.0130193
632.828	0.0128522
632.906	0.0129488
632.984	0.0129338
633.062	0.0129555
633.140	0.0129827
633.218	0.0131056
633.296	0.0129328
633.374	0.0129879
633.453	0.0128688
633.531	0.0129314
633.609	0.0129297
633.687	0.0129002
633.765	0.0128680
633.843	0.0128756
633.921	0.0129161
633.999	0.0128812
634.078	0.0129574
634.156	0.0128831
634.234	0.0128455
634.312	0.0129259
634.390	0.0130100
634.468	0.0129428
634.546	0.0128894
634.624	0.0129369
634.703	0.0129909
634.781	0.0129813
634.859	0.0127752
634.937	0.0129396
635.015	0.0130780
635.093	0.0129237
635.171	0.0129081
635.249	0.0129438
635.328	0.0128909
635.406	0.0129630
635.484	0.0129191
635.562	0.0129648
635.640	0.0130271
635.718	0.0129406
635.796	0.0128982
635.874	0.0129156
635.953	0.0129270
636.031	0.0130636
636.109	0.0128887
636.187	0.0128139
636.265	0.0128679
636.343	0.0129813
636.421	0.0129755
636.499	0.0129056
636.578	0.0129543
636.656	0.0129111
636.734	0.0129388
636.812	0.0129372
636.890	0.0130190
636.968	0.0131047
637.046	0.0129255
637.124	0.0130077
637.203	0.0130074
637.281	0.0129014
637.359	0.0128255
637.437	0.0128738
637.515	0.0129219
637.593	0.0128728
637.671	0.0128629
637.749	0.0128230
637.828	0.0127840
637.906	0.0130125
637.984	0.0129408
638.062	0.0129477
638.140	0.0129591
638.218	0.0128645
638.296	0.0128331
638.374	0.0128288
638.453	0.0128582
638.531	0.0128764
638.609	0.0130252
638.687	0.0130427
638.765	0.0129114
638.843	0.0130751
638.921	0.0129636
638.999	0.0128593
639.078	0.0129791
639.156	0.0130183
639.234	0.0130518
639.312	0.0128799
639.390	0.0129285
639.468	0.0130988
639.546	0.0128027
639.624	0.0128390
639.703	0.0130943
639.781	0.0128501
639.859	0.0128777
639.937	0.0130452
640.015	0.0128618
640.093	0.0128323
640.171	0.0129310
640.249	0.0130019
640.328	0.0128724
640.406	0.0128282
640.484	0.0129548
640.562	0.0129411
640.640	0.0129314
640.718	0.0130537
640.796	0.0129736
640.874	0.0129137
640.953	0.0128719
641.031	0.0128761
641.109	0.0129499
641.187	0.0129148
641.265	0.0129881
641.343	0.0129581
641.421	0.0128025
641.499	0.0130238
641.578	0.0128900
641.656	0.0128803
641.734	0.0128702
641.812	0.0128555
641.890	0.0129018
641.968	0.0129874
642.046	0.0129360
642.124	0.0129784
642.203	0.0129378
642.281	0.0129520
642.359	0.0129613
642.437	0.0128812
642.515	0.0130085
642.593	0.0127678
642.671	0.0128908
642.749	0.0128838
642.828	0.0127824
642.906	0.0129049
642.984	0.0129715
643.062	0.0130015
643.140	0.0129119
643.218	0.0128785
643.296	0.0128412
643.374	0.0130176
643.453	0.0129553
643.531	0.0127766
643.609	0.0129071
643.687	0.0130471
643.765	0.0129164
643.843	0.0129783
643.921	0.0127086
643.999	0.0129341
644.078	0.0129762
644.156	0.0128122
644.234	0.0130241
644.312	0.0128490
644.390	0.0129490
644.468	0.0130347
644.546	0.0129858
644.624	0.0129417
644.703	0.0130114
644.781	0.0129449
644.859	0.0128297
644.937	0.0127626
645.015	0.0129700
645.093	0.0129453
645.171	0.0129847
645.249	0.0129760
645.328	0.0128573
645.406	0.0129299
645.484	0.0129460
645.562	0.0127393
645.640	0.0129716
645.718	0.0130516
645.796	0.0129658
645.874	0.0128769
645.953	0.0128631
646.031	0.0130656
646.109	0.0130320
646.187	0.0129163
646.265	0.0128297
646.343	0.0127192
646.421	0.0129427
646.499	0.0129160
646.578	0.0129253
646.656	0.0129283
646.734	0.0128841
646.812	0.0129198
646.890	0.0130743
646.968	0.0129948
647.046	0.0130074
647.124	0.0129704
647.203	0.0129865
647.281	0.0128306
647.359	0.0128568
647.437	0.0129185
647.515	0.0130357
647.593	0.0129185
647.671	0.0129901
647.749	0.0130333
647.828	0.0130261
647.906	0.0129496
647.984	0.0130152
648.062	0.0129401
648.140	0.0129140
648.218	0.0128365
648.296	0.0129350
648.374	0.0129532
648.453	0.0130550
648.531	0.0129312
648.609	0.0130045
648.687	0.0130140
648.765	0.0128820
648.843	0.0129616
648.921	0.0130244
648.999	0.0128967
649.078	0.0128944
649.156	0.0129393
649.234	0.0129456
649.312	0.0129703
649.390	0.0128642
649.468	0.0129456
649.546	0.0130630
649.624	0.0130304
649.703	0.0130003
649.781	0.0129599
649.859	0.0130346
649.937	0.0129285
650.015	0.0128769
650.093	0.0129637
650.171	0.0129405
650.249	0.0130343
650.328	0.0128378
650.406	0.0129173
650.484	0.0130356
650.562	0.0129661
650.640	0.0128490
650.718	0.0128695
650.796	0.0128793
650.874	0.0129186
650.953	0.0129729
651.031	0.0128564
651.109	0.0130304
651.187	0.0129613
651.265	0.0130730
651.343	0.0129130
651.421	0.0129115
651.499	0.0129084
651.578	0.0129760
651.656	0.0129563
651.734	0.0128865
651.812	0.0129050
651.890	0.0128564
651.968	0.0130102
652.046	0.0128633
652.124	0.0129662
652.203	0.0129659
652.281	0.0128492
652.359	0.0130744
652.437	0.0129884
652.515	0.0129716
652.593	0.0129781
652.671	0.0128954
652.749	0.0129868
652.828	0.0130460
652.906	0.0129690
652.984	0.0130244
653.062	0.0129862
653.140	0.0127996
653.218	0.0129678
653.296	0.0129173
653.374	0.0128875
653.453	0.0128461
653.531	0.0129192
653.609	0.0129330
653.687	0.0131143
653.765	0.0129291
653.843	0.0128278
653.921	0.0128898
653.999	0.0129792
654.078	0.0129308
654.156	0.0130965
654.234	0.0129834
654.312	0.0129024
654.390	0.0129939
654.468	0.0130083
654.546	0.0129740
654.624	0.0128949
654.703	0.0128584
654.781	0.0129823
654.859	0.0129150
654.937	0.0129371
655.015	0.0129060
655.093	0.0127888
655.171	0.0129093
655.249	0.0128938
655.328	0.0127065
655.406	0.0129858
655.484	0.0128650
655.562	0.0129490
655.640	0.0129258
655.718	0.0129274
655.796	0.0128137
655.874	0.0129288
655.953	0.0130004
656.031	0.0129659
656.109	0.0129279
656.187	0.0130290
656.265	0.0130644
656.343	0.0129456
656.421	0.0128201
656.499	0.0129411
656.578	0.0128890
656.656	0.0128887
656.734	0.0130508
656.812	0.0129311
656.890	0.0128410
656.968	0.0128821
657.046	0.0129948
657.124	0.0129070
657.203	0.0128226
657.281	0.0128934
657.359	0.0129250
657.437	0.0129423
657.515	0.0129062
657.593	0.0129159
657.671	0.0128450
657.749	0.0129276
657.828	0.0129815
657.906	0.0130386
657.984	0.0129963
658.062	0.0129393
658.140	0.0129581
658.218	0.0130180
658.296	0.0129585
658.374	0.0128795
658.453	0.0128701
658.531	0.0130151
658.609	0.0129344
658.687	0.0129237
658.765	0.0128152
658.843	0.0130074
658.921	0.0128717
658.999	0.0128442
659.078	0.0129502
659.156	0.0129907
659.234	0.0128992
659.312	0.0127935
659.390	0.0127520
659.468	0.0129676
659.546	0.0129070
659.624	0.0127600
659.703	0.0129288
659.781	0.0129169
659.859	0.0129933
659.937	0.0130094
660.015	0.0129469
660.093	0.0129311
660.171	0.0128177
660.249	0.0129020
660.328	0.0128673
660.406	0.0130636
660.484	0.0129915
660.562	0.0128212
660.640	0.0129108
660.718	0.0129807
660.796	0.0130524
660.874	0.0130681
660.953	0.0130336
661.031	0.0129607
661.109	0.0129755
661.187	0.0129569
661.265	0.0129512
661.343	0.0129009
661.421	0.0129762
661.499	0.0130223
661.578	0.0130056
661.656	0.0130761
661.734	0.0129320
661.812	0.0129453
661.890	0.0129350
661.968	0.0130506
662.046	0.0129601
662.124	0.0129191
662.203	0.0128371
662.281	0.0127583
662.359	0.0130392
662.437	0.0130035
662.515	0.0128600
662.593	0.0131010
662.671	0.0129607
662.749	0.0128858
662.828	0.0130427
662.906	0.0129892
662.984	0.0128825
663.062	0.0129904
663.140	0.0129755
663.218	0.0129088
663.296	0.0128957
663.374	0.0129660
663.453	0.0129007
663.531	0.0129520
663.609	0.0130102
663.687	0.0130329
663.765	0.0131519
663.843	0.0127969
663.921	0.0129540
663.999	0.0129229
664.078	0.0128696
664.156	0.0129836
664.234	0.0130395
664.312	0.0129690
664.390	0.0130686
664.468	0.0128944
664.546	0.0128709
664.624	0.0130323
664.703	0.0129285
664.781	0.0129046
664.859	0.0129661
664.937	0.0129102
665.015	0.0130176
665.093	0.0128322
665.171	0.0128365
665.249	0.0130256
665.328	0.0130412
665.406	0.0129252
665.484	0.0129122
665.562	0.0130143
665.640	0.0128612
665.718	0.0130341
665.796	0.0128631
665.874	0.0130366
665.953	0.0130581
666.031	0.0129758
666.109	0.0128688
666.187	0.0129741
666.265	0.0129934
666.343	0.0128704
666.421	0.0129051
666.499	0.0128889
666.578	0.0129159
666.656	0.0130177
666.734	0.0129584
666.812	0.0130470
666.890	0.0130050
666.968	0.0130276
667.046	0.0129436
667.124	0.0128638
667.203	0.0130920
667.281	0.0129982
667.359	0.0129469
667.437	0.0130352
667.515	0.0130403
667.593	0.0130013
667.671	0.0128864
667.749	0.0128472
667.828	0.0128927
667.906	0.0128693
667.984	0.0129197
668.062	0.0129482
668.140	0.0127806
668.218	0.0129444
668.296	0.0128698
668.374	0.0129647
668.453	0.0129582
668.531	0.0128949
668.609	0.0128774
668.687	0.0127256
668.765	0.0128571
668.843	0.0129785
668.921	0.0130066
668.999	0.0128633
669.078	0.0128722
669.156	0.0128914
669.234	0.0128742
669.312	0.0128417
669.390	0.0129816
669.468	0.0129270
669.546	0.0128398
669.624	0.0128684
669.703	0.0128277
669.781	0.0129298
669.859	0.0128439
669.937	0.0129208
670.015	0.0128840
670.093	0.0129550
670.171	0.0128200
670.249	0.0126839
670.328	0.0128603
670.406	0.0128176
670.484	0.0128349
670.562	0.0128512
670.640	0.0128214
670.718	0.0128139
670.796	0.0129323
670.874	0.0128640
670.953	0.0128696
671.031	0.0128627
671.109	0.0128735
671.187	0.0129781
671.265	0.0128841
671.343	0.0128814
671.421	0.0128353
671.499	0.0128139
671.578	0.0128876
671.656	0.0128351
671.734	0.0129517
671.812	0.0129539
671.890	0.0127682
671.968	0.0128027
672.046	0.0128768
672.124	0.0128824
672.203	0.0128757
672.281	0.0129705
672.359	0.0129141
672.437	0.0129535
672.515	0.0128229
672.593	0.0129170
672.671	0.0130556
672.749	0.0129650
672.828	0.0128778
672.906	0.0128587
672.984	0.0128634
673.062	0.0128514
673.140	0.0130045
673.218	0.0129686
673.296	0.0128318
673.374	0.0130522
673.453	0.0129600
673.531	0.0129669
673.609	0.0129676
673.687	0.0130222
673.765	0.0129002
673.843	0.0129096
673.921	0.0130327
673.999	0.0130351
674.078	0.0129254
674.156	0.0130008
674.234	0.0128641
674.312	0.0128477
674.390	0.0129868
674.468	0.0130685
674.546	0.0129100
674.624	0.0130056
674.703	0.0128989
674.781	0.0130489
674.859	0.0131364
674.937	0.0130770
675.015	0.0130738
675.093	0.0129713
675.171	0.0129621
675.249	0.0130109
675.328	0.0129230
675.406	0.0129326
675.484	0.0129758
675.562	0.0130114
675.640	0.0129330
675.718	0.0130264
675.796	0.0130386
675.874	0.0130386
675.953	0.0130753
676.031	0.0129491
676.109	0.0131084
676.187	0.0130769
676.265	0.0129581
676.343	0.0130350
676.421	0.0131325
676.499	0.0130400
676.578	0.0129562
676.656	0.0130365
676.734	0.0132359
676.812	0.0131709
676.890	0.0129559
676.968	0.0130009
677.046	0.0129398
677.124	0.0129567
677.203	0.0131187
677.281	0.0130724
677.359	0.0130622
677.437	0.0130436
677.515	0.0131268
677.593	0.0129322
677.671	0.0129311
677.749	0.0131150
677.828	0.0130643
677.906	0.0131520
677.984	0.0130746
678.062	0.0130534
678.140	0.0130408
678.218	0.0131188
678.296	0.0129830
678.374	0.0129411
678.453	0.0130208
678.531	0.0132056
678.609	0.0130392
678.687	0.0131036
678.765	0.0130604
678.843	0.0129997
678.921	0.0129557
678.999	0.0129890
679.078	0.0131375
679.156	0.0131074
679.234	0.0131228
679.312	0.0131075
679.390	0.0130286
679.468	0.0130569
679.546	0.0131172
679.624	0.0131760
679.703	0.0131180
679.781	0.0131641
679.859	0.0129822
679.937	0.0129659
680.015	0.0130807
680.093	0.0130331
680.171	0.0130068
680.249	0.0130523
680.328	0.0131426
680.406	0.0131360
680.484	0.0129216
680.562	0.0129530
680.640	0.0129864
680.718	0.0130566
680.796	0.0130232
680.874	0.0130524
680.953	0.0129292
681.031	0.0130170
681.109	0.0130232
681.187	0.0130749
681.265	0.0131394
681.343	0.0129249
681.421	0.0131293
681.499	0.0132136
681.578	0.0129034
681.656	0.0129800
681.734	0.0130534
681.812	0.0130954
681.890	0.0130747
681.968	0.0129450
682.046	0.0130595
682.124	0.0129236
682.203	0.0129996
682.281	0.0130763
682.359	0.0131073
682.437	0.0130682
682.515	0.0128445
682.593	0.0131054
682.671	0.0131619
682.749	0.0130688
682.828	0.0130511
682.906	0.0129573
682.984	0.0130231
683.062	0.0130770
683.140	0.0129723
683.218	0.0130449
683.296	0.0131114
683.374	0.0130501
683.453	0.0129667
683.531	0.0130740
683.609	0.0128918
683.687	0.0128981
683.765	0.0129326
683.843	0.0129340
683.921	0.0130025
683.999	0.0130135
684.078	0.0130647
684.156	0.0128691
684.234	0.0128972
684.312	0.0129314
684.390	0.0129556
684.468	0.0129702
684.546	0.0130077
684.624	0.0130427
684.703	0.0129817
684.781	0.0129305
684.859	0.0128489
684.937	0.0129608
685.015	0.0129587
685.093	0.0129758
685.171	0.0129807
685.249	0.0129449
685.328	0.0129193
685.406	0.0130975
685.484	0.0129733
685.562	0.0130507
685.640	0.0128641
685.718	0.0129122
685.796	0.0128634
685.874	0.0128769
685.953	0.0130017
686.031	0.0130228
686.109	0.0130526
686.187	0.0130116
686.265	0.0128975
686.343	0.0131084
686.421	0.0126984
686.499	0.0128729
686.578	0.0128407
686.656	0.0129601
686.734	0.0128983
686.812	0.0127698
686.890	0.0128613
686.968	0.0130184
687.046	0.0129399
687.124	0.0131181
687.203	0.0131606
687.281	0.0131776
687.359	0.0131864
687.437	0.0130898
687.515	0.0128833
687.593	0.0128071
687.671	0.0126496
687.749	0.0126052
687.828	0.0126757
687.906	0.0125560
687.984	0.0125446
688.062	0.0126051
688.140	0.0128062
688.218	0.0128212
688.296	0.0128200
688.374	0.0128656
688.453	0.0130651
688.531	0.0133235
688.609	0.0130978
688.687	0.0131801
688.765	0.0130539
688.843	0.0132044
688.921	0.0129726
688.999	0.0129536
689.078	0.0129199
689.156	0.0128327
689.234	0.0128260
689.312	0.0128883
689.390	0.0129649
689.468	0.0127414
689.546	0.0129870
689.624	0.0131593
689.703	0.0130680
689.781	0.0130733
689.859	0.0132032
689.937	0.0131242
690.015	0.0129986
690.093	0.0129987
690.171	0.0129826
690.249	0.0129362
690.328	0.0128472
690.406	0.0128603
690.484	0.0126395
690.562	0.0125913
690.640	0.0126922
690.718	0.0126866
690.796	0.0127527
690.874	0.0127747
690.953	0.0128413
691.031	0.0130692
691.109	0.0130472
691.187	0.0131321
691.265	0.0131763
691.343	0.0133051
691.421	0.0133126
691.499	0.0133566
691.578	0.0132093
691.656	0.0132569
691.734	0.0132099
691.812	0.0131469
691.890	0.0130927
691.968	0.0131034
692.046	0.0129277
692.124	0.0127814
692.203	0.0126143
692.281	0.0125385
692.359	0.0125321
692.437	0.0123972
692.515	0.0125104
692.593	0.0125768
692.671	0.0125157
692.749	0.0125167
692.828	0.0125923
692.906	0.0127598
692.984	0.0128249
693.062	0.0128094
693.140	0.0129831
693.218	0.0129723
693.296	0.0131690
693.374	0.0131864
693.453	0.0130967
693.531	0.0131238
693.609	0.0130004
693.687	0.0130663
693.765	0.0129619
693.843	0.0128823
693.921	0.0127535
693.999	0.0128136
694.078	0.0127380
694.156	0.0128060
694.234	0.0127506
694.312	0.0126532
694.390	0.0128356
694.468	0.0126825
694.546	0.0126394
694.624	0.0127605
694.703	0.0128045
694.781	0.0127332
694.859	0.0127587
694.937	0.0127087
695.015	0.0127069
695.093	0.0128688
695.171	0.0128291
695.249	0.0128688
695.328	0.0130727
695.406	0.0129214
695.484	0.0131634
695.562	0.0133053
695.640	0.0131030
695.718	0.0132233
695.796	0.0132089
695.874	0.0132032
695.953	0.0130770
696.031	0.0130125
696.109	0.0130158
696.187	0.0129143
696.265	0.0128222
696.343	0.0126809
696.421	0.0125588
696.499	0.0125842
696.578	0.0124454
696.656	0.0123984
696.734	0.0125130
696.812	0.0124727
696.890	0.0124256
696.968	0.0124084
697.046	0.0126898
697.124	0.0127725
697.203	0.0127824
697.281	0.0129398
697.359	0.0129867
697.437	0.0130148
697.515	0.0130630
697.593	0.0130003
697.671	0.0131892
697.749	0.0130721
697.828	0.0129319
697.906	0.0129721
697.984	0.0129071
698.062	0.0129115
698.140	0.0130211
698.218	0.0128767
698.296	0.0128500
698.374	0.0128348
698.453	0.0129545
698.531	0.0128502
698.609	0.0128567
698.687	0.0127196
698.765	0.0128686
698.843	0.0130473
698.921	0.0129583
698.999	0.0128908
699.078	0.0130728
699.156	0.0130161
699.234	0.0130470
699.312	0.0131709
699.390	0.0131973
699.468	0.0133114
699.546	0.0132960
699.624	0.0133073
699.703	0.0129580
699.781	0.0132654
699.859	0.0130844
699.937	0.0129042
700.015	0.0129967
700.093	0.0127979
700.171	0.0126858
700.249	0.0125565
700.328	0.0126191
700.406	0.0127113
700.484	0.0125462
700.562	0.0124348
700.640	0.0124776
700.718	0.0126180
700.796	0.0126186
700.874	0.0124564
700.953	0.0125107
701.031	0.0128343
701.109	0.0127628
701.187	0.0128506
701.265	0.0128886
701.343	0.0129758
701.421	0.0130524
701.499	0.0132136
701.578	0.0132126
701.656	0.0132738
701.734	0.0132835
701.812	0.0132104
701.890	0.0133278
701.968	0.0132733
702.046	0.0133154
702.124	0.0131471
702.203	0.0130918
702.281	0.0130660
702.359	0.0129179
702.437	0.0127902
702.515	0.0127329
702.593	0.0125424
702.671	0.0125605
702.749	0.0125860
702.828	0.0125328
702.906	0.0125409
702.984	0.0125546
703.062	0.0126640
703.140	0.0127265
703.218	0.0126888
703.296	0.0128127
703.374	0.0128991
703.453	0.0130708
703.531	0.0132173
703.609	0.0132210
703.687	0.0132165
703.765	0.0133977
703.843	0.0134740
703.921	0.0134846
703.999	0.0134872
704.078	0.0133163
704.156	0.0133524
704.234	0.0134146
704.312	0.0131969
704.390	0.0131242
704.468	0.0131171
704.546	0.0129981
704.624	0.0129001
704.703	0.0127745
704.781	0.0127821
704.859	0.0127237
704.937	0.0127718
705.015	0.0127297
705.093	0.0126456
705.171	0.0125912
705.249	0.0126244
705.328	0.0126592
705.406	0.0127860
705.484	0.0128785
705.562	0.0128506
705.640	0.0128973
705.718	0.0129342
705.796	0.0131515
705.874	0.0131481
705.953	0.0132526
706.031	0.0129827
706.109	0.0131644
706.187	0.0131600
706.265	0.0132223
706.343	0.0130528
706.421	0.0130778
706.499	0.0130281
706.578	0.0130146
706.656	0.0129936
706.734	0.0130106
706.812	0.0129324
706.890	0.0128549
706.968	0.0129341
707.046	0.0128589
707.124	0.0128391
707.203	0.0129746
707.281	0.0129625
707.359	0.0129619
707.437	0.0130658
707.515	0.0132067
707.593	0.0132275
707.671	0.0132070
707.749	0.0133270
707.828	0.0133840
707.906	0.0134099
707.984	0.0134215
708.062	0.0134206
708.140	0.0133807
708.218	0.0132795
708.296	0.0132889
708.374	0.0133141
708.453	0.0131380
708.531	0.0131001
708.609	0.0130277
708.687	0.0130793
708.765	0.0129109
708.843	0.0128278
708.921	0.0126914
708.999	0.0127099
709.078	0.0128816
709.156	0.0127250
709.234	0.0125280
709.312	0.0126945
709.390	0.0126340
709.468	0.0127219
709.546	0.0128386
709.624	0.0125598
709.703	0.0128220
709.781	0.0128596
709.859	0.0127500
709.937	0.0128884
710.015	0.0129279
710.093	0.0128516
710.171	0.0128423
710.249	0.0129732
710.328	0.0129563
710.406	0.0128295
710.484	0.0128555
710.562	0.0128510
710.640	0.0127860
710.718	0.0127941
710.796	0.0129277
710.874	0.0129589
710.953	0.0129025
711.031	0.0129335
711.109	0.0128457
711.187	0.0129067
711.265	0.0129908
711.343	0.0129988
711.421	0.0129817
711.499	0.0130577
711.578	0.0128642
711.656	0.0130635
711.734	0.0127976
711.812	0.0128086
711.890	0.0130172
711.968	0.0129714
712.046	0.0130707
712.124	0.0130614
712.203	0.0131035
712.281	0.0131583
712.359	0.0132166
712.437	0.0131261
712.515	0.0132913
712.593	0.0133251
712.671	0.0131863
712.749	0.0131397
712.828	0.0132662
712.906	0.0133623
712.984	0.0132140
713.062	0.0131766
713.140	0.0132475
713.218	0.0131449
713.296	0.0130910
713.374	0.0129729
713.453	0.0131599
713.531	0.0130880
713.609	0.0130464
713.687	0.0130965
713.765	0.0128950
713.843	0.0127615
713.921	0.0129487
713.999	0.0129125
714.078	0.0129366
714.156	0.0127929
714.234	0.0128405
714.312	0.0127643
714.390	0.0127371
714.468	0.0127599
714.546	0.0128887
714.624	0.0128798
714.703	0.0128953
714.781	0.0129229
714.859	0.0128297
714.937	0.0128730
715.015	0.0127894
715.093	0.0129538
715.171	0.0130298
715.249	0.0129428
715.328	0.0128307
715.406	0.0127586
715.484	0.0127708
715.562	0.0128868
715.640	0.0128995
715.718	0.0127744
715.796	0.0126798
715.874	0.0126821
715.953	0.0129223
716.031	0.0127954
716.109	0.0127678
716.187	0.0128229
716.265	0.0128915
716.343	0.0128452
716.421	0.0128520
716.499	0.0129200
716.578	0.0130914
716.656	0.0130837
716.734	0.0132230
716.812	0.0130559
716.890	0.0131204
716.968	0.0132111
717.046	0.0131950
717.124	0.0131785
717.203	0.0132022
717.281	0.0131969
717.359	0.0131748
717.437	0.0132142
717.515	0.0132810
717.593	0.0131265
717.671	0.0131033
717.749	0.0131408
717.828	0.0130806
717.906	0.0130300
717.984	0.0129062
718.062	0.0131880
718.140	0.0129683
718.218	0.0129945
718.296	0.0129317
718.374	0.0128696
718.453	0.0129654
718.531	0.0127576
718.609	0.0128810
718.687	0.0128565
718.765	0.0129465
718.843	0.0129425
718.921	0.0128416
718.999	0.0128817
719.078	0.0128362
719.156	0.0129015
719.234	0.0130046
719.312	0.0129643
719.390	0.0128967
719.468	0.0129099
719.546	0.0129155
719.624	0.0128007
719.703	0.0129918
719.781	0.0128903
719.859	0.0129101
719.937	0.0128001
720.015	0.0128070
720.093	0.0129816
720.171	0.0127742
720.249	0.0128680
720.328	0.0129389
720.406	0.0130013
720.484	0.0127949
720.562	0.0129061
720.640	0.0129285
720.718	0.0129302
720.796	0.0128716
720.874	0.0129320
720.953	0.0128946
721.031	0.0129192
721.109	0.0129259
721.187	0.0127530
721.265	0.0128561
721.343	0.0130132
721.421	0.0129592
721.499	0.0130888
721.578	0.0129321
721.656	0.0128876
721.734	0.0128620
721.812	0.0128635
721.890	0.0128532
721.968	0.0130170
722.046	0.0128827
722.124	0.0129360
722.203	0.0129317
722.281	0.0129160
722.359	0.0128960
722.437	0.0128429
722.515	0.0128464
722.593	0.0128088
722.671	0.0130270
722.749	0.0130219
722.828	0.0128337
722.906	0.0129613
722.984	0.0129546
723.062	0.0129058
723.140	0.0128386
723.218	0.0127697
723.296	0.0129196
723.374	0.0129230
723.453	0.0128205
723.531	0.0130357
723.609	0.0129755
723.687	0.0129934
723.765	0.0128614
723.843	0.0127872
723.921	0.0128254
723.999	0.0129301
724.078	0.0128149
724.156	0.0128898
724.234	0.0128433
724.312	0.0127419
724.390	0.0129258
724.468	0.0127439
724.546	0.0127844
724.624	0.0128111
724.703	0.0128773
724.781	0.0127541
724.859	0.0126521
724.937	0.0127340
725.015	0.0126006
725.093	0.0127024
725.171	0.0129147
725.249	0.0127053
725.328	0.0127793
725.406	0.0126930
725.484	0.0127905
725.562	0.0129908
725.640	0.0127583
725.718	0.0128047
725.796	0.0128700
725.874	0.0127795
725.953	0.0128562
726.031	0.0128053
726.109	0.0129156
726.187	0.0128299
726.265	0.0129311
726.343	0.0128920
726.421	0.0130643
726.499	0.0129557
726.578	0.0128712
726.656	0.0129018
726.734	0.0128883
726.812	0.0130164
726.890	0.0130109
726.968	0.0128752
727.046	0.0128616
727.124	0.0130042
727.203	0.0130732
727.281	0.0129632
727.359	0.0129529
727.437	0.0129704
727.515	0.0129087
727.593	0.0129352
727.671	0.0127761
727.749	0.0129627
727.828	0.0127805
727.906	0.0128859
727.984	0.0129692
728.062	0.0129424
728.140	0.0127882
728.218	0.0128603
728.296	0.0130074
728.374	0.0129416
728.453	0.0130360
728.531	0.0130282
728.609	0.0131310
728.687	0.0131516
728.765	0.0130547
728.843	0.0131636
728.921	0.0130642
728.999	0.0130800
729.078	0.0131303
729.156	0.0130526
729.234	0.0131409
729.312	0.0129987
729.390	0.0129823
729.468	0.0130304
729.546	0.0130220
729.624	0.0129552
729.703	0.0129587
729.781	0.0128357
729.859	0.0129576
729.937	0.0129871
730.015	0.0128551
730.093	0.0128663
730.171	0.0128337
730.249	0.0127925
730.328	0.0128901
730.406	0.0129958
730.484	0.0127771
730.562	0.0127876
730.640	0.0129410
730.718	0.0130090
730.796	0.0128941
730.874	0.0129557
730.953	0.0128568
731.031	0.0129755
731.109	0.0129240
731.187	0.0130219
731.265	0.0130053
731.343	0.0127629
731.421	0.0128927
731.499	0.0129558
731.578	0.0128647
731.656	0.0128983
731.734	0.0127882
731.812	0.0128258
731.890	0.0128589
731.968	0.0128651
732.046	0.0127370
732.124	0.0129526
732.203	0.0130189
732.281	0.0128259
732.359	0.0129553
732.437	0.0128899
732.515	0.0128442
732.593	0.0131374
732.671	0.0130005
732.749	0.0128664
732.828	0.0129201
732.906	0.0129762
732.984	0.0128004
733.062	0.0130197
733.140	0.0130120
733.218	0.0130559
733.296	0.0129765
733.374	0.0129814
733.453	0.0130363
733.531	0.0129498
733.609	0.0128168
733.687	0.0128088
733.765	0.0128680
733.843	0.0127218
733.921	0.0128582
733.999	0.0128947
734.078	0.0129182
734.156	0.0129830
734.234	0.0129491
734.312	0.0128960
734.390	0.0128468
734.468	0.0129143
734.546	0.0129440
734.624	0.0130445
734.703	0.0129977
734.781	0.0129588
734.859	0.0128986
734.937	0.0129150
735.015	0.0130804
735.093	0.0130751
735.171	0.0130057
735.249	0.0128908
735.328	0.0129675
735.406	0.0130597
735.484	0.0129349
735.562	0.0127967
735.640	0.0129887
735.718	0.0129910
735.796	0.0128619
735.874	0.0128357
735.953	0.0129538
736.031	0.0129877
736.109	0.0130133
736.187	0.0130962
736.265	0.0130711
736.343	0.0128501
736.421	0.0130151
736.499	0.0130833
736.578	0.0131902
736.656	0.0130630
736.734	0.0129832
736.812	0.0128863
736.890	0.0129203
736.968	0.0130754
737.046	0.0128815
737.124	0.0128300
737.203	0.0129581
737.281	0.0129131
737.359	0.0129890
737.437	0.0128407
737.515	0.0128186
737.593	0.0126419
737.671	0.0126778
737.749	0.0128165
737.828	0.0128586
737.906	0.0128339
737.984	0.0127669
738.062	0.0128103
738.140	0.0127391
738.218	0.0128072
738.296	0.0128871
738.374	0.0128958
738.453	0.0129752
738.531	0.0130030
738.609	0.0130859
738.687	0.0130888
738.765	0.0129633
738.843	0.0131013
738.921	0.0129649
738.999	0.0129828
739.078	0.0130625
739.156	0.0130466
739.234	0.0129411
739.312	0.0130244
739.390	0.0129385
739.468	0.0128914
739.546	0.0129213
739.624	0.0129320
739.703	0.0128960
739.781	0.0128425
739.859	0.0127508
739.937	0.0127449
740.015	0.0129047
740.093	0.0127452
740.171	0.0127277
740.249	0.0128820
740.328	0.0128235
740.406	0.0128692
740.484	0.0129457
740.562	0.0130475
740.640	0.0129683
740.718	0.0129392
740.796	0.0131063
740.874	0.0130553
740.953	0.0130186
741.031	0.0132220
741.109	0.0129673
741.187	0.0131284
741.265	0.0130978
741.343	0.0130687
741.421	0.0132717
741.499	0.0130520
741.578	0.0131113
741.656	0.0130257
741.734	0.0131272
741.812	0.0130904
741.890	0.0129752
741.968	0.0129750
742.046	0.0129758
742.124	0.0130685
742.203	0.0130545
742.281	0.0130014
742.359	0.0129443
742.437	0.0129799
742.515	0.0131112
742.593	0.0130423
742.671	0.0131404
742.749	0.0130262
742.828	0.0128683
742.906	0.0130545
742.984	0.0130219
743.062	0.0129651
743.140	0.0129452
743.218	0.0129244
743.296	0.0128908
743.374	0.0128590
743.453	0.0129053
743.531	0.0128428
743.609	0.0129201
743.687	0.0128881
743.765	0.0128561
743.843	0.0128163
743.921	0.0128749
743.999	0.0129943
744.078	0.0130300
744.156	0.0129973
744.234	0.0131171
744.312	0.0130104
744.390	0.0130205
744.468	0.0130452
744.546	0.0130775
744.624	0.0131654
744.703	0.0131616
744.781	0.0130969
744.859	0.0131769
744.937	0.0130920
745.015	0.0130453
745.093	0.0130881
745.171	0.0130841
745.249	0.0131275
745.328	0.0130604
745.406	0.0129297
745.484	0.0131540
745.562	0.0129487
745.640	0.0129070
745.718	0.0129507
745.796	0.0128742
745.874	0.0129203
745.953	0.0128650
746.031	0.0128738
746.109	0.0130701
746.187	0.0128350
746.265	0.0130759
746.343	0.0129133
746.421	0.0128600
746.499	0.0127960
746.578	0.0128304
746.656	0.0129211
746.734	0.0130046
746.812	0.0129359
746.890	0.0129161
746.968	0.0129039
747.046	0.0128104
747.124	0.0130636
747.203	0.0129609
747.281	0.0129157
747.359	0.0128661
747.437	0.0128139
747.515	0.0128913
747.593	0.0130017
747.671	0.0129099
747.749	0.0129588
747.828	0.0129601
747.906	0.0128964
747.984	0.0129440
748.062	0.0130563
748.140	0.0130392
748.218	0.0130602
748.296	0.0130514
748.374	0.0130183
748.453	0.0131239
748.531	0.0130299
748.609	0.0130587
748.687	0.0129585
748.765	0.0128888
748.843	0.0129924
748.921	0.0131017
748.999	0.0128785
749.078	0.0128249
749.156	0.0130231
749.234	0.0129594
749.312	0.0129684
749.390	0.0130090
749.468	0.0130472
749.546	0.0131448
749.624	0.0131211
749.703	0.0131944
749.781	0.0129827
749.859	0.0129836
749.937	0.0129310
750.015	0.0128842
750.093	0.0130118
750.171	0.0129838
750.249	0.0128684
750.328	0.0129603
750.406	0.0129290
750.484	0.0129514
750.562	0.0128376
750.640	0.0127391
750.718	0.0129324
750.796	0.0129582
750.874	0.0129083
750.953	0.0128540
751.031	0.0128944
751.109	0.0127484
751.187	0.0126894
751.265	0.0127720
751.343	0.0128941
751.421	0.0129905
751.499	0.0128846
751.578	0.0129553
751.656	0.0130325
751.734	0.0129990
751.812	0.0128993
751.890	0.0128661
751.968	0.0129593
752.046	0.0129784
752.124	0.0130066
752.203	0.0130489
752.281	0.0129158
752.359	0.0128461
752.437	0.0130253
752.515	0.0130301
752.593	0.0130196
752.671	0.0128378
752.749	0.0129199
752.828	0.0130322
752.906	0.0129485
752.984	0.0129466
753.062	0.0129884
753.140	0.0129025
753.218	0.0130295
753.296	0.0129926
753.374	0.0130061
753.453	0.0130090
753.531	0.0129144
753.609	0.0130688
753.687	0.0130266
753.765	0.0129468
753.843	0.0129884
753.921	0.0130611
753.999	0.0130424
754.078	0.0130218
754.156	0.0129728
754.234	0.0130550
754.312	0.0130495
754.390	0.0131139
754.468	0.0130360
754.546	0.0130139
754.624	0.0129643
754.703	0.0129317
754.781	0.0129594
754.859	0.0130166
754.937	0.0128567
755.015	0.0127470
755.093	0.0129971
755.171	0.0128632
755.249	0.0128347
755.328	0.0128928
755.406	0.0127097
755.484	0.0127826
755.562	0.0129480
755.640	0.0128062
755.718	0.0129230
755.796	0.0129725
755.874	0.0126533
755.953	0.0126812
756.031	0.0127927
756.109	0.0129066
756.187	0.0128989
756.265	0.0129643
756.343	0.0129613
756.421	0.0130753
756.499	0.0129695
756.578	0.0130180
756.656	0.0129095
756.734	0.0130209
756.812	0.0128304
756.890	0.0128820
756.968	0.0129344
757.046	0.0131194
757.124	0.0130478
757.203	0.0129285
757.281	0.0130284
757.359	0.0130443
757.437	0.0129610
757.515	0.0129717
757.593	0.0130783
757.671	0.0129214
757.749	0.0129848
757.828	0.0130063
757.906	0.0129216
757.984	0.0129390
758.062	0.0129194
758.140	0.0129381
758.218	0.0130083
758.296	0.0129094
758.374	0.0129889
758.453	0.0129098
758.531	0.0128973
758.609	0.0130502
758.687	0.0129137
758.765	0.0128185
758.843	0.0129128
758.921	0.0127988
758.999	0.0130064
759.078	0.0128774
759.156	0.0128477
759.234	0.0128794
759.312	0.0127841
759.390	0.0127283
759.468	0.0128027
759.546	0.0129364
759.624	0.0128449
759.703	0.0128076
759.781	0.0127451
759.859	0.0130080
759.937	0.0130788
760.015	0.0128917
760.093	0.0125562
760.171	0.0127448
760.249	0.0129536
760.328	0.0128715
760.406	0.0129921
760.484	0.0128470
760.562	0.0128452
760.640	0.0129937
760.718	0.0130109
760.796	0.0130231
760.874	0.0129444
760.953	0.0130309
761.031	0.0129884
761.109	0.0129254
761.187	0.0131072
761.265	0.0129608
761.343	0.0129429
761.421	0.0130338
761.499	0.0128957
761.578	0.0129052
761.656	0.0129405
761.734	0.0128295
761.812	0.0128457
761.890	0.0130287
761.968	0.0127930
762.046	0.0129684
762.124	0.0129120
762.203	0.0127673
762.281	0.0128737
762.359	0.0129811
762.437	0.0128778
762.515	0.0129734
762.593	0.0129636
762.671	0.0129742
762.749	0.0128612
762.828	0.0130862
762.906	0.0130119
762.984	0.0129223
763.062	0.0130103
763.140	0.0130101
763.218	0.0129784
763.296	0.0129227
763.374	0.0129810
763.453	0.0131936
763.531	0.0130751
763.609	0.0129623
763.687	0.0130383
763.765	0.0130139
763.843	0.0130502
763.921	0.0130074
763.999	0.0131755
764.078	0.0132163
764.156	0.0129482
764.234	0.0130418
764.312	0.0130077
764.390	0.0131161
764.468	0.0130346
764.546	0.0130827
764.624	0.0128825
764.703	0.0130096
764.781	0.0130222
764.859	0.0129060
764.937	0.0129919
765.015	0.0130309
765.093	0.0128903
765.171	0.0130476
765.249	0.0128809
765.328	0.0129036
765.406	0.0129485
765.484	0.0129089
765.562	0.0130028
765.640	0.0129939
765.718	0.0129800
765.796	0.0131297
765.874	0.0131128
765.953	0.0130262
766.031	0.0130363
766.109	0.0131577
766.187	0.0130206
766.265	0.0130498
766.343	0.0130740
766.421	0.0130416
766.499	0.0130176
766.578	0.0129878
766.656	0.0129637
766.734	0.0130482
766.812	0.0130099
766.890	0.0129386
766.968	0.0129247
767.046	0.0130317
767.124	0.0129420
767.203	0.0128848
767.281	0.0130095
767.359	0.0130360
767.437	0.0129607
767.515	0.0130569
767.593	0.0130012
767.671	0.0130286
767.749	0.0131755
767.828	0.0130780
767.906	0.0130243
767.984	0.0130134
768.062	0.0130844
768.140	0.0129760
768.218	0.0129795
768.296	0.0129894
768.374	0.0129351
768.453	0.0129696
768.531	0.0128817
768.609	0.0128468
768.687	0.0128458
768.765	0.0129352
768.843	0.0129198
768.921	0.0128065
768.999	0.0126833
769.078	0.0129707
769.156	0.0129449
769.234	0.0128604
769.312	0.0129656
769.390	0.0128198
769.468	0.0128549
769.546	0.0128910
769.624	0.0129183
769.703	0.0129539
769.781	0.0129700
769.859	0.0128812
769.937	0.0126966
770.015	0.0128818
770.093	0.0130331
770.171	0.0127689
770.249	0.0129409
770.328	0.0129367
770.406	0.0127611
770.484	0.0125982
770.562	0.0128040
770.640	0.0128868
770.718	0.0127943
770.796	0.0128197
770.874	0.0128384
770.953	0.0127743
771.031	0.0127099
771.109	0.0128613
771.187	0.0129740
771.265	0.0129409
771.343	0.0129082
771.421	0.0128872
771.499	0.0129407
771.578	0.0129366
771.656	0.0128521
771.734	0.0128990
771.812	0.0130302
771.890	0.0128827
771.968	0.0128899
772.046	0.0130518
772.124	0.0130495
772.203	0.0127805
772.281	0.0129372
772.359	0.0130179
772.437	0.0129165
772.515	0.0128556
772.593	0.0129516
772.671	0.0129939
772.749	0.0129236
772.828	0.0128587
772.906	0.0128313
772.984	0.0129153
773.062	0.0128672
773.140	0.0128146
773.218	0.0129163
773.296	0.0129562
773.374	0.0129958
773.453	0.0128416
773.531	0.0128181
773.609	0.0130474
773.687	0.0129232
773.765	0.0129223
773.843	0.0130443
773.921	0.0130199
773.999	0.0129401
774.078	0.0130173
774.156	0.0130465
774.234	0.0130394
774.312	0.0130932
774.390	0.0130267
774.468	0.0131606
774.546	0.0131317
774.624	0.0130716
774.703	0.0132000
774.781	0.0132050
774.859	0.0131081
774.937	0.0131121
775.015	0.0130364
775.093	0.0131276
775.171	0.0131005
775.249	0.0130463
775.328	0.0130770
775.406	0.0130390
775.484	0.0131327
775.562	0.0130467
775.640	0.0129738
775.718	0.0129457
775.796	0.0130820
775.874	0.0130981
775.953	0.0131214
776.031	0.0130365
776.109	0.0129527
776.187	0.0129395
776.265	0.0129214
776.343	0.0129792
776.421	0.0130627
776.499	0.0129111
776.578	0.0128759
776.656	0.0129426
776.734	0.0130003
776.812	0.0131020
776.890	0.0130087
776.968	0.0130473
777.046	0.0128576
777.124	0.0130286
777.203	0.0129934
777.281	0.0129790
777.359	0.0130723
777.437	0.0129573
777.515	0.0130474
777.593	0.0130321
777.671	0.0129491
777.749	0.0130672
777.828	0.0130352
777.906	0.0130901
777.984	0.0130128
778.062	0.0128757
778.140	0.0129679
778.218	0.0129449
778.296	0.0130995
778.374	0.0130682
778.453	0.0130048
778.531	0.0130022
778.609	0.0130392
778.687	0.0129510
778.765	0.0129105
778.843	0.0129739
778.921	0.0130810
778.999	0.0130509
779.078	0.0129317
779.156	0.0128324
779.234	0.0130098
779.312	0.0129693
779.390	0.0130640
779.468	0.0129185
779.546	0.0129893
779.624	0.0130165
779.703	0.0130739
779.781	0.0130882
779.859	0.0130073
779.937	0.0131047
780.015	0.0129885
780.093	0.0131085
780.171	0.0130969
780.249	0.0130337
780.328	0.0129995
780.406	0.0130873
780.484	0.0130010
780.562	0.0129019
780.640	0.0129256
780.718	0.0129773
780.796	0.0129515
780.874	0.0128776
780.953	0.0128517
781.031	0.0128983
781.109	0.0128455
781.187	0.0128741
781.265	0.0129047
781.343	0.0128140
781.421	0.0128503
781.499	0.0128250
781.578	0.0126947
781.656	0.0126892
781.734	0.0127912
781.812	0.0128214
781.890	0.0129498
781.968	0.0128347
782.046	0.0128338
782.124	0.0129150
782.203	0.0128079
782.281	0.0127965
782.359	0.0128056
782.437	0.0129470
782.515	0.0129259
782.593	0.0127801
782.671	0.0129823
782.749	0.0129383
782.828	0.0131014
782.906	0.0130676
782.984	0.0129590
783.062	0.0129443
783.140	0.0130802
783.218	0.0129614
783.296	0.0130978
783.374	0.0129774
783.453	0.0130326
783.531	0.0128678
783.609	0.0129185
783.687	0.0129661
783.765	0.0129251
783.843	0.0129450
783.921	0.0129203
783.999	0.0128961
784.078	0.0129702
784.156	0.0128384
784.234	0.0128703
784.312	0.0128565
784.390	0.0128152
784.468	0.0128369
784.546	0.0128919
784.624	0.0129820
784.703	0.0129002
784.781	0.0129599
784.859	0.0130949
784.937	0.0128986
785.015	0.0129208
785.093	0.0129420
785.171	0.0129089
785.249	0.0129160
785.328	0.0130192
785.406	0.0129741
785.484	0.0129062
785.562	0.0129630
785.640	0.0129898
785.718	0.0129982
785.796	0.0128568
785.874	0.0129666
785.953	0.0128641
786.031	0.0129251
786.109	0.0129829
786.187	0.0130122
786.265	0.0129282
786.343	0.0129964
786.421	0.0128660
786.499	0.0130344
786.578	0.0130130
786.656	0.0129493
786.734	0.0128995
786.812	0.0128856
786.890	0.0128302
786.968	0.0129398
787.046	0.0129205
787.124	0.0128802
787.203	0.0129841
787.281	0.0128681
787.359	0.0128407
787.437	0.0128336
787.515	0.0129517
787.593	0.0129556
787.671	0.0128851
787.749	0.0129269
787.828	0.0129170
787.906	0.0128119
787.984	0.0127097
788.062	0.0128839
788.140	0.0129093
788.218	0.0127952
788.296	0.0127518
788.374	0.0127560
788.453	0.0127751
788.531	0.0127998
788.609	0.0128506
788.687	0.0129533
788.765	0.0129875
788.843	0.0130299
788.921	0.0129835
788.999	0.0130406
789.078	0.0129975
789.156	0.0127564
789.234	0.0129746
789.312	0.0129700
789.390	0.0130208
789.468	0.0129855
789.546	0.0128844
789.624	0.0128838
789.703	0.0127323
789.781	0.0129661
789.859	0.0130849
789.937	0.0128098
790.015	0.0128618
790.093	0.0129513
790.171	0.0128670
790.249	0.0129118
790.328	0.0129573
790.406	0.0129126
790.484	0.0129372
790.562	0.0129467
790.640	0.0128133
790.718	0.0129611
790.796	0.0129166
790.874	0.0128441
790.953	0.0129366
791.031	0.0129890
791.109	0.0128514
791.187	0.0129179
791.265	0.0128117
791.343	0.0129541
791.421	0.0128664
791.499	0.0127694
791.578	0.0128318
791.656	0.0130510
791.734	0.0129708
791.812	0.0129742
791.890	0.0129388
791.968	0.0129274
792.046	0.0129601
792.124	0.0130476
792.203	0.0129521
792.281	0.0129765
792.359	0.0130008
792.437	0.0128632
792.515	0.0129654
792.593	0.0129281
792.671	0.0129192
792.749	0.0129137
792.828	0.0127721
792.906	0.0128066
792.984	0.0129606
793.062	0.0129011
793.140	0.0130257
793.218	0.0129045
793.296	0.0129106
793.374	0.0128963
793.453	0.0130774
793.531	0.0128628
793.609	0.0130446
793.687	0.0130458
793.765	0.0128739
793.843	0.0130066
793.921	0.0131297
793.999	0.0128871
794.078	0.0129263
794.156	0.0129811
794.234	0.0129958
794.312	0.0129414
794.390	0.0128902
794.468	0.0128967
794.546	0.0128896
794.624	0.0130677
794.703	0.0128883
794.781	0.0129004
794.859	0.0128785
794.937	0.0129971
795.015	0.0130082
795.093	0.0128172
795.171	0.0129481
795.249	0.0129994
795.328	0.0128822
795.406	0.0128543
795.484	0.0129034
795.562	0.0130261
795.640	0.0128712
795.718	0.0128906
795.796	0.0129398
795.874	0.0130096
795.953	0.0129618
796.031	0.0129342
796.109	0.0129259
796.187	0.0128988
796.265	0.0128429
796.343	0.0128651
796.421	0.0130022
796.499	0.0129231
796.578	0.0129801
796.656	0.0129081
796.734	0.0128830
796.812	0.0129125
796.890	0.0128510
796.968	0.0127574
797.046	0.0128133
797.124	0.0129386
797.203	0.0129647
797.281	0.0127257
797.359	0.0129462
797.437	0.0128793
797.515	0.0129076
797.593	0.0128390
797.671	0.0129207
797.749	0.0129466
797.828	0.0128196
797.906	0.0128468
797.984	0.0127847
798.062	0.0127296
798.140	0.0129257
798.218	0.0128806
798.296	0.0129295
798.374	0.0130145
798.453	0.0128733
798.531	0.0128899
798.609	0.0129241
798.687	0.0128455
798.765	0.0129667
798.843	0.0128737
798.921	0.0127711
798.999	0.0128915
799.078	0.0128523
799.156	0.0127508
799.234	0.0128233
799.312	0.0127187
799.390	0.0127450
799.468	0.0128456
799.546	0.0128172
799.624	0.0126347
799.703	0.0127857
799.781	0.0127728
799.859	0.0126852
799.937	0.0126808
800.015	0.0127174
800.093	0.0127876
800.171	0.0127408
800.249	0.0127385
800.328	0.0127087
800.406	0.0127462
800.484	0.0126490
800.562	0.0127633
800.640	0.0128424
800.718	0.0128475
800.796	0.0127435
800.874	0.0127679
800.953	0.0127623
801.031	0.0127671
801.109	0.0126816
801.187	0.0127779
801.265	0.0129089
801.343	0.0129240
801.421	0.0128254
801.499	0.0129082
801.578	0.0129320
801.656	0.0128866
801.734	0.0129089
801.812	0.0129203
801.890	0.0128428
801.968	0.0130448
802.046	0.0130536
802.124	0.0131033
802.203	0.0130014
802.281	0.0131004
802.359	0.0131502
802.437	0.0130814
802.515	0.0130656
802.593	0.0130068
802.671	0.0130541
802.749	0.0131099
802.828	0.0131040
802.906	0.0131689
802.984	0.0131301
803.062	0.0131039
803.140	0.0130558
803.218	0.0131149
803.296	0.0130378
803.374	0.0130103
803.453	0.0129758
803.531	0.0129563
803.609	0.0129510
803.687	0.0130716
803.765	0.0129295
803.843	0.0129881
803.921	0.0129958
803.999	0.0130580
804.078	0.0129007
804.156	0.0129324
804.234	0.0128064
804.312	0.0128745
804.390	0.0130757
804.468	0.0129910
804.546	0.0129794
804.624	0.0129965
804.703	0.0128687
804.781	0.0129530
804.859	0.0129392
804.937	0.0129813
805.015	0.0129661
805.093	0.0129195
805.171	0.0127670
805.249	0.0129395
805.328	0.0129771
805.406	0.0128647
805.484	0.0127966
805.562	0.0128999
805.640	0.0128583
805.718	0.0127782
805.796	0.0129617
805.874	0.0128928
805.953	0.0127227
806.031	0.0127642
806.109	0.0128334
806.187	0.0128388
806.265	0.0127582
806.343	0.0128253
806.421	0.0127872
806.499	0.0128899
806.578	0.0126098
806.656	0.0127705
806.734	0.0127637
806.812	0.0127792
806.890	0.0128175
806.968	0.0128737
807.046	0.0126532
807.124	0.0128519
807.203	0.0128748
807.281	0.0128130
807.359	0.0128986
807.437	0.0128904
807.515	0.0128993
807.593	0.0130098
807.671	0.0129678
807.749	0.0129858
807.828	0.0130914
807.906	0.0130322
807.984	0.0128725
808.062	0.0129505
808.140	0.0130180
808.218	0.0130236
808.296	0.0130330
808.374	0.0129836
808.453	0.0130444
808.531	0.0130217
808.609	0.0129540
808.687	0.0129577
808.765	0.0129514
808.843	0.0131998
808.921	0.0130701
808.999	0.0131747
809.078	0.0129156
809.156	0.0131220
809.234	0.0130132
809.312	0.0129796
809.390	0.0129871
809.468	0.0128796
809.546	0.0129720
809.624	0.0128898
809.703	0.0128906
809.781	0.0128384
809.859	0.0128075
809.937	0.0128699
810.015	0.0129830
810.093	0.0128495
810.171	0.0129314
810.249	0.0129849
810.328	0.0128578
810.406	0.0129807
810.484	0.0128239
810.562	0.0129527
810.640	0.0130060
810.718	0.0129617
810.796	0.0128606
810.874	0.0129369
810.953	0.0128571
811.031	0.0129023
811.109	0.0128658
811.187	0.0128220
811.265	0.0128484
811.343	0.0129249
811.421	0.0129321
811.499	0.0127649
811.578	0.0128936
811.656	0.0128204
811.734	0.0128998
811.812	0.0130054
811.890	0.0129681
811.968	0.0130206
812.046	0.0127216
812.124	0.0128587
812.203	0.0128470
812.281	0.0127871
812.359	0.0128100
812.437	0.0128616
812.515	0.0129874
812.593	0.0129044
812.671	0.0128505
812.749	0.0130530
812.828	0.0129194
812.906	0.0130106
812.984	0.0130023
813.062	0.0126876
813.140	0.0128838
813.218	0.0129507
813.296	0.0128024
813.374	0.0127216
813.453	0.0128728
813.531	0.0130226
813.609	0.0130278
813.687	0.0129984
813.765	0.0130873
813.843	0.0130392
813.921	0.0130266
813.999	0.0127584
814.078	0.0129805
814.156	0.0129588
814.234	0.0130062
814.312	0.0129507
814.390	0.0129098
814.468	0.0130606
814.546	0.0130265
814.624	0.0128838
814.703	0.0128776
814.781	0.0128916
814.859	0.0130306
814.937	0.0129910
815.015	0.0128250
815.093	0.0129428
815.171	0.0128337
815.249	0.0129707
815.328	0.0128463
815.406	0.0128208
815.484	0.0128584
815.562	0.0129383
815.640	0.0128548
815.718	0.0128796
815.796	0.0129069
815.874	0.0128198
815.953	0.0128860
816.031	0.0129817
816.109	0.0129993
816.187	0.0128491
816.265	0.0128976
816.343	0.0128636
816.421	0.0129227
816.499	0.0130249
816.578	0.0128953
816.656	0.0127950
816.734	0.0128439
816.812	0.0130339
816.890	0.0129213
816.968	0.0128801
817.046	0.0128709
817.124	0.0128316
817.203	0.0129028
817.281	0.0129538
817.359	0.0128256
817.437	0.0129060
817.515	0.0129175
817.593	0.0128542
817.671	0.0129048
817.749	0.0128297
817.828	0.0127663
817.906	0.0128443
817.984	0.0128355
818.062	0.0129778
818.140	0.0130216
818.218	0.0128487
818.296	0.0128874
818.374	0.0128556
818.453	0.0130719
818.531	0.0131049
818.609	0.0128812
818.687	0.0128931
818.765	0.0129993
818.843	0.0129369
818.921	0.0129606
818.999	0.0129785
819.078	0.0129603
819.156	0.0128808
819.234	0.0130084
819.312	0.0130165
819.390	0.0129822
819.468	0.0131132
819.546	0.0130012
819.624	0.0130243
819.703	0.0128765
819.781	0.0129005
819.859	0.0129545
819.937	0.0130798
820.015	0.0129716
820.093	0.0129464
820.171	0.0128893
820.249	0.0128249
820.328	0.0128836
820.406	0.0129278
820.484	0.0128925
820.562	0.0129615
820.640	0.0129395
820.718	0.0127808
820.796	0.0129411
820.874	0.0131056
820.953	0.0127023
821.031	0.0127975
821.109	0.0128860
821.187	0.0127640
821.265	0.0128423
821.343	0.0128670
821.421	0.0128009
821.499	0.0127931
821.578	0.0126411
821.656	0.0128054
821.734	0.0128419
821.812	0.0127213
821.890	0.0128371
821.968	0.0128000
822.046	0.0127483
822.124	0.0126592
822.203	0.0127592
822.281	0.0127557
822.359	0.0126876
822.437	0.0125866
822.515	0.0127805
822.593	0.0128313
822.671	0.0127658
822.749	0.0126543
822.828	0.0128543
822.906	0.0128272
822.984	0.0128118
823.062	0.0126269
823.140	0.0127403
823.218	0.0129099
823.296	0.0128185
823.374	0.0127544
823.453	0.0127409
823.531	0.0127012
823.609	0.0128051
823.687	0.0129081
823.765	0.0128131
823.843	0.0127876
823.921	0.0128896
823.999	0.0128628
824.078	0.0129693
824.156	0.0128704
824.234	0.0131396
824.312	0.0128398
824.390	0.0128771
824.468	0.0129749
824.546	0.0131382
824.624	0.0130316
824.703	0.0129464
824.781	0.0128980
824.859	0.0128791
824.937	0.0128793
825.015	0.0130164
825.093	0.0129223
825.171	0.0129599
825.249	0.0129230
825.328	0.0129273
825.406	0.0129555
825.484	0.0129356
825.562	0.0128802
825.640	0.0130973
825.718	0.0129520
825.796	0.0129835
825.874	0.0129357
825.953	0.0127647
826.031	0.0129534
826.109	0.0130463
826.187	0.0129945
826.265	0.0129969
826.343	0.0130523
826.421	0.0127742
826.499	0.0130190
826.578	0.0130301
826.656	0.0128975
826.734	0.0128671
826.812	0.0129178
826.890	0.0128905
826.968	0.0128302
827.046	0.0128256
827.124	0.0129530
827.203	0.0128506
827.281	0.0127504
827.359	0.0126513
827.437	0.0128942
827.515	0.0127262
827.593	0.0128363
827.671	0.0129403
827.749	0.0128190
827.828	0.0128783
827.906	0.0128698
827.984	0.0129828
828.062	0.0129433
828.140	0.0128414
828.218	0.0129315
828.296	0.0130473
828.374	0.0130023
828.453	0.0128522
828.531	0.0130153
828.609	0.0127233
828.687	0.0129089
828.765	0.0129105
828.843	0.0127618
828.921	0.0129246
828.999	0.0128661
829.078	0.0127394
829.156	0.0128708
829.234	0.0129003
829.312	0.0129121
829.390	0.0129039
829.468	0.0128307
829.546	0.0129360
829.624	0.0128471
829.703	0.0127562
829.781	0.0127898
829.859	0.0127608
829.937	0.0127557
830.015	0.0128048
830.093	0.0127828
830.171	0.0126217
830.249	0.0127641
830.328	0.0127810
830.406	0.0127828
830.484	0.0127432
830.562	0.0128144
830.640	0.0128729
830.718	0.0128046
830.796	0.0128728
830.874	0.0128120
830.953	0.0127998
831.031	0.0128873
831.109	0.0129683
831.187	0.0129318
831.265	0.0128849
831.343	0.0127207
831.421	0.0127825
831.499	0.0128198
831.578	0.0129073
831.656	0.0128141
831.734	0.0130963
831.812	0.0129650
831.890	0.0129665
831.968	0.0128214
832.046	0.0127647
832.124	0.0129391
832.203	0.0129587
832.281	0.0129290
832.359	0.0129137
832.437	0.0129470
832.515	0.0128988
832.593	0.0128169
832.671	0.0129835
832.749	0.0129798
832.828	0.0130145
832.906	0.0129185
832.984	0.0129589
833.062	0.0130229
833.140	0.0129727
833.218	0.0127692
833.296	0.0129880
833.374	0.0129527
833.453	0.0130144
833.531	0.0131245
833.609	0.0129789
833.687	0.0129416
833.765	0.0130287
833.843	0.0130080
833.921	0.0131163
833.999	0.0130822
834.078	0.0131137
834.156	0.0130796
834.234	0.0130156
834.312	0.0129157
834.390	0.0129501
834.468	0.0131004
834.546	0.0130622
834.624	0.0129963
834.703	0.0128835
834.781	0.0130221
834.859	0.0130299
834.937	0.0130727
835.015	0.0129766
835.093	0.0130974
835.171	0.0130048
835.249	0.0130614
835.328	0.0131681
835.406	0.0131203
835.484	0.0131009
835.562	0.0130984
835.640	0.0130583
835.718	0.0131033
835.796	0.0130193
835.874	0.0130351
835.953	0.0131528
836.031	0.0130768
836.109	0.0130654
836.187	0.0130466
836.265	0.0128316
836.343	0.0129106
836.421	0.0130672
836.499	0.0130003
836.578	0.0129009
836.656	0.0130154
836.734	0.0129379
836.812	0.0129546
836.890	0.0129044
836.968	0.0129639
837.046	0.0130228
837.124	0.0130354
837.203	0.0129795
837.281	0.0130162
837.359	0.0129928
837.437	0.0130016
837.515	0.0129901
837.593	0.0130476
837.671	0.0130740
837.749	0.0129901
837.828	0.0130395
837.906	0.0131405
837.984	0.0130593
838.062	0.0130036
838.140	0.0128873
838.218	0.0128458
838.296	0.0130317
838.374	0.0130106
838.453	0.0130360
838.531	0.0130998
838.609	0.0129838
838.687	0.0128761
838.765	0.0129325
838.843	0.0127686
838.921	0.0129820
838.999	0.0130438
839.078	0.0129760
839.156	0.0130250
839.234	0.0129204
839.312	0.0130676
839.390	0.0129256
839.468	0.0128706
839.546	0.0129808
839.624	0.0130235
839.703	0.0128870
839.781	0.0129983
839.859	0.0128139
839.937	0.0129139
840.015	0.0128001
840.093	0.0128627
840.171	0.0129622
840.249	0.0129256
840.328	0.0130236
840.406	0.0129057
840.484	0.0128742
840.562	0.0129606
840.640	0.0130006
840.718	0.0130120
840.796	0.0129527
840.874	0.0129259
840.953	0.0128901
841.031	0.0129158
841.109	0.0131353
841.187	0.0129279
841.265	0.0130549
841.343	0.0130124
841.421	0.0130900
841.499	0.0130195
841.578	0.0129404
841.656	0.0129413
841.734	0.0129935
841.812	0.0130618
841.890	0.0129845
841.968	0.0130012
842.046	0.0130112
842.124	0.0131202
842.203	0.0130408
842.281	0.0128451
842.359	0.0129896
842.437	0.0129889
842.515	0.0129726
842.593	0.0129482
842.671	0.0128561
842.749	0.0130077
842.828	0.0130954
842.906	0.0129179
842.984	0.0130286
843.062	0.0130300
843.140	0.0128333
843.218	0.0128853
843.296	0.0129422
843.374	0.0128643
843.453	0.0129533
843.531	0.0129236
843.609	0.0130453
843.687	0.0128472
843.765	0.0129063
843.843	0.0130648
843.921	0.0130055
843.999	0.0129836
844.078	0.0129683
844.156	0.0129095
844.234	0.0129321
844.312	0.0131565
844.390	0.0130342
844.468	0.0130680
844.546	0.0129671
844.624	0.0128922
844.703	0.0129862
844.781	0.0129710
844.859	0.0129325
844.937	0.0129442
845.015	0.0130784
845.093	0.0129942
845.171	0.0131447
845.249	0.0129091
845.328	0.0129929
845.406	0.0129160
845.484	0.0129881
845.562	0.0130417
845.640	0.0130781
845.718	0.0131511
845.796	0.0131044
845.874	0.0131306
845.953	0.0131028
846.031	0.0129075
846.109	0.0130795
846.187	0.0130475
846.265	0.0128942
846.343	0.0128348
846.421	0.0130206
846.499	0.0130234
846.578	0.0129865
846.656	0.0129423
846.734	0.0129797
846.812	0.0129324
846.890	0.0128455
846.968	0.0130112
847.046	0.0130000
847.124	0.0130799
847.203	0.0130209
847.281	0.0127573
847.359	0.0128928
847.437	0.0130527
847.515	0.0129739
847.593	0.0129103
847.671	0.0128666
847.749	0.0127940
847.828	0.0129401
847.906	0.0128220
847.984	0.0128200
848.062	0.0129224
848.140	0.0129409
848.218	0.0129256
848.296	0.0127798
848.374	0.0128713
848.453	0.0129721
848.531	0.0129250
848.609	0.0128570
848.687	0.0128270
848.765	0.0129238
848.843	0.0128506
848.921	0.0129728
848.999	0.0129646
849.078	0.0128014
849.156	0.0130323
849.234	0.0130142
849.312	0.0127920
849.390	0.0128941
849.468	0.0129336
849.546	0.0129275
849.624	0.0129638
849.703	0.0128766
849.781	0.0127603
849.859	0.0129624
849.937	0.0129710
850.015	0.0129002
850.093	0.0129375
850.171	0.0129645
850.249	0.0130258
850.328	0.0128975
850.406	0.0129639
850.484	0.0128635
850.562	0.0129688
850.640	0.0129643
850.718	0.0131219
850.796	0.0128784
850.874	0.0129394
850.953	0.0130444
851.031	0.0129544
851.109	0.0128729
851.187	0.0130737
851.265	0.0130817
851.343	0.0130039
851.421	0.0129417
851.499	0.0130195
851.578	0.0130267
851.656	0.0129430
851.734	0.0129424
851.812	0.0129419
851.890	0.0129959
851.968	0.0129432
852.046	0.0128918
852.124	0.0129551
852.203	0.0129549
852.281	0.0129572
852.359	0.0130770
852.437	0.0129897
852.515	0.0129063
852.593	0.0129611
852.671	0.0129179
852.749	0.0131704
852.828	0.0129562
852.906	0.0129060
852.984	0.0129169
853.062	0.0129308
853.140	0.0127457
853.218	0.0128208
853.296	0.0129179
853.374	0.0129222
853.453	0.0130369
853.531	0.0128389
853.609	0.0129604
853.687	0.0128192
853.765	0.0130136
853.843	0.0129440
853.921	0.0129063
853.999	0.0129772
854.078	0.0130953
854.156	0.0128510
854.234	0.0129903
854.312	0.0130136
854.390	0.0129488
854.468	0.0129089
854.546	0.0129447
854.624	0.0129560
854.703	0.0131630
854.781	0.0129723
854.859	0.0129417
854.937	0.0130039
855.015	0.0129529
855.093	0.0130147
855.171	0.0129320
855.249	0.0130252
855.328	0.0130853
855.406	0.0128826
855.484	0.0129733
855.562	0.0129857
855.640	0.0127942
855.718	0.0129642
855.796	0.0128172
855.874	0.0128059
855.953	0.0128226
856.031	0.0128571
856.109	0.0128641
856.187	0.0129503
856.265	0.0129604
856.343	0.0128468
856.421	0.0130088
856.499	0.0127892
856.578	0.0129305
856.656	0.0130552
856.734	0.0130620
856.812	0.0129162
856.890	0.0128465
856.968	0.0128214
857.046	0.0128917
857.124	0.0129383
857.203	0.0128755
857.281	0.0130239
857.359	0.0131119
857.437	0.0131079
857.515	0.0129286
857.593	0.0128094
857.671	0.0129231
857.749	0.0128474
857.828	0.0129043
857.906	0.0129581
857.984	0.0129329
858.062	0.0129046
858.140	0.0129926
858.218	0.0129146
858.296	0.0129108
858.374	0.0128974
858.453	0.0128335
858.531	0.0129159
858.609	0.0129025
858.687	0.0129515
858.765	0.0129343
858.843	0.0129046
858.921	0.0131712
858.999	0.0130614
859.078	0.0128956
859.156	0.0129803
859.234	0.0129626
859.312	0.0129493
859.390	0.0129849
859.468	0.0129787
859.546	0.0130237
859.624	0.0129633
859.703	0.0130014
859.781	0.0129075
859.859	0.0130876
859.937	0.0129657
860.015	0.0128616
860.093	0.0129520
860.171	0.0128674
860.249	0.0129147
860.328	0.0129462
860.406	0.0129818
860.484	0.0129897
860.562	0.0129554
860.640	0.0128837
860.718	0.0128356
860.796	0.0129129
860.874	0.0130157
860.953	0.0131085
861.031	0.0129548
861.109	0.0129867
861.187	0.0127976
861.265	0.0130333
861.343	0.0129729
861.421	0.0128540
861.499	0.0129289
861.578	0.0129042
861.656	0.0129821
861.734	0.0130143
861.812	0.0128674
861.890	0.0130190
861.968	0.0131112
862.046	0.0130148
862.124	0.0130127
862.203	0.0128866
862.281	0.0129915
862.359	0.0130074
862.437	0.0128265
862.515	0.0129046
862.593	0.0129050
862.671	0.0129350
862.749	0.0129089
862.828	0.0131721
862.906	0.0130598
862.984	0.0128902
863.062	0.0130411
863.140	0.0129498
863.218	0.0128947
863.296	0.0130562
863.374	0.0130177
863.453	0.0129095
863.531	0.0129291
863.609	0.0130525
863.687	0.0129231
863.765	0.0129707
863.843	0.0129208
863.921	0.0131342
863.999	0.0130405
864.078	0.0129558
864.156	0.0128511
864.234	0.0128729
864.312	0.0131355
864.390	0.0129567
864.468	0.0128519
864.546	0.0129171
864.624	0.0129517
864.703	0.0130489
864.781	0.0128436
864.859	0.0129243
864.937	0.0128987
865.015	0.0127531
865.093	0.0128873
865.171	0.0130209
865.249	0.0129763
865.328	0.0129628
865.406	0.0130037
865.484	0.0129777
865.562	0.0131003
865.640	0.0128928
865.718	0.0128784
865.796	0.0130198
865.874	0.0129463
865.953	0.0129810
866.031	0.0129358
866.109	0.0129069
866.187	0.0128622
866.265	0.0130181
866.343	0.0128407
866.421	0.0127898
866.499	0.0130023
866.578	0.0128970
866.656	0.0129790
866.734	0.0130243
866.812	0.0130266
866.890	0.0129557
866.968	0.0129088
867.046	0.0129263
867.124	0.0128250
867.203	0.0130304
867.281	0.0130141
867.359	0.0128537
867.437	0.0129483
867.515	0.0129765
867.593	0.0129326
867.671	0.0130885
867.749	0.0129907
867.828	0.0130193
867.906	0.0129657
867.984	0.0129902
868.062	0.0129378
868.140	0.0130334
868.218	0.0129517
868.296	0.0128719
868.374	0.0129726
868.453	0.0129536
868.531	0.0130181
868.609	0.0129440
868.687	0.0128043
868.765	0.0129642
868.843	0.0129301
868.921	0.0129999
868.999	0.0130109
869.078	0.0129369
869.156	0.0128878
869.234	0.0129576
869.312	0.0128668
869.390	0.0128475
869.468	0.0130358
869.546	0.0129533
869.624	0.0131375
869.703	0.0129383
869.781	0.0129599
869.859	0.0128632
869.937	0.0129000
870.015	0.0130650
870.093	0.0129454
870.171	0.0129185
870.249	0.0128692
870.328	0.0128374
870.406	0.0129618
870.484	0.0129507
870.562	0.0130624
870.640	0.0128272
870.718	0.0129597
870.796	0.0130523
870.874	0.0130152
870.953	0.0130574
871.031	0.0129543
871.109	0.0130894
871.187	0.0131016
871.265	0.0129904
871.343	0.0130776
871.421	0.0129664
871.499	0.0130667
871.578	0.0129015
871.656	0.0129608
871.734	0.0131038
871.812	0.0130736
871.890	0.0131443
871.968	0.0129716
872.046	0.0130038
872.124	0.0129884
872.203	0.0129500
872.281	0.0128921
872.359	0.0128645
872.437	0.0129636
872.515	0.0129825
872.593	0.0128697
872.671	0.0128342
872.749	0.0130027
872.828	0.0130032
872.906	0.0129805
872.984	0.0129552
873.062	0.0130090
873.140	0.0130282
873.218	0.0129276
873.296	0.0129028
873.374	0.0130405
873.453	0.0130002
873.531	0.0130642
873.609	0.0129311
873.687	0.0130349
873.765	0.0130356
873.843	0.0131871
873.921	0.0130787
873.999	0.0130579
874.078	0.0129540
874.156	0.0130788
874.234	0.0128635
874.312	0.0129414
874.390	0.0128822
874.468	0.0130233
874.546	0.0130036
874.624	0.0129146
874.703	0.0128122
874.781	0.0127734
874.859	0.0131123
874.937	0.0130059
875.015	0.0129259
875.093	0.0130907
875.171	0.0130054
875.249	0.0129681
875.328	0.0129345
875.406	0.0129024
875.484	0.0130331
875.562	0.0130077
875.640	0.0129713
875.718	0.0131010
875.796	0.0129974
875.874	0.0129505
875.953	0.0128594
876.031	0.0128530
876.109	0.0129414
876.187	0.0128137
876.265	0.0129250
876.343	0.0128680
876.421	0.0130416
876.499	0.0130100
876.578	0.0128190
876.656	0.0128380
876.734	0.0129578
876.812	0.0129770
876.890	0.0129259
876.968	0.0129980
877.046	0.0129710
877.124	0.0129546
877.203	0.0129715
877.281	0.0129862
877.359	0.0129561
877.437	0.0128056
877.515	0.0129160
877.593	0.0129141
877.671	0.0129044
877.749	0.0128797
877.828	0.0128477
877.906	0.0128595
877.984	0.0128793
878.062	0.0128657
878.140	0.0129731
878.218	0.0128915
878.296	0.0128429
878.374	0.0127417
878.453	0.0127405
878.531	0.0129408
878.609	0.0130695
878.687	0.0127463
878.765	0.0129222
878.843	0.0127747
878.921	0.0128835
878.999	0.0129771
879.078	0.0128091
879.156	0.0128879
879.234	0.0128740
879.312	0.0127401
879.390	0.0127763
879.468	0.0128152
879.546	0.0127932
879.624	0.0127494
879.703	0.0127853
879.781	0.0128111
879.859	0.0127987
879.937	0.0127962
880.015	0.0127622
880.093	0.0130304
880.171	0.0129552
880.249	0.0130151
880.328	0.0129224
880.406	0.0129165
880.484	0.0129842
880.562	0.0130273
880.640	0.0128374
880.718	0.0128251
880.796	0.0128876
880.874	0.0128265
880.953	0.0129347
881.031	0.0128084
881.109	0.0127350
881.187	0.0127553
881.265	0.0129201
881.343	0.0129598
881.421	0.0127770
881.499	0.0127798
881.578	0.0129075
881.656	0.0129097
881.734	0.0128920
881.812	0.0129382
881.890	0.0129758
881.968	0.0128282
882.046	0.0128607
882.124	0.0128636
882.203	0.0129072
882.281	0.0129379
882.359	0.0128650
882.437	0.0127570
882.515	0.0127882
882.593	0.0127530
882.671	0.0128528
882.749	0.0127895
882.828	0.0130556
882.906	0.0129207
882.984	0.0127984
883.062	0.0128094
883.140	0.0128859
883.218	0.0128412
883.296	0.0128542
883.374	0.0128503
883.453	0.0128653
883.531	0.0128199
883.609	0.0128862
883.687	0.0128504
883.765	0.0128842
883.843	0.0128326
883.921	0.0126682
883.999	0.0129374
884.078	0.0129192
884.156	0.0128185
884.234	0.0129554
884.312	0.0128433
884.390	0.0128292
884.468	0.0129940
884.546	0.0128836
884.624	0.0128699
884.703	0.0127719
884.781	0.0130139
884.859	0.0129468
884.937	0.0129668
885.015	0.0129760
885.093	0.0128277
885.171	0.0128132
885.249	0.0128336
885.328	0.0128343
885.406	0.0127895
885.484	0.0127688
885.562	0.0127419
885.640	0.0127534
885.718	0.0129031
885.796	0.0128323
885.874	0.0129651
885.953	0.0128490
886.031	0.0129926
886.109	0.0128635
886.187	0.0128759
886.265	0.0129491
886.343	0.0128752
886.421	0.0127132
886.499	0.0127867
886.578	0.0128769
886.656	0.0128816
886.734	0.0127682
886.812	0.0127387
886.890	0.0128792
886.968	0.0128716
887.046	0.0128732
887.124	0.0129467
887.203	0.0129101
887.281	0.0127770
887.359	0.0128438
887.437	0.0129260
887.515	0.0129039
887.593	0.0129023
887.671	0.0128577
887.749	0.0129887
887.828	0.0129553
887.906	0.0129026
887.984	0.0129128
888.062	0.0130546
888.140	0.0128863
888.218	0.0128133
888.296	0.0128740
888.374	0.0128739
888.453	0.0128737
888.531	0.0127697
888.609	0.0128664
888.687	0.0127646
888.765	0.0129036
888.843	0.0129438
888.921	0.0128366
888.999	0.0128524
889.078	0.0128123
889.156	0.0128096
889.234	0.0129576
889.312	0.0129395
889.390	0.0128912
889.468	0.0129400
889.546	0.0128712
889.624	0.0129202
889.703	0.0129594
889.781	0.0130285
889.859	0.0129319
889.937	0.0129554
890.015	0.0129032
890.093	0.0130045
890.171	0.0130023
890.249	0.0129641
890.328	0.0129775
890.406	0.0129234
890.484	0.0130143
890.562	0.0129977
890.640	0.0130029
890.718	0.0130047
890.796	0.0128807
890.874	0.0129055
890.953	0.0129655
891.031	0.0129200
891.109	0.0129616
891.187	0.0129849
891.265	0.0128255
891.343	0.0128605
891.421	0.0129645
891.499	0.0129423
891.578	0.0128504
891.656	0.0129035
891.734	0.0129076
891.812	0.0128274
891.890	0.0127955
891.968	0.0129179
892.046	0.0129353
892.124	0.0128687
892.203	0.0127036
892.281	0.0129597
892.359	0.0130029
892.437	0.0128027
892.515	0.0128562
892.593	0.0129214
892.671	0.0129800
892.749	0.0128500
892.828	0.0128740
892.906	0.0129284
892.984	0.0131292
893.062	0.0129745
893.140	0.0129379
893.218	0.0128785
893.296	0.0130190
893.374	0.0129573
893.453	0.0129341
893.531	0.0129392
893.609	0.0128646
893.687	0.0129665
893.765	0.0131805
893.843	0.0130249
893.921	0.0128085
893.999	0.0129613
894.078	0.0129012
894.156	0.0129377
894.234	0.0128542
894.312	0.0129236
894.390	0.0128963
894.468	0.0130465
894.546	0.0127770
894.624	0.0127285
894.703	0.0128047
894.781	0.0129131
894.859	0.0129729
894.937	0.0130067
895.015	0.0129168
895.093	0.0128179
895.171	0.0128876
895.249	0.0129247
895.328	0.0127165
895.406	0.0127856
895.484	0.0128973
895.562	0.0128145
895.640	0.0128227
895.718	0.0129618
895.796	0.0129386
895.874	0.0129312
895.953	0.0129139
896.031	0.0127811
896.109	0.0129102
896.187	0.0128760
896.265	0.0128790
896.343	0.0128570
896.421	0.0128348
896.499	0.0126855
896.578	0.0129419
896.656	0.0127732
896.734	0.0129453
896.812	0.0129125
896.890	0.0129021
896.968	0.0129403
897.046	0.0129655
897.124	0.0130080
897.203	0.0130067
897.281	0.0131017
897.359	0.0129684
897.437	0.0130222
897.515	0.0128870
897.593	0.0130639
897.671	0.0129836
897.749	0.0130219
897.828	0.0130338
897.906	0.0129845
897.984	0.0128987
898.062	0.0129012
898.140	0.0127950
898.218	0.0129677
898.296	0.0130125
898.374	0.0128838
898.453	0.0129166
898.531	0.0129192
898.609	0.0129472
898.687	0.0129877
898.765	0.0129458
898.843	0.0130338
898.921	0.0130196
898.999	0.0129996
899.078	0.0130080
899.156	0.0128195
899.234	0.0129275
899.312	0.0129591
899.390	0.0127615
899.468	0.0128873
899.546	0.0130115
899.624	0.0128479
899.703	0.0128779
899.781	0.0128075
899.859	0.0128426
899.937	0.0127041
900.015	0.0129118
900.093	0.0128223
900.171	0.0127615
900.249	0.0128168
900.328	0.0127988
900.406	0.0128369
900.484	0.0127979
900.562	0.0127011
900.640	0.0128956
900.718	0.0127705
900.796	0.0128391
900.874	0.0128561
900.953	0.0127184
901.031	0.0127344
901.109	0.0127580
901.187	0.0127204
901.265	0.0127984
901.343	0.0126150
901.421	0.0126662
901.499	0.0125057
901.578	0.0125517
901.656	0.0126313
901.734	0.0127466
901.812	0.0127841
901.890	0.0126276
901.968	0.0126468
902.046	0.0126950
902.124	0.0126875
902.203	0.0129034
902.281	0.0128643
902.359	0.0128379
902.437	0.0128993
902.515	0.0128198
902.593	0.0128019
902.671	0.0127454
902.749	0.0130260
902.828	0.0128799
902.906	0.0128967
902.984	0.0128655
903.062	0.0129312
903.140	0.0127444
903.218	0.0128092
903.296	0.0128827
903.374	0.0128493
903.453	0.0128555
903.531	0.0128587
903.609	0.0129089
903.687	0.0130083
903.765	0.0128181
903.843	0.0127497
903.921	0.0127872
903.999	0.0129032
904.078	0.0129208
904.156	0.0128136
904.234	0.0128542
904.312	0.0127721
904.390	0.0130017
904.468	0.0129498
904.546	0.0127259
904.624	0.0129001
904.703	0.0129713
904.781	0.0129482
904.859	0.0129177
904.937	0.0128852
905.015	0.0128676
905.093	0.0128161
905.171	0.0128648
905.249	0.0130349
905.328	0.0128707
905.406	0.0127980
905.484	0.0128133
905.562	0.0129251
905.640	0.0128106
905.718	0.0127281
905.796	0.0127034
905.874	0.0128459
905.953	0.0128382
906.031	0.0128400
906.109	0.0128300
906.187	0.0129065
906.265	0.0128149
906.343	0.0127937
906.421	0.0128745
906.499	0.0129454
906.578	0.0130357
906.656	0.0129008
906.734	0.0129816
906.812	0.0130582
906.890	0.0130414
906.968	0.0129362
907.046	0.0130204
907.124	0.0128461
907.203	0.0131361
907.281	0.0129368
907.359	0.0128870
907.437	0.0130273
907.515	0.0128957
907.593	0.0129531
907.671	0.0129791
907.749	0.0128867
907.828	0.0128645
907.906	0.0128108
907.984	0.0128754
908.062	0.0128710
908.140	0.0128074
908.218	0.0129275
908.296	0.0128911
908.374	0.0129030
908.453	0.0128980
908.531	0.0129554
908.609	0.0128326
908.687	0.0127171
908.765	0.0128502
908.843	0.0129083
908.921	0.0129229
908.999	0.0130662
909.078	0.0130086
909.156	0.0130199
909.234	0.0130485
909.312	0.0130727
909.390	0.0130238
909.468	0.0131198
909.546	0.0131097
909.624	0.0130000
909.703	0.0131338
909.781	0.0130537
909.859	0.0130687
909.937	0.0130119
910.015	0.0128658
910.093	0.0130373
910.171	0.0129905
910.249	0.0128120
910.328	0.0129127
910.406	0.0128006
910.484	0.0128554
910.562	0.0128668
910.640	0.0128681
910.718	0.0128731
910.796	0.0127753
910.874	0.0128599
910.953	0.0128900
911.031	0.0129942
911.109	0.0129255
911.187	0.0127749
911.265	0.0130080
911.343	0.0130407
911.421	0.0129221
911.499	0.0130005
911.578	0.0130130
911.656	0.0131147
911.734	0.0129218
911.812	0.0129718
911.890	0.0130184
911.968	0.0130047
912.046	0.0129561
912.124	0.0128606
912.203	0.0128641
912.281	0.0129832
912.359	0.0130744
912.437	0.0128236
912.515	0.0129453
912.593	0.0129166
912.671	0.0128606
912.749	0.0129711
912.828	0.0128905
912.906	0.0130318
912.984	0.0130580
913.062	0.0129436
913.140	0.0128003
913.218	0.0129012
913.296	0.0129508
913.374	0.0128791
913.453	0.0129198
913.531	0.0129800
913.609	0.0130401
913.687	0.0129790
913.765	0.0130457
913.843	0.0130120
913.921	0.0127991
913.999	0.0129627
914.078	0.0128296
914.156	0.0128795
914.234	0.0129023
914.312	0.0130234
914.390	0.0129766
914.468	0.0129648
914.546	0.0130243
914.624	0.0130012
914.703	0.0131245
914.781	0.0129292
914.859	0.0130397
914.937	0.0129610
915.015	0.0130127
915.093	0.0131499
915.171	0.0131018
915.249	0.0131128
915.328	0.0130959
915.406	0.0129842
915.484	0.0130950
915.562	0.0131490
915.640	0.0130647
915.718	0.0131017
915.796	0.0130206
915.874	0.0130088
915.953	0.0130267
916.031	0.0130033
916.109	0.0129703
916.187	0.0129416
916.265	0.0131203
916.343	0.0130344
916.421	0.0128266
916.499	0.0130122
916.578	0.0128290
916.656	0.0128822
916.734	0.0129255
916.812	0.0127140
916.890	0.0129796
916.968	0.0130544
917.046	0.0130579
917.124	0.0129772
917.203	0.0131165
917.281	0.0128234
917.359	0.0130036
917.437	0.0129124
917.515	0.0129901
917.593	0.0130445
917.671	0.0129955
917.749	0.0129238
917.828	0.0129948
917.906	0.0129524
917.984	0.0129250
918.062	0.0130540
918.140	0.0128664
918.218	0.0127182
918.296	0.0129684
918.374	0.0130386
918.453	0.0128539
918.531	0.0128819
918.609	0.0129483
918.687	0.0127915
918.765	0.0128433
918.843	0.0128571
918.921	0.0128618
918.999	0.0128884
919.078	0.0127996
919.156	0.0129369
919.234	0.0128677
919.312	0.0129084
919.390	0.0129315
919.468	0.0129285
919.546	0.0129826
919.624	0.0129695
919.703	0.0129809
919.781	0.0130392
919.859	0.0130594
919.937	0.0128278
