05/03/2022	19:50:20	Ver.	4.1	UNKNOWN
Optical Delay	660.009933	Delta X		0.078125	Sweeps	1	Scan Rate	0/0
Coordinates	Axis 1	NaN	Axis 2	NaN	Axis 3	NaN	Axis 4	NaN	Axis 5	NaN	Axis 6	0.000000
TX Power	0.000000	RX Power	0.000000

660.010	0.0148457
660.088	0.0148430
660.166	0.0147821
660.244	0.0148044
660.322	0.0147327
660.401	0.0149497
660.479	0.0149325
660.557	0.0148814
660.635	0.0147962
660.713	0.0148502
660.791	0.0147618
660.869	0.0147488
660.947	0.0149155
661.026	0.0148197
661.104	0.0146428
661.182	0.0148769
661.260	0.0149541
661.338	0.0149164
661.416	0.0148917
661.494	0.0149538
661.572	0.0149674
661.651	0.0148639
661.729	0.0148677
661.807	0.0149371
661.885	0.0148402
661.963	0.0148072
662.041	0.0148360
662.119	0.0149139
662.197	0.0149279
662.276	0.0149025
662.354	0.0147888
662.432	0.0148491
662.510	0.0148161
662.588	0.0149164
662.666	0.0148182
662.744	0.0149129
662.822	0.0147196
662.901	0.0149210
662.979	0.0150220
663.057	0.0149522
663.135	0.0148206
663.213	0.0149327
663.291	0.0147625
663.369	0.0148660
663.447	0.0149558
663.526	0.0147778
663.604	0.0149398
663.682	0.0148547
663.760	0.0147848
663.838	0.0148343
663.916	0.0147257
663.994	0.0147871
664.072	0.0148073
664.151	0.0149746
664.229	0.0148891
664.307	0.0147310
664.385	0.0148209
664.463	0.0148229
664.541	0.0148307
664.619	0.0149202
664.697	0.0148171
664.776	0.0149255
664.854	0.0148927
664.932	0.0149229
665.010	0.0148163
665.088	0.0147803
665.166	0.0148566
665.244	0.0148083
665.322	0.0148670
665.401	0.0148429
665.479	0.0148680
665.557	0.0148808
665.635	0.0149229
665.713	0.0148502
665.791	0.0146472
665.869	0.0148799
665.947	0.0148353
666.026	0.0148505
666.104	0.0148923
666.182	0.0148271
666.260	0.0148668
666.338	0.0148750
666.416	0.0148318
666.494	0.0147364
666.572	0.0149032
666.651	0.0146443
666.729	0.0147563
666.807	0.0148785
666.885	0.0150391
666.963	0.0148415
667.041	0.0150103
667.119	0.0149010
667.197	0.0149452
667.276	0.0148750
667.354	0.0148151
667.432	0.0148545
667.510	0.0149118
667.588	0.0147375
667.666	0.0148119
667.744	0.0149063
667.822	0.0148594
667.901	0.0147747
667.979	0.0149270
668.057	0.0148895
668.135	0.0148214
668.213	0.0148058
668.291	0.0148269
668.369	0.0148977
668.447	0.0149790
668.526	0.0147689
668.604	0.0149422
668.682	0.0148425
668.760	0.0149120
668.838	0.0149064
668.916	0.0148540
668.994	0.0148454
669.072	0.0148114
669.151	0.0150403
669.229	0.0149158
669.307	0.0148969
669.385	0.0148829
669.463	0.0150662
669.541	0.0148771
669.619	0.0146764
669.697	0.0149554
669.776	0.0147969
669.854	0.0148061
669.932	0.0147831
670.010	0.0150816
670.088	0.0148677
670.166	0.0148645
670.244	0.0148061
670.322	0.0149437
670.401	0.0148965
670.479	0.0149393
670.557	0.0147675
670.635	0.0146946
670.713	0.0148535
670.791	0.0149203
670.869	0.0149287
670.947	0.0148680
671.026	0.0148228
671.104	0.0147280
671.182	0.0148244
671.260	0.0148926
671.338	0.0147314
671.416	0.0148007
671.494	0.0148972
671.572	0.0149358
671.651	0.0148897
671.729	0.0150272
671.807	0.0148711
671.885	0.0149220
671.963	0.0149666
672.041	0.0149129
672.119	0.0148717
672.197	0.0148409
672.276	0.0148954
672.354	0.0150431
672.432	0.0148867
672.510	0.0147275
672.588	0.0147944
672.666	0.0147279
672.744	0.0150250
672.822	0.0149005
672.901	0.0148330
672.979	0.0148506
673.057	0.0148227
673.135	0.0150118
673.213	0.0149710
673.291	0.0147396
673.369	0.0148250
673.447	0.0148638
673.526	0.0150458
673.604	0.0148693
673.682	0.0148082
673.760	0.0149331
673.838	0.0148543
673.916	0.0148253
673.994	0.0149754
674.072	0.0150040
674.151	0.0148966
674.229	0.0148203
674.307	0.0148872
674.385	0.0147230
674.463	0.0148116
674.541	0.0150239
674.619	0.0149111
674.697	0.0149400
674.776	0.0149580
674.854	0.0148172
674.932	0.0149306
675.010	0.0149520
675.088	0.0147614
675.166	0.0149811
675.244	0.0147863
675.322	0.0149689
675.401	0.0148582
675.479	0.0148499
675.557	0.0148409
675.635	0.0148844
675.713	0.0151664
675.791	0.0148688
675.869	0.0147515
675.947	0.0149625
676.026	0.0149971
676.104	0.0149550
676.182	0.0149942
676.260	0.0148312
676.338	0.0147513
676.416	0.0147890
676.494	0.0148775
676.572	0.0149148
676.651	0.0148480
676.729	0.0148741
676.807	0.0147913
676.885	0.0149122
676.963	0.0148971
677.041	0.0148615
677.119	0.0149604
677.197	0.0147948
677.276	0.0149695
677.354	0.0149889
677.432	0.0149422
677.510	0.0148215
677.588	0.0147823
677.666	0.0147150
677.744	0.0147781
677.822	0.0147824
677.901	0.0149358
677.979	0.0149846
678.057	0.0147924
678.135	0.0148035
678.213	0.0147413
678.291	0.0148959
678.369	0.0149389
678.447	0.0148337
678.526	0.0148969
678.604	0.0149744
678.682	0.0148777
678.760	0.0148579
678.838	0.0147591
678.916	0.0147150
678.994	0.0147454
679.072	0.0148389
679.151	0.0149284
679.229	0.0147252
679.307	0.0148197
679.385	0.0149114
679.463	0.0149268
679.541	0.0151162
679.619	0.0148276
679.697	0.0148083
679.776	0.0149066
679.854	0.0147404
679.932	0.0147252
680.010	0.0148885
680.088	0.0148730
680.166	0.0148194
680.244	0.0149101
680.322	0.0148267
680.401	0.0148833
680.479	0.0148817
680.557	0.0148068
680.635	0.0148265
680.713	0.0148315
680.791	0.0149487
680.869	0.0149040
680.947	0.0149030
681.026	0.0149242
681.104	0.0148947
681.182	0.0149789
681.260	0.0149083
681.338	0.0149452
681.416	0.0149815
681.494	0.0149021
681.572	0.0149044
681.651	0.0148691
681.729	0.0149466
681.807	0.0149827
681.885	0.0148773
681.963	0.0148846
682.041	0.0148238
682.119	0.0149136
682.197	0.0149151
682.276	0.0147669
682.354	0.0148594
682.432	0.0150364
682.510	0.0148593
682.588	0.0148444
682.666	0.0148368
682.744	0.0148312
682.822	0.0148839
682.901	0.0148695
682.979	0.0149428
683.057	0.0147102
683.135	0.0148468
683.213	0.0149847
683.291	0.0149823
683.369	0.0148536
683.447	0.0148403
683.526	0.0149349
683.604	0.0149368
683.682	0.0147924
683.760	0.0147792
683.838	0.0149464
683.916	0.0149073
683.994	0.0147891
684.072	0.0148575
684.151	0.0148761
684.229	0.0147977
684.307	0.0149135
684.385	0.0149151
684.463	0.0149107
684.541	0.0146996
684.619	0.0147459
684.697	0.0148983
684.776	0.0148039
684.854	0.0148515
684.932	0.0148275
685.010	0.0148797
685.088	0.0148103
685.166	0.0147874
685.244	0.0147885
685.322	0.0147889
685.401	0.0147890
685.479	0.0149993
685.557	0.0149410
685.635	0.0149113
685.713	0.0148692
685.791	0.0147127
685.869	0.0148927
685.947	0.0148923
686.026	0.0149199
686.104	0.0147375
686.182	0.0149290
686.260	0.0147154
686.338	0.0149671
686.416	0.0149454
686.494	0.0147241
686.572	0.0148702
686.651	0.0150004
686.729	0.0148888
686.807	0.0148386
686.885	0.0149416
686.963	0.0149642
687.041	0.0149097
687.119	0.0147551
687.197	0.0148695
687.276	0.0147477
687.354	0.0149751
687.432	0.0150262
687.510	0.0150138
687.588	0.0148331
687.666	0.0147803
687.744	0.0148991
687.822	0.0149187
687.901	0.0148276
687.979	0.0148817
688.057	0.0148228
688.135	0.0149589
688.213	0.0148864
688.291	0.0148672
688.369	0.0147665
688.447	0.0148504
688.526	0.0149326
688.604	0.0148427
688.682	0.0148729
688.760	0.0149762
688.838	0.0148308
688.916	0.0146809
688.994	0.0148462
689.072	0.0148610
689.151	0.0147697
689.229	0.0148759
689.307	0.0147945
689.385	0.0149020
689.463	0.0149107
689.541	0.0148588
689.619	0.0148595
689.697	0.0149429
689.776	0.0148408
689.854	0.0148671
689.932	0.0148640
690.010	0.0148591
690.088	0.0150431
690.166	0.0149892
690.244	0.0148882
690.322	0.0148282
690.401	0.0149384
690.479	0.0148346
690.557	0.0149212
690.635	0.0148421
690.713	0.0147647
690.791	0.0149139
690.869	0.0149268
690.947	0.0148249
691.026	0.0149371
691.104	0.0147486
691.182	0.0148225
691.260	0.0148943
691.338	0.0149563
691.416	0.0148312
691.494	0.0149516
691.572	0.0148212
691.651	0.0148239
691.729	0.0148936
691.807	0.0147755
691.885	0.0148681
691.963	0.0148152
692.041	0.0147936
692.119	0.0147824
692.197	0.0150594
692.276	0.0149728
692.354	0.0148712
692.432	0.0147858
692.510	0.0147838
692.588	0.0149244
692.666	0.0147150
692.744	0.0147619
692.822	0.0148481
692.901	0.0149024
692.979	0.0149191
693.057	0.0147211
693.135	0.0148100
693.213	0.0148650
693.291	0.0148576
693.369	0.0147924
693.447	0.0148215
693.526	0.0148474
693.604	0.0149206
693.682	0.0149692
693.760	0.0147767
693.838	0.0147578
693.916	0.0148322
693.994	0.0147870
694.072	0.0149534
694.151	0.0147812
694.229	0.0148170
694.307	0.0148758
694.385	0.0148869
694.463	0.0149076
694.541	0.0148611
694.619	0.0146107
694.697	0.0147934
694.776	0.0148421
694.854	0.0148846
694.932	0.0147849
695.010	0.0147939
695.088	0.0148857
695.166	0.0148178
695.244	0.0148849
695.322	0.0150233
695.401	0.0148848
695.479	0.0147892
695.557	0.0148238
695.635	0.0148203
695.713	0.0149472
695.791	0.0147393
695.869	0.0147927
695.947	0.0147087
696.026	0.0149245
696.104	0.0149662
696.182	0.0149058
696.260	0.0148357
696.338	0.0148029
696.416	0.0148512
696.494	0.0148073
696.572	0.0150136
696.651	0.0149609
696.729	0.0147995
696.807	0.0148641
696.885	0.0148994
696.963	0.0150012
697.041	0.0149193
697.119	0.0148490
697.197	0.0147791
697.276	0.0147239
697.354	0.0149058
697.432	0.0148940
697.510	0.0148998
697.588	0.0149054
697.666	0.0149093
697.744	0.0149116
697.822	0.0149026
697.901	0.0149051
697.979	0.0147074
698.057	0.0148788
698.135	0.0149285
698.213	0.0148468
698.291	0.0147776
698.369	0.0149757
698.447	0.0148200
698.526	0.0149464
698.604	0.0148544
698.682	0.0147674
698.760	0.0149374
698.838	0.0148536
698.916	0.0147813
698.994	0.0149437
699.072	0.0148016
699.151	0.0148872
699.229	0.0148534
699.307	0.0150339
699.385	0.0148694
699.463	0.0147620
699.541	0.0150121
699.619	0.0149705
699.697	0.0148205
699.776	0.0147220
699.854	0.0146908
699.932	0.0149258
700.010	0.0150288
700.088	0.0147857
700.166	0.0149465
700.244	0.0149668
700.322	0.0148341
700.401	0.0148727
700.479	0.0149755
700.557	0.0148615
700.635	0.0149829
700.713	0.0149655
700.791	0.0148684
700.869	0.0148977
700.947	0.0149484
701.026	0.0150455
701.104	0.0149653
701.182	0.0149107
701.260	0.0148586
701.338	0.0148675
701.416	0.0150346
701.494	0.0148766
701.572	0.0149666
701.651	0.0149451
701.729	0.0149212
701.807	0.0148267
701.885	0.0148016
701.963	0.0148166
702.041	0.0149064
702.119	0.0149765
702.197	0.0148210
702.276	0.0149277
702.354	0.0147371
702.432	0.0147280
702.510	0.0149066
702.588	0.0149722
702.666	0.0150079
702.744	0.0149278
702.822	0.0147666
702.901	0.0148067
702.979	0.0149391
703.057	0.0150166
703.135	0.0148084
703.213	0.0148186
703.291	0.0149158
703.369	0.0147832
703.447	0.0148344
703.526	0.0148412
703.604	0.0149295
703.682	0.0149396
703.760	0.0149555
703.838	0.0149020
703.916	0.0147852
703.994	0.0148591
704.072	0.0149904
704.151	0.0148962
704.229	0.0148275
704.307	0.0148611
704.385	0.0150240
704.463	0.0147887
704.541	0.0148234
704.619	0.0148407
704.697	0.0148387
704.776	0.0147771
704.854	0.0148582
704.932	0.0148997
705.010	0.0148648
705.088	0.0148807
705.166	0.0148767
705.244	0.0148760
705.322	0.0147932
705.401	0.0148553
705.479	0.0149715
705.557	0.0147540
705.635	0.0149704
705.713	0.0148898
705.791	0.0147160
705.869	0.0148052
705.947	0.0149172
706.026	0.0149580
706.104	0.0148094
706.182	0.0148380
706.260	0.0150850
706.338	0.0150057
706.416	0.0148683
706.494	0.0148928
706.572	0.0149012
706.651	0.0149538
706.729	0.0149360
706.807	0.0148974
706.885	0.0149804
706.963	0.0149080
707.041	0.0148803
707.119	0.0148569
707.197	0.0147453
707.276	0.0146976
707.354	0.0148087
707.432	0.0147945
707.510	0.0146729
707.588	0.0147305
707.666	0.0146825
707.744	0.0148074
707.822	0.0145966
707.901	0.0145457
707.979	0.0146061
708.057	0.0146114
708.135	0.0146853
708.213	0.0147809
708.291	0.0147158
708.369	0.0147713
708.447	0.0149017
708.526	0.0147962
708.604	0.0148698
708.682	0.0150169
708.760	0.0150846
708.838	0.0150148
708.916	0.0151803
708.994	0.0151926
709.072	0.0151577
709.151	0.0151808
709.229	0.0150687
709.307	0.0150816
709.385	0.0150597
709.463	0.0147839
709.541	0.0148399
709.619	0.0147926
709.697	0.0147179
709.776	0.0145853
709.854	0.0145915
709.932	0.0147324
710.010	0.0145441
710.088	0.0146101
710.166	0.0146859
710.244	0.0146487
710.322	0.0146643
710.401	0.0147373
710.479	0.0146593
710.557	0.0145869
710.635	0.0146809
710.713	0.0147112
710.791	0.0148442
710.869	0.0148553
710.947	0.0147720
711.026	0.0148594
711.104	0.0148473
711.182	0.0149268
711.260	0.0148333
711.338	0.0148408
711.416	0.0149108
711.494	0.0149264
711.572	0.0148576
711.651	0.0148550
711.729	0.0147611
711.807	0.0147064
711.885	0.0147831
711.963	0.0147936
712.041	0.0146635
712.119	0.0146736
712.197	0.0147768
712.276	0.0147665
712.354	0.0144905
712.432	0.0147778
712.510	0.0148734
712.588	0.0148733
712.666	0.0150655
712.744	0.0152544
712.822	0.0152360
712.901	0.0153656
712.979	0.0154210
713.057	0.0154152
713.135	0.0154551
713.213	0.0156734
713.291	0.0156175
713.369	0.0157354
713.447	0.0156676
713.526	0.0156561
713.604	0.0155995
713.682	0.0154281
713.760	0.0154134
713.838	0.0152648
713.916	0.0151260
713.994	0.0150108
714.072	0.0148146
714.151	0.0146513
714.229	0.0145628
714.307	0.0143647
714.385	0.0141622
714.463	0.0142469
714.541	0.0140753
714.619	0.0141183
714.697	0.0140514
714.776	0.0141562
714.854	0.0140763
714.932	0.0140864
715.010	0.0141786
715.088	0.0141919
715.166	0.0142859
715.244	0.0143786
715.322	0.0144484
715.401	0.0144796
715.479	0.0144153
715.557	0.0145472
715.635	0.0147211
715.713	0.0147866
715.791	0.0148982
715.869	0.0151185
715.947	0.0152051
716.026	0.0153542
716.104	0.0154174
716.182	0.0154844
716.260	0.0155849
716.338	0.0156415
716.416	0.0156580
716.494	0.0156172
716.572	0.0156649
716.651	0.0157722
716.729	0.0157983
716.807	0.0157902
716.885	0.0157395
716.963	0.0157404
717.041	0.0156332
717.119	0.0155856
717.197	0.0154987
717.276	0.0153722
717.354	0.0153155
717.432	0.0152985
717.510	0.0151427
717.588	0.0149068
717.666	0.0148182
717.744	0.0146545
717.822	0.0146178
717.901	0.0145640
717.979	0.0143385
718.057	0.0142161
718.135	0.0141619
718.213	0.0141230
718.291	0.0140827
718.369	0.0141150
718.447	0.0141148
718.526	0.0140543
718.604	0.0142779
718.682	0.0143370
718.760	0.0142393
718.838	0.0142411
718.916	0.0144984
718.994	0.0144482
719.072	0.0145051
719.151	0.0146252
719.229	0.0147182
719.307	0.0149434
719.385	0.0150557
719.463	0.0151114
719.541	0.0151675
719.619	0.0153265
719.697	0.0154097
719.776	0.0154825
719.854	0.0154604
719.932	0.0155238
720.010	0.0155302
720.088	0.0156096
720.166	0.0156493
720.244	0.0156165
720.322	0.0157128
720.401	0.0156082
720.479	0.0154950
720.557	0.0155714
720.635	0.0152920
720.713	0.0154149
720.791	0.0150760
720.869	0.0151292
720.947	0.0151234
721.026	0.0151244
721.104	0.0149038
721.182	0.0147946
721.260	0.0148137
721.338	0.0146822
721.416	0.0144624
721.494	0.0144317
721.572	0.0143820
721.651	0.0142958
721.729	0.0143192
721.807	0.0142104
721.885	0.0143616
721.963	0.0142183
722.041	0.0141975
722.119	0.0142702
722.197	0.0142348
722.276	0.0142062
722.354	0.0142252
722.432	0.0144009
722.510	0.0144832
722.588	0.0144817
722.666	0.0145572
722.744	0.0143935
722.822	0.0144907
722.901	0.0144590
722.979	0.0146152
723.057	0.0147031
723.135	0.0148364
723.213	0.0148401
723.291	0.0149104
723.369	0.0150845
723.447	0.0150919
723.526	0.0151526
723.604	0.0151908
723.682	0.0151952
723.760	0.0152796
723.838	0.0155080
723.916	0.0154170
723.994	0.0154713
724.072	0.0156002
724.151	0.0155924
724.229	0.0156001
724.307	0.0155994
724.385	0.0155215
724.463	0.0155601
724.541	0.0154450
724.619	0.0154562
724.697	0.0154802
724.776	0.0154336
724.854	0.0152538
724.932	0.0152909
725.010	0.0152000
725.088	0.0151633
725.166	0.0149630
725.244	0.0150116
725.322	0.0149843
725.401	0.0149911
725.479	0.0148566
725.557	0.0147474
725.635	0.0147147
725.713	0.0146939
725.791	0.0146569
725.869	0.0146184
725.947	0.0143613
726.026	0.0144934
726.104	0.0143656
726.182	0.0142388
726.260	0.0142667
726.338	0.0143911
726.416	0.0142496
726.494	0.0141333
726.572	0.0141803
726.651	0.0142414
726.729	0.0142934
726.807	0.0142031
726.885	0.0144316
726.963	0.0144196
727.041	0.0143801
727.119	0.0144082
727.197	0.0145730
727.276	0.0146236
727.354	0.0147046
727.432	0.0147915
727.510	0.0149977
727.588	0.0150298
727.666	0.0149421
727.744	0.0148198
727.822	0.0149807
727.901	0.0150294
727.979	0.0151371
728.057	0.0151913
728.135	0.0152595
728.213	0.0152436
728.291	0.0151614
728.369	0.0152005
728.447	0.0154189
728.526	0.0152947
728.604	0.0153146
728.682	0.0152277
728.760	0.0152358
728.838	0.0153249
728.916	0.0152802
728.994	0.0153246
729.072	0.0152233
729.151	0.0152415
729.229	0.0154955
729.307	0.0153374
729.385	0.0152882
729.463	0.0152911
729.541	0.0152116
729.619	0.0151559
729.697	0.0151977
729.776	0.0151884
729.854	0.0151846
729.932	0.0150726
730.010	0.0150515
730.088	0.0149402
730.166	0.0148586
730.244	0.0149290
730.322	0.0148566
730.401	0.0147343
730.479	0.0147692
730.557	0.0148213
730.635	0.0147900
730.713	0.0146431
730.791	0.0146778
730.869	0.0146420
730.947	0.0145450
731.026	0.0144624
731.104	0.0145558
731.182	0.0145435
731.260	0.0143970
731.338	0.0143721
731.416	0.0143683
731.494	0.0144637
731.572	0.0144753
731.651	0.0142554
731.729	0.0144151
731.807	0.0144659
731.885	0.0144230
731.963	0.0142738
732.041	0.0145503
732.119	0.0145059
732.197	0.0145488
732.276	0.0144270
732.354	0.0146671
732.432	0.0146609
732.510	0.0146584
732.588	0.0149384
732.666	0.0147331
732.744	0.0147427
732.822	0.0147290
732.901	0.0149325
732.979	0.0148523
733.057	0.0149723
733.135	0.0148669
733.213	0.0148879
733.291	0.0150046
733.369	0.0150069
733.447	0.0149886
733.526	0.0151112
733.604	0.0150983
733.682	0.0152915
733.760	0.0152404
733.838	0.0153582
733.916	0.0153838
733.994	0.0152663
734.072	0.0153936
734.151	0.0154141
734.229	0.0154237
734.307	0.0154220
734.385	0.0154838
734.463	0.0154662
734.541	0.0155088
734.619	0.0154157
734.697	0.0154177
734.776	0.0155504
734.854	0.0154753
734.932	0.0153882
735.010	0.0152218
735.088	0.0152741
735.166	0.0152898
735.244	0.0151125
735.322	0.0151495
735.401	0.0150845
735.479	0.0151182
735.557	0.0148542
735.635	0.0147845
735.713	0.0148470
735.791	0.0147824
735.869	0.0146430
735.947	0.0146271
736.026	0.0147183
736.104	0.0145815
736.182	0.0146391
736.260	0.0146973
736.338	0.0147292
736.416	0.0146042
736.494	0.0145441
736.572	0.0146442
736.651	0.0144084
736.729	0.0144473
736.807	0.0145375
736.885	0.0145031
736.963	0.0144949
737.041	0.0144980
737.119	0.0144741
737.197	0.0143528
737.276	0.0143833
737.354	0.0144725
737.432	0.0144124
737.510	0.0144611
737.588	0.0143567
737.666	0.0144711
737.744	0.0144205
737.822	0.0143987
737.901	0.0146088
737.979	0.0145512
738.057	0.0146458
738.135	0.0145704
738.213	0.0147800
738.291	0.0148549
738.369	0.0147612
738.447	0.0147632
738.526	0.0148629
738.604	0.0149026
738.682	0.0149755
738.760	0.0150596
738.838	0.0150921
738.916	0.0151541
738.994	0.0151467
739.072	0.0152433
739.151	0.0152861
739.229	0.0152977
739.307	0.0152219
739.385	0.0151839
739.463	0.0152425
739.541	0.0151998
739.619	0.0152077
739.697	0.0150836
739.776	0.0151562
739.854	0.0151081
739.932	0.0149989
740.010	0.0151147
740.088	0.0150884
740.166	0.0151382
740.244	0.0150875
740.322	0.0150333
740.401	0.0150077
740.479	0.0149783
740.557	0.0149573
740.635	0.0149535
740.713	0.0149647
740.791	0.0149547
740.869	0.0150685
740.947	0.0149200
741.026	0.0150352
741.104	0.0149739
741.182	0.0148566
741.260	0.0148499
741.338	0.0149203
741.416	0.0148558
741.494	0.0149132
741.572	0.0148916
741.651	0.0148332
741.729	0.0147604
741.807	0.0146414
741.885	0.0146667
741.963	0.0146992
742.041	0.0146757
742.119	0.0146072
742.197	0.0146017
742.276	0.0146007
742.354	0.0146160
742.432	0.0144614
742.510	0.0144812
742.588	0.0146563
742.666	0.0146040
742.744	0.0146191
742.822	0.0146529
742.901	0.0146633
742.979	0.0146090
743.057	0.0146930
743.135	0.0147860
743.213	0.0147856
743.291	0.0145709
743.369	0.0144713
743.447	0.0147676
743.526	0.0147377
743.604	0.0145771
743.682	0.0144569
743.760	0.0145544
743.838	0.0145756
743.916	0.0145486
743.994	0.0147034
744.072	0.0146327
744.151	0.0147916
744.229	0.0146804
744.307	0.0146198
744.385	0.0146626
744.463	0.0147228
744.541	0.0148498
744.619	0.0147969
744.697	0.0148792
744.776	0.0149041
744.854	0.0148927
744.932	0.0148507
745.010	0.0148796
745.088	0.0150044
745.166	0.0150565
745.244	0.0150176
745.322	0.0150423
745.401	0.0151617
745.479	0.0151205
745.557	0.0151482
745.635	0.0150901
745.713	0.0152132
745.791	0.0152264
745.869	0.0151317
745.947	0.0152160
746.026	0.0151569
746.104	0.0151672
746.182	0.0152050
746.260	0.0151949
746.338	0.0151843
746.416	0.0152393
746.494	0.0152205
746.572	0.0152048
746.651	0.0152130
746.729	0.0151908
746.807	0.0151565
746.885	0.0150659
746.963	0.0151717
747.041	0.0150738
747.119	0.0151075
747.197	0.0150513
747.276	0.0151201
747.354	0.0150848
747.432	0.0150946
747.510	0.0148177
747.588	0.0149429
747.666	0.0148551
747.744	0.0149024
747.822	0.0146418
747.901	0.0147775
747.979	0.0147607
748.057	0.0147775
748.135	0.0147324
748.213	0.0146809
748.291	0.0147380
748.369	0.0146835
748.447	0.0146245
748.526	0.0147112
748.604	0.0146176
748.682	0.0147353
748.760	0.0146543
748.838	0.0145962
748.916	0.0145673
748.994	0.0145104
749.072	0.0145034
749.151	0.0143846
749.229	0.0144859
749.307	0.0143246
749.385	0.0144479
749.463	0.0144067
749.541	0.0144378
749.619	0.0144097
749.697	0.0144897
749.776	0.0145903
749.854	0.0147111
749.932	0.0145439
750.010	0.0145670
750.088	0.0145912
750.166	0.0147186
750.244	0.0148666
750.322	0.0149015
750.401	0.0146436
750.479	0.0149013
750.557	0.0149033
750.635	0.0148162
750.713	0.0147066
750.791	0.0147190
750.869	0.0148830
750.947	0.0148696
751.026	0.0147934
751.104	0.0148186
751.182	0.0149258
751.260	0.0150220
751.338	0.0148663
751.416	0.0149632
751.494	0.0150777
751.572	0.0150761
751.651	0.0151675
751.729	0.0151164
751.807	0.0150924
751.885	0.0150301
751.963	0.0150427
752.041	0.0151077
752.119	0.0150788
752.197	0.0148794
752.276	0.0151070
752.354	0.0150030
752.432	0.0151433
752.510	0.0151220
752.588	0.0150265
752.666	0.0149158
752.744	0.0148958
752.822	0.0149478
752.901	0.0149210
752.979	0.0149528
753.057	0.0148312
753.135	0.0148350
753.213	0.0149310
753.291	0.0148072
753.369	0.0149212
753.447	0.0148151
753.526	0.0147894
753.604	0.0148521
753.682	0.0148315
753.760	0.0148772
753.838	0.0148083
753.916	0.0147822
753.994	0.0147470
754.072	0.0148420
754.151	0.0147720
754.229	0.0148005
754.307	0.0148724
754.385	0.0147051
754.463	0.0146316
754.541	0.0147126
754.619	0.0148212
754.697	0.0147050
754.776	0.0147868
754.854	0.0146879
754.932	0.0147033
755.010	0.0147816
755.088	0.0147660
755.166	0.0146786
755.244	0.0146269
755.322	0.0147223
755.401	0.0147594
755.479	0.0146259
755.557	0.0147255
755.635	0.0148162
755.713	0.0148586
755.791	0.0146791
755.869	0.0146986
755.947	0.0147699
756.026	0.0147979
756.104	0.0147470
756.182	0.0147892
756.260	0.0147549
756.338	0.0147672
756.416	0.0146913
756.494	0.0148144
756.572	0.0146381
756.651	0.0145665
756.729	0.0147054
756.807	0.0147021
756.885	0.0147362
756.963	0.0147428
757.041	0.0146749
757.119	0.0147020
757.197	0.0147794
757.276	0.0147511
757.354	0.0148069
757.432	0.0149936
757.510	0.0149087
757.588	0.0147851
757.666	0.0149967
757.744	0.0149747
757.822	0.0149302
757.901	0.0149622
757.979	0.0150272
758.057	0.0151265
758.135	0.0151421
758.213	0.0152102
758.291	0.0150716
758.369	0.0150767
758.447	0.0150417
758.526	0.0149411
758.604	0.0151505
758.682	0.0150879
758.760	0.0149962
758.838	0.0151536
758.916	0.0150952
758.994	0.0149406
759.072	0.0150294
759.151	0.0150428
759.229	0.0151648
759.307	0.0151875
759.385	0.0151398
759.463	0.0149605
759.541	0.0151233
759.619	0.0151503
759.697	0.0151677
759.776	0.0152071
759.854	0.0150212
759.932	0.0149300
760.010	0.0149780
760.088	0.0150056
760.166	0.0149619
760.244	0.0149432
760.322	0.0150269
760.401	0.0149714
760.479	0.0149544
760.557	0.0151064
760.635	0.0151201
760.713	0.0150869
760.791	0.0151700
760.869	0.0151433
760.947	0.0152376
761.026	0.0150860
761.104	0.0150877
761.182	0.0150497
761.260	0.0150481
761.338	0.0148293
761.416	0.0147942
761.494	0.0147216
761.572	0.0147009
761.651	0.0146976
761.729	0.0146454
761.807	0.0148125
761.885	0.0147923
761.963	0.0146903
762.041	0.0146159
762.119	0.0146165
762.197	0.0146162
762.276	0.0147076
762.354	0.0147828
762.432	0.0146369
762.510	0.0147696
762.588	0.0148294
762.666	0.0147651
762.744	0.0148302
762.822	0.0149061
762.901	0.0149075
762.979	0.0148708
763.057	0.0148007
763.135	0.0148687
763.213	0.0149393
763.291	0.0147720
763.369	0.0148531
763.447	0.0148724
763.526	0.0148294
763.604	0.0149017
763.682	0.0150076
763.760	0.0149289
763.838	0.0147636
763.916	0.0148515
763.994	0.0147748
764.072	0.0148463
764.151	0.0148355
764.229	0.0146121
764.307	0.0147871
764.385	0.0147697
764.463	0.0147429
764.541	0.0147543
764.619	0.0147251
764.697	0.0146532
764.776	0.0148360
764.854	0.0148812
764.932	0.0147667
765.010	0.0147591
765.088	0.0147981
765.166	0.0149259
765.244	0.0149496
765.322	0.0148075
765.401	0.0148186
765.479	0.0148733
765.557	0.0148817
765.635	0.0148711
765.713	0.0148199
765.791	0.0149610
765.869	0.0149777
765.947	0.0149652
766.026	0.0149839
766.104	0.0150504
766.182	0.0150317
766.260	0.0150179
766.338	0.0149671
766.416	0.0150137
766.494	0.0149876
766.572	0.0150310
766.651	0.0151495
766.729	0.0151192
766.807	0.0151024
766.885	0.0150317
766.963	0.0150890
767.041	0.0148845
767.119	0.0149053
767.197	0.0150793
767.276	0.0149436
767.354	0.0149496
767.432	0.0148584
767.510	0.0148386
767.588	0.0149554
767.666	0.0149424
767.744	0.0147359
767.822	0.0148267
767.901	0.0149503
767.979	0.0148978
768.057	0.0148691
768.135	0.0147830
768.213	0.0148771
768.291	0.0146432
768.369	0.0145856
768.447	0.0147972
768.526	0.0147742
768.604	0.0147189
768.682	0.0147532
768.760	0.0148077
768.838	0.0147587
768.916	0.0147330
768.994	0.0147268
769.072	0.0148552
769.151	0.0147645
769.229	0.0147591
769.307	0.0147611
769.385	0.0147306
769.463	0.0146160
769.541	0.0146380
769.619	0.0146152
769.697	0.0147751
769.776	0.0146104
769.854	0.0145995
769.932	0.0148093
770.010	0.0146717
770.088	0.0144943
770.166	0.0147211
770.244	0.0146584
770.322	0.0146864
770.401	0.0148042
770.479	0.0146807
770.557	0.0145434
770.635	0.0147837
770.713	0.0148280
770.791	0.0147964
770.869	0.0148556
770.947	0.0147846
771.026	0.0147858
771.104	0.0149095
771.182	0.0149320
771.260	0.0149643
771.338	0.0149291
771.416	0.0149118
771.494	0.0148873
771.572	0.0149127
771.651	0.0149300
771.729	0.0150481
771.807	0.0150578
771.885	0.0149831
771.963	0.0149533
772.041	0.0149066
772.119	0.0150136
772.197	0.0151032
772.276	0.0149918
772.354	0.0148688
772.432	0.0150071
772.510	0.0150963
772.588	0.0149976
772.666	0.0149555
772.744	0.0149696
772.822	0.0150813
772.901	0.0150554
772.979	0.0150594
773.057	0.0150191
773.135	0.0150220
773.213	0.0149522
773.291	0.0149780
773.369	0.0150742
773.447	0.0149307
773.526	0.0149686
773.604	0.0150372
773.682	0.0149573
773.760	0.0148380
773.838	0.0149284
773.916	0.0148473
773.994	0.0147044
774.072	0.0150096
774.151	0.0148123
774.229	0.0148062
774.307	0.0149335
774.385	0.0147990
774.463	0.0148761
774.541	0.0147858
774.619	0.0148906
774.697	0.0149615
774.776	0.0150432
774.854	0.0148413
774.932	0.0147921
775.010	0.0148880
775.088	0.0148896
775.166	0.0148504
775.244	0.0148711
775.322	0.0148778
775.401	0.0147331
775.479	0.0147469
775.557	0.0147613
775.635	0.0147463
775.713	0.0147531
775.791	0.0146773
775.869	0.0148416
775.947	0.0146293
776.026	0.0145628
776.104	0.0148161
776.182	0.0147044
776.260	0.0148315
776.338	0.0147834
776.416	0.0147013
776.494	0.0146829
776.572	0.0147522
776.651	0.0147496
776.729	0.0147428
776.807	0.0147911
776.885	0.0147954
776.963	0.0146696
777.041	0.0148343
777.119	0.0148608
777.197	0.0146096
777.276	0.0148025
777.354	0.0148000
777.432	0.0147903
777.510	0.0147245
777.588	0.0147337
777.666	0.0147735
777.744	0.0147816
777.822	0.0147036
777.901	0.0148147
777.979	0.0148976
778.057	0.0148836
778.135	0.0148048
778.213	0.0148037
778.291	0.0147200
778.369	0.0149443
778.447	0.0148895
778.526	0.0148992
778.604	0.0148506
778.682	0.0149734
778.760	0.0149474
778.838	0.0149904
778.916	0.0147938
778.994	0.0148155
779.072	0.0148737
779.151	0.0148839
779.229	0.0148623
779.307	0.0150195
779.385	0.0149493
779.463	0.0149586
779.541	0.0151111
779.619	0.0149492
779.697	0.0149360
779.776	0.0150172
779.854	0.0149582
779.932	0.0150249
780.010	0.0150574
780.088	0.0151184
780.166	0.0151347
780.244	0.0150532
780.322	0.0150984
780.401	0.0148639
780.479	0.0150764
780.557	0.0150558
780.635	0.0150211
780.713	0.0149475
780.791	0.0151311
780.869	0.0149886
780.947	0.0149728
781.026	0.0150002
781.104	0.0150996
781.182	0.0150902
781.260	0.0149471
781.338	0.0149740
781.416	0.0149321
781.494	0.0148637
781.572	0.0150134
781.651	0.0149781
781.729	0.0148890
781.807	0.0150130
781.885	0.0148981
781.963	0.0148720
782.041	0.0148454
782.119	0.0146742
782.197	0.0148706
782.276	0.0147272
782.354	0.0147679
782.432	0.0148434
782.510	0.0148955
782.588	0.0148525
782.666	0.0148965
782.744	0.0149239
782.822	0.0148653
782.901	0.0149075
782.979	0.0149109
783.057	0.0147810
783.135	0.0148603
783.213	0.0148914
783.291	0.0148118
783.369	0.0147438
783.447	0.0147669
783.526	0.0148595
783.604	0.0147042
783.682	0.0147342
783.760	0.0147138
783.838	0.0146781
783.916	0.0146265
783.994	0.0147262
784.072	0.0146710
784.151	0.0145261
784.229	0.0146095
784.307	0.0147681
784.385	0.0146934
784.463	0.0147281
784.541	0.0146902
784.619	0.0147759
784.697	0.0146934
784.776	0.0147659
784.854	0.0148827
784.932	0.0148804
785.010	0.0149634
785.088	0.0149162
785.166	0.0148930
785.244	0.0148910
785.322	0.0149644
785.401	0.0149337
785.479	0.0149950
785.557	0.0147937
785.635	0.0150396
785.713	0.0152171
785.791	0.0149578
785.869	0.0149408
785.947	0.0148529
786.026	0.0150322
786.104	0.0149287
786.182	0.0150005
786.260	0.0151186
786.338	0.0150845
786.416	0.0149897
786.494	0.0150015
786.572	0.0148936
786.651	0.0150791
786.729	0.0150721
786.807	0.0150305
786.885	0.0150360
786.963	0.0149783
787.041	0.0150720
787.119	0.0150555
787.197	0.0149755
787.276	0.0150694
787.354	0.0149442
787.432	0.0150843
787.510	0.0150005
787.588	0.0148230
787.666	0.0149929
787.744	0.0148704
787.822	0.0149103
787.901	0.0148473
787.979	0.0149430
788.057	0.0147645
788.135	0.0148554
788.213	0.0148788
788.291	0.0149464
788.369	0.0148131
788.447	0.0149033
788.526	0.0149253
788.604	0.0149172
788.682	0.0150724
788.760	0.0149760
788.838	0.0147853
788.916	0.0148196
788.994	0.0148544
789.072	0.0150314
789.151	0.0149074
789.229	0.0149864
789.307	0.0149379
789.385	0.0148907
789.463	0.0148225
789.541	0.0148567
789.619	0.0150559
789.697	0.0149238
789.776	0.0147604
789.854	0.0147313
789.932	0.0147556
790.010	0.0148251
790.088	0.0148257
790.166	0.0147431
790.244	0.0147408
790.322	0.0148160
790.401	0.0147008
790.479	0.0146863
790.557	0.0147617
790.635	0.0146667
790.713	0.0148224
790.791	0.0148360
790.869	0.0147829
790.947	0.0147806
791.026	0.0147942
791.104	0.0148186
791.182	0.0147382
791.260	0.0146195
791.338	0.0147840
791.416	0.0148721
791.494	0.0147945
791.572	0.0147982
791.651	0.0147440
791.729	0.0149210
791.807	0.0149471
791.885	0.0147876
791.963	0.0148344
792.041	0.0148868
792.119	0.0148767
792.197	0.0147650
792.276	0.0148609
792.354	0.0150151
792.432	0.0147474
792.510	0.0148840
792.588	0.0150332
792.666	0.0150746
792.744	0.0148731
792.822	0.0148656
792.901	0.0149229
792.979	0.0149635
793.057	0.0149686
793.135	0.0148997
793.213	0.0149165
793.291	0.0149001
793.369	0.0149076
793.447	0.0149199
793.526	0.0148424
793.604	0.0149465
793.682	0.0150780
793.760	0.0150172
793.838	0.0149017
793.916	0.0150473
793.994	0.0151588
794.072	0.0149747
794.151	0.0148763
794.229	0.0148879
794.307	0.0149897
794.385	0.0150096
794.463	0.0150733
794.541	0.0149959
794.619	0.0150506
794.697	0.0150816
794.776	0.0149933
794.854	0.0150433
794.932	0.0149531
795.010	0.0149248
795.088	0.0150269
795.166	0.0149664
795.244	0.0150404
795.322	0.0150579
795.401	0.0150516
795.479	0.0150266
795.557	0.0148677
795.635	0.0149314
795.713	0.0150106
795.791	0.0149814
795.869	0.0148064
795.947	0.0149905
796.026	0.0149617
796.104	0.0149232
796.182	0.0148990
796.260	0.0148334
796.338	0.0148037
796.416	0.0147636
796.494	0.0148494
796.572	0.0149013
796.651	0.0148651
796.729	0.0146111
796.807	0.0148554
796.885	0.0148570
796.963	0.0148366
797.041	0.0145925
797.119	0.0148341
797.197	0.0147969
797.276	0.0147436
797.354	0.0146528
797.432	0.0145969
797.510	0.0146341
797.588	0.0148690
797.666	0.0147694
797.744	0.0147266
797.822	0.0146609
797.901	0.0147599
797.979	0.0147684
798.057	0.0147879
798.135	0.0147925
798.213	0.0147504
798.291	0.0146667
798.369	0.0148112
798.447	0.0148320
798.526	0.0147625
798.604	0.0148549
798.682	0.0147636
798.760	0.0146806
798.838	0.0147913
798.916	0.0148920
798.994	0.0148174
799.072	0.0148683
799.151	0.0147811
799.229	0.0147909
799.307	0.0148277
799.385	0.0147824
799.463	0.0148039
799.541	0.0149429
799.619	0.0147606
799.697	0.0148056
799.776	0.0149349
799.854	0.0149965
799.932	0.0149458
800.010	0.0148230
800.088	0.0148772
800.166	0.0149997
800.244	0.0149091
800.322	0.0150375
800.401	0.0149828
800.479	0.0149196
800.557	0.0150288
800.635	0.0148956
800.713	0.0149744
800.791	0.0148946
800.869	0.0150687
800.947	0.0149278
801.026	0.0150151
801.104	0.0148608
801.182	0.0150963
801.260	0.0151072
801.338	0.0150092
801.416	0.0150137
801.494	0.0149654
801.572	0.0150051
801.651	0.0148611
801.729	0.0149325
801.807	0.0149988
801.885	0.0149494
801.963	0.0150519
802.041	0.0150940
802.119	0.0149628
802.197	0.0150733
802.276	0.0149124
802.354	0.0149344
802.432	0.0148678
802.510	0.0149168
802.588	0.0148259
802.666	0.0149725
802.744	0.0149049
802.822	0.0149459
802.901	0.0148446
802.979	0.0149694
803.057	0.0150249
803.135	0.0149116
803.213	0.0147134
803.291	0.0150377
803.369	0.0150018
803.447	0.0148900
803.526	0.0148231
803.604	0.0147147
803.682	0.0149082
803.760	0.0148596
803.838	0.0148252
803.916	0.0148678
803.994	0.0148224
804.072	0.0147970
804.151	0.0148293
804.229	0.0148146
804.307	0.0147843
804.385	0.0148552
804.463	0.0147309
804.541	0.0147614
804.619	0.0149183
804.697	0.0146133
804.776	0.0147118
804.854	0.0148814
804.932	0.0148816
805.010	0.0146561
805.088	0.0146318
805.166	0.0145426
805.244	0.0147030
805.322	0.0146508
805.401	0.0147173
805.479	0.0145706
805.557	0.0145325
805.635	0.0147923
805.713	0.0147696
805.791	0.0146081
805.869	0.0146357
805.947	0.0146188
806.026	0.0146352
806.104	0.0147575
806.182	0.0147623
806.260	0.0147704
806.338	0.0146717
806.416	0.0147972
806.494	0.0147717
806.572	0.0147213
806.651	0.0148289
806.729	0.0146969
806.807	0.0147713
806.885	0.0147421
806.963	0.0147013
807.041	0.0148671
807.119	0.0148701
807.197	0.0148752
807.276	0.0148491
807.354	0.0149207
807.432	0.0148359
807.510	0.0149171
807.588	0.0149130
807.666	0.0148895
807.744	0.0149200
807.822	0.0148714
807.901	0.0147615
807.979	0.0147509
808.057	0.0149342
808.135	0.0150239
808.213	0.0149948
808.291	0.0151072
808.369	0.0149736
808.447	0.0149747
808.526	0.0150721
808.604	0.0151365
808.682	0.0149605
808.760	0.0149743
808.838	0.0149950
808.916	0.0149353
808.994	0.0149738
809.072	0.0149398
809.151	0.0150435
809.229	0.0149910
809.307	0.0149665
809.385	0.0150392
809.463	0.0150674
809.541	0.0150138
809.619	0.0149947
809.697	0.0148950
809.776	0.0149427
809.854	0.0150264
809.932	0.0148700
810.010	0.0149900
810.088	0.0148949
810.166	0.0149408
810.244	0.0149651
810.322	0.0149102
810.401	0.0149586
810.479	0.0149500
810.557	0.0147864
810.635	0.0146567
810.713	0.0148975
810.791	0.0149394
810.869	0.0149042
810.947	0.0148932
811.026	0.0146554
811.104	0.0147761
811.182	0.0148095
811.260	0.0147250
811.338	0.0148672
811.416	0.0147636
811.494	0.0147207
811.572	0.0149047
811.651	0.0150068
811.729	0.0147792
811.807	0.0148276
811.885	0.0147588
811.963	0.0147761
812.041	0.0146037
812.119	0.0146618
812.197	0.0147129
812.276	0.0147635
812.354	0.0145387
812.432	0.0147594
812.510	0.0145306
812.588	0.0145495
812.666	0.0146556
812.744	0.0147246
812.822	0.0146187
812.901	0.0147308
812.979	0.0146548
813.057	0.0148152
813.135	0.0148425
813.213	0.0148425
813.291	0.0147280
813.369	0.0148385
813.447	0.0148788
813.526	0.0148508
813.604	0.0149017
813.682	0.0148763
813.760	0.0148864
813.838	0.0149044
813.916	0.0148820
813.994	0.0149503
814.072	0.0149174
814.151	0.0148737
814.229	0.0148585
814.307	0.0148833
814.385	0.0150108
814.463	0.0147771
814.541	0.0148875
814.619	0.0148704
814.697	0.0148882
814.776	0.0148560
814.854	0.0147868
814.932	0.0147970
815.010	0.0148191
815.088	0.0149122
815.166	0.0149754
815.244	0.0149747
815.322	0.0148607
815.401	0.0148735
815.479	0.0148963
815.557	0.0148840
815.635	0.0149493
815.713	0.0150362
815.791	0.0151341
815.869	0.0149432
815.947	0.0148119
816.026	0.0148486
816.104	0.0148856
816.182	0.0149586
816.260	0.0148637
816.338	0.0148711
816.416	0.0149292
816.494	0.0150427
816.572	0.0148721
816.651	0.0148989
816.729	0.0149072
816.807	0.0149343
816.885	0.0148750
816.963	0.0149900
817.041	0.0151086
817.119	0.0150902
817.197	0.0149981
817.276	0.0148357
817.354	0.0149389
817.432	0.0150395
817.510	0.0150079
817.588	0.0149297
817.666	0.0148882
817.744	0.0149714
817.822	0.0148094
817.901	0.0149094
817.979	0.0150230
818.057	0.0149322
818.135	0.0147462
818.213	0.0148608
818.291	0.0148878
818.369	0.0147659
818.447	0.0147057
818.526	0.0147691
818.604	0.0146246
818.682	0.0147363
818.760	0.0145508
818.838	0.0145768
818.916	0.0146146
818.994	0.0145785
819.072	0.0145928
819.151	0.0145383
819.229	0.0144836
819.307	0.0145985
819.385	0.0146449
819.463	0.0145265
819.541	0.0146432
819.619	0.0144444
819.697	0.0145295
819.776	0.0146258
819.854	0.0147523
819.932	0.0147803
820.010	0.0146162
820.088	0.0147006
820.166	0.0147579
820.244	0.0146741
820.322	0.0146329
820.401	0.0147717
820.479	0.0147474
820.557	0.0148074
820.635	0.0148900
820.713	0.0149066
820.791	0.0147924
820.869	0.0148814
820.947	0.0149187
821.026	0.0149043
821.104	0.0150298
821.182	0.0150410
821.260	0.0148634
821.338	0.0150111
821.416	0.0149791
821.494	0.0148444
821.572	0.0148025
821.651	0.0150392
821.729	0.0149530
821.807	0.0149250
821.885	0.0150688
821.963	0.0149334
822.041	0.0147837
822.119	0.0149288
822.197	0.0150134
822.276	0.0149322
822.354	0.0148275
822.432	0.0150225
822.510	0.0149434
822.588	0.0149226
822.666	0.0148910
822.744	0.0148148
822.822	0.0148895
822.901	0.0147943
822.979	0.0147991
823.057	0.0148391
823.135	0.0147629
823.213	0.0148926
823.291	0.0148312
823.369	0.0147112
823.447	0.0149405
823.526	0.0147505
823.604	0.0147195
823.682	0.0149520
823.760	0.0150038
823.838	0.0147755
823.916	0.0147796
823.994	0.0148576
824.072	0.0149689
824.151	0.0148022
824.229	0.0148548
824.307	0.0149508
824.385	0.0147697
824.463	0.0148120
824.541	0.0148754
824.619	0.0149565
824.697	0.0147515
824.776	0.0148916
824.854	0.0148950
824.932	0.0146804
825.010	0.0148277
825.088	0.0148148
825.166	0.0148202
825.244	0.0149134
825.322	0.0147968
825.401	0.0148166
825.479	0.0147032
825.557	0.0148281
825.635	0.0149497
825.713	0.0149426
825.791	0.0148402
825.869	0.0148959
825.947	0.0149294
826.026	0.0148581
826.104	0.0148489
826.182	0.0149302
826.260	0.0149326
826.338	0.0147981
826.416	0.0148589
826.494	0.0148357
826.572	0.0147453
826.651	0.0148820
826.729	0.0149142
826.807	0.0147216
826.885	0.0147932
826.963	0.0148671
827.041	0.0148553
827.119	0.0147055
827.197	0.0146256
827.276	0.0147764
827.354	0.0147993
827.432	0.0146839
827.510	0.0148112
827.588	0.0148386
827.666	0.0147968
827.744	0.0147244
827.822	0.0148280
827.901	0.0148106
827.979	0.0147410
828.057	0.0148182
828.135	0.0148473
828.213	0.0148140
828.291	0.0147530
828.369	0.0148956
828.447	0.0148121
828.526	0.0147807
828.604	0.0148115
828.682	0.0147921
828.760	0.0147351
828.838	0.0147935
828.916	0.0147080
828.994	0.0148589
829.072	0.0147750
829.151	0.0147274
829.229	0.0148410
829.307	0.0148649
829.385	0.0148047
829.463	0.0147504
829.541	0.0147852
829.619	0.0148957
829.697	0.0147685
829.776	0.0147520
829.854	0.0148859
829.932	0.0148325
830.010	0.0146834
830.088	0.0147922
830.166	0.0148782
830.244	0.0149833
830.322	0.0149287
830.401	0.0149636
830.479	0.0149545
830.557	0.0148296
830.635	0.0149802
830.713	0.0149224
830.791	0.0150857
830.869	0.0150456
830.947	0.0149262
831.026	0.0151054
831.104	0.0149692
831.182	0.0149345
831.260	0.0149352
831.338	0.0148859
831.416	0.0148769
831.494	0.0150146
831.572	0.0148891
831.651	0.0147078
831.729	0.0148737
831.807	0.0148866
831.885	0.0148051
831.963	0.0148654
832.041	0.0149006
832.119	0.0149734
832.197	0.0149613
832.276	0.0148772
832.354	0.0149802
832.432	0.0148957
832.510	0.0149445
832.588	0.0149789
832.666	0.0150189
832.744	0.0148338
832.822	0.0148701
832.901	0.0148540
832.979	0.0147774
833.057	0.0147377
833.135	0.0147633
833.213	0.0146062
833.291	0.0145255
833.369	0.0145045
833.447	0.0145885
833.526	0.0146064
833.604	0.0144856
833.682	0.0145706
833.760	0.0145051
833.838	0.0146719
833.916	0.0147360
833.994	0.0147462
834.072	0.0147378
834.151	0.0147421
834.229	0.0146924
834.307	0.0147827
834.385	0.0145978
834.463	0.0147710
834.541	0.0148756
834.619	0.0146325
834.697	0.0147649
834.776	0.0147184
834.854	0.0148637
834.932	0.0146728
835.010	0.0147276
835.088	0.0148016
835.166	0.0147645
835.244	0.0147940
835.322	0.0147626
835.401	0.0148237
835.479	0.0148542
835.557	0.0148627
835.635	0.0148026
835.713	0.0147451
835.791	0.0148288
835.869	0.0149041
835.947	0.0147800
836.026	0.0149334
836.104	0.0149749
836.182	0.0150916
836.260	0.0149651
836.338	0.0147712
836.416	0.0149198
836.494	0.0148688
836.572	0.0148727
836.651	0.0149165
836.729	0.0147585
836.807	0.0149551
836.885	0.0149949
836.963	0.0149194
837.041	0.0149510
837.119	0.0150569
837.197	0.0149496
837.276	0.0148301
837.354	0.0150202
837.432	0.0149101
837.510	0.0149667
837.588	0.0149267
837.666	0.0149083
837.744	0.0150645
837.822	0.0147601
837.901	0.0148943
837.979	0.0148639
838.057	0.0147869
838.135	0.0148111
838.213	0.0149138
838.291	0.0147469
838.369	0.0147373
838.447	0.0148125
838.526	0.0147121
838.604	0.0147121
838.682	0.0147633
838.760	0.0147732
838.838	0.0147863
838.916	0.0148225
838.994	0.0149648
839.072	0.0148463
839.151	0.0148793
839.229	0.0148557
839.307	0.0148768
839.385	0.0148520
839.463	0.0149418
839.541	0.0150120
839.619	0.0149754
839.697	0.0149099
839.776	0.0147449
839.854	0.0149869
839.932	0.0149004
840.010	0.0148426
840.088	0.0147394
840.166	0.0147371
840.244	0.0146986
840.322	0.0147855
840.401	0.0146685
840.479	0.0147011
840.557	0.0146172
840.635	0.0146259
840.713	0.0147613
840.791	0.0148121
840.869	0.0146825
840.947	0.0147360
841.026	0.0147041
841.104	0.0146398
841.182	0.0145051
841.260	0.0146603
841.338	0.0146526
841.416	0.0146505
841.494	0.0146879
841.572	0.0148126
841.651	0.0146486
841.729	0.0148459
841.807	0.0148167
841.885	0.0147330
841.963	0.0148260
842.041	0.0147361
842.119	0.0147276
842.197	0.0149522
842.276	0.0148365
842.354	0.0148347
842.432	0.0149239
842.510	0.0149577
842.588	0.0149720
842.666	0.0148710
842.744	0.0148473
842.822	0.0150356
842.901	0.0148985
842.979	0.0149049
843.057	0.0147897
843.135	0.0148599
843.213	0.0149004
843.291	0.0149622
843.369	0.0149634
843.447	0.0149317
843.526	0.0150078
843.604	0.0149846
843.682	0.0149414
843.760	0.0149411
843.838	0.0149375
843.916	0.0149660
843.994	0.0150067
844.072	0.0149582
844.151	0.0150897
844.229	0.0150967
844.307	0.0149621
844.385	0.0150049
844.463	0.0148624
844.541	0.0148948
844.619	0.0147132
844.697	0.0148697
844.776	0.0147911
844.854	0.0148145
844.932	0.0148994
845.010	0.0148501
845.088	0.0147448
845.166	0.0148350
845.244	0.0148187
845.322	0.0147858
845.401	0.0148566
845.479	0.0148694
845.557	0.0149120
845.635	0.0149174
845.713	0.0148379
845.791	0.0149516
845.869	0.0150990
845.947	0.0149048
846.026	0.0148898
846.104	0.0148605
846.182	0.0150101
846.260	0.0148505
846.338	0.0148446
846.416	0.0147765
846.494	0.0147677
846.572	0.0148524
846.651	0.0147620
846.729	0.0148885
846.807	0.0149178
846.885	0.0147163
846.963	0.0147288
847.041	0.0147349
847.119	0.0147693
847.197	0.0147143
847.276	0.0147562
847.354	0.0146818
847.432	0.0146275
847.510	0.0147435
847.588	0.0148170
847.666	0.0147744
847.744	0.0146556
847.822	0.0147902
847.901	0.0148659
847.979	0.0148024
848.057	0.0149200
848.135	0.0148923
848.213	0.0149077
848.291	0.0147900
848.369	0.0148948
848.447	0.0148742
848.526	0.0148117
848.604	0.0149344
848.682	0.0149099
848.760	0.0149213
848.838	0.0148286
848.916	0.0147775
848.994	0.0148690
849.072	0.0148863
849.151	0.0149081
849.229	0.0148491
849.307	0.0148392
849.385	0.0148069
849.463	0.0148008
849.541	0.0149205
849.619	0.0149410
849.697	0.0148959
849.776	0.0148882
849.854	0.0148206
849.932	0.0149323
850.010	0.0149369
850.088	0.0149651
850.166	0.0148221
850.244	0.0149607
850.322	0.0150012
850.401	0.0148597
850.479	0.0149483
850.557	0.0149033
850.635	0.0147901
850.713	0.0147805
850.791	0.0146896
850.869	0.0148627
850.947	0.0148514
851.026	0.0148559
851.104	0.0148399
851.182	0.0147704
851.260	0.0148086
851.338	0.0149721
851.416	0.0148284
851.494	0.0147998
851.572	0.0148766
851.651	0.0148675
851.729	0.0148907
851.807	0.0148696
851.885	0.0149033
851.963	0.0148511
852.041	0.0148359
852.119	0.0149072
852.197	0.0149238
852.276	0.0149702
852.354	0.0148604
852.432	0.0148062
852.510	0.0150011
852.588	0.0147462
852.666	0.0148659
852.744	0.0147576
852.822	0.0147832
852.901	0.0148567
852.979	0.0149134
853.057	0.0149134
853.135	0.0147769
853.213	0.0148681
853.291	0.0149220
853.369	0.0149006
853.447	0.0148453
853.526	0.0148580
853.604	0.0147077
853.682	0.0148996
853.760	0.0148621
853.838	0.0148375
853.916	0.0148162
853.994	0.0149752
854.072	0.0147765
854.151	0.0146904
854.229	0.0148522
854.307	0.0148411
854.385	0.0147251
854.463	0.0148116
854.541	0.0149462
854.619	0.0149287
854.697	0.0149381
854.776	0.0147327
854.854	0.0148650
854.932	0.0147815
855.010	0.0147576
855.088	0.0147661
855.166	0.0148944
855.244	0.0147699
855.322	0.0148985
855.401	0.0148595
855.479	0.0149493
855.557	0.0148579
855.635	0.0146638
855.713	0.0148171
855.791	0.0149415
855.869	0.0149349
855.947	0.0148055
856.026	0.0149371
856.104	0.0149229
856.182	0.0148076
856.260	0.0147700
856.338	0.0148814
856.416	0.0148608
856.494	0.0148814
856.572	0.0149191
856.651	0.0148819
856.729	0.0148609
856.807	0.0149586
856.885	0.0150826
856.963	0.0148386
857.041	0.0147578
857.119	0.0148679
857.197	0.0149064
857.276	0.0148942
857.354	0.0147689
857.432	0.0149231
857.510	0.0148671
857.588	0.0148306
857.666	0.0148369
857.744	0.0147246
857.822	0.0148882
857.901	0.0148764
857.979	0.0148087
858.057	0.0148145
858.135	0.0148952
858.213	0.0148538
858.291	0.0147196
858.369	0.0147233
858.447	0.0148306
858.526	0.0150555
858.604	0.0149503
858.682	0.0149376
858.760	0.0149773
858.838	0.0150081
858.916	0.0151600
858.994	0.0149958
859.072	0.0149993
859.151	0.0149409
859.229	0.0150376
859.307	0.0149500
859.385	0.0151828
859.463	0.0151932
859.541	0.0149531
859.619	0.0150314
859.697	0.0149802
859.776	0.0150336
859.854	0.0149426
859.932	0.0150148
860.010	0.0149673
860.088	0.0147436
860.166	0.0148455
860.244	0.0148575
860.322	0.0147669
860.401	0.0149314
860.479	0.0148257
860.557	0.0148084
860.635	0.0148541
860.713	0.0148865
860.791	0.0148959
860.869	0.0150182
860.947	0.0149079
861.026	0.0148437
861.104	0.0148568
861.182	0.0148541
861.260	0.0148557
861.338	0.0148822
861.416	0.0148670
861.494	0.0148296
861.572	0.0147813
861.651	0.0147954
861.729	0.0148744
861.807	0.0148828
861.885	0.0148984
861.963	0.0149580
862.041	0.0148514
862.119	0.0147652
862.197	0.0148135
862.276	0.0149424
862.354	0.0148313
862.432	0.0148135
862.510	0.0148989
862.588	0.0148666
862.666	0.0148724
862.744	0.0149642
862.822	0.0149030
862.901	0.0149115
862.979	0.0147878
863.057	0.0147494
863.135	0.0147886
863.213	0.0148527
863.291	0.0148373
863.369	0.0150291
863.447	0.0148558
863.526	0.0147411
863.604	0.0148339
863.682	0.0148516
863.760	0.0147625
863.838	0.0147671
863.916	0.0148347
863.994	0.0147629
864.072	0.0147227
864.151	0.0147771
864.229	0.0147115
864.307	0.0148425
864.385	0.0148090
864.463	0.0147543
864.541	0.0147973
864.619	0.0148640
864.697	0.0146535
864.776	0.0147417
864.854	0.0146437
864.932	0.0145740
865.010	0.0146267
865.088	0.0147289
865.166	0.0147031
865.244	0.0148693
865.322	0.0147313
865.401	0.0148316
865.479	0.0148070
865.557	0.0149073
865.635	0.0149529
865.713	0.0151463
865.791	0.0152064
865.869	0.0151388
865.947	0.0151581
866.026	0.0151580
866.104	0.0150033
866.182	0.0151189
866.260	0.0151415
866.338	0.0149586
866.416	0.0149454
866.494	0.0148023
866.572	0.0146821
866.651	0.0147856
866.729	0.0147543
866.807	0.0145676
866.885	0.0147028
866.963	0.0145433
867.041	0.0145636
867.119	0.0145461
867.197	0.0146644
867.276	0.0148480
867.354	0.0146814
867.432	0.0148928
867.510	0.0149792
867.588	0.0148938
867.666	0.0149249
867.744	0.0149601
867.822	0.0151288
867.901	0.0150262
867.979	0.0148785
868.057	0.0149231
868.135	0.0150303
868.213	0.0149632
868.291	0.0150677
868.369	0.0149655
868.447	0.0149142
868.526	0.0149552
868.604	0.0148208
868.682	0.0148686
868.760	0.0148183
868.838	0.0147359
868.916	0.0148587
868.994	0.0148001
869.072	0.0145676
869.151	0.0148908
869.229	0.0148144
869.307	0.0148460
869.385	0.0148741
869.463	0.0147677
869.541	0.0146620
869.619	0.0147943
869.697	0.0149005
869.776	0.0147871
869.854	0.0147354
869.932	0.0147871
870.010	0.0147720
870.088	0.0147399
870.166	0.0147198
870.244	0.0148659
870.322	0.0148552
870.401	0.0148439
870.479	0.0147453
870.557	0.0147008
870.635	0.0148908
870.713	0.0148747
870.791	0.0148353
870.869	0.0147877
870.947	0.0147498
871.026	0.0148852
871.104	0.0148730
871.182	0.0147870
871.260	0.0149699
871.338	0.0148924
871.416	0.0148685
871.494	0.0149963
871.572	0.0148330
871.651	0.0149191
871.729	0.0147807
871.807	0.0148282
871.885	0.0151147
871.963	0.0149877
872.041	0.0149574
872.119	0.0148682
872.197	0.0149234
872.276	0.0149408
872.354	0.0150063
872.432	0.0149230
872.510	0.0149623
872.588	0.0149937
872.666	0.0149555
872.744	0.0149712
872.822	0.0150318
872.901	0.0149144
872.979	0.0150268
873.057	0.0149255
873.135	0.0149958
873.213	0.0149094
873.291	0.0148579
873.369	0.0148412
873.447	0.0149150
873.526	0.0149451
873.604	0.0148624
873.682	0.0148634
873.760	0.0147646
873.838	0.0148022
873.916	0.0147231
873.994	0.0148270
874.072	0.0146679
874.151	0.0146637
874.229	0.0147257
874.307	0.0148546
874.385	0.0147668
874.463	0.0148639
874.541	0.0149345
874.619	0.0148401
874.697	0.0148515
874.776	0.0147491
874.854	0.0149470
874.932	0.0149773
875.010	0.0148677
875.088	0.0149672
875.166	0.0149430
875.244	0.0148978
875.322	0.0148390
875.401	0.0148628
875.479	0.0149808
875.557	0.0149915
875.635	0.0148810
875.713	0.0148943
875.791	0.0147660
875.869	0.0149006
875.947	0.0148058
876.026	0.0148541
876.104	0.0147903
876.182	0.0149525
876.260	0.0149257
876.338	0.0148192
876.416	0.0148076
876.494	0.0149677
876.572	0.0149939
876.651	0.0149250
876.729	0.0148655
876.807	0.0148414
876.885	0.0149502
876.963	0.0148733
877.041	0.0148126
877.119	0.0149010
877.197	0.0148177
877.276	0.0150599
877.354	0.0148068
877.432	0.0148203
877.510	0.0148210
877.588	0.0148203
877.666	0.0147896
877.744	0.0148685
877.822	0.0148435
877.901	0.0148428
877.979	0.0148363
878.057	0.0148119
878.135	0.0147739
878.213	0.0147658
878.291	0.0147314
878.369	0.0146638
878.447	0.0148539
878.526	0.0147852
878.604	0.0147330
878.682	0.0147651
878.760	0.0146833
878.838	0.0145206
878.916	0.0146563
878.994	0.0148997
879.072	0.0147942
879.151	0.0147344
879.229	0.0147998
879.307	0.0148520
879.385	0.0149020
879.463	0.0149398
879.541	0.0149126
879.619	0.0149088
879.697	0.0150429
879.776	0.0150372
879.854	0.0149106
879.932	0.0148293
880.010	0.0148890
880.088	0.0149129
880.166	0.0147489
880.244	0.0149000
880.322	0.0149927
880.401	0.0150050
880.479	0.0147772
880.557	0.0148315
880.635	0.0148526
880.713	0.0147987
880.791	0.0149199
880.869	0.0149139
880.947	0.0149570
881.026	0.0148323
881.104	0.0148858
881.182	0.0150179
881.260	0.0150648
881.338	0.0148201
881.416	0.0148887
881.494	0.0149930
881.572	0.0150311
881.651	0.0148824
881.729	0.0149506
881.807	0.0149857
881.885	0.0150552
881.963	0.0149915
882.041	0.0149593
882.119	0.0151406
882.197	0.0151783
882.276	0.0149656
882.354	0.0149283
882.432	0.0150253
882.510	0.0150062
882.588	0.0147288
882.666	0.0148352
882.744	0.0149114
882.822	0.0148266
882.901	0.0149426
882.979	0.0150993
883.057	0.0149990
883.135	0.0148605
883.213	0.0149095
883.291	0.0149517
883.369	0.0149392
883.447	0.0150375
883.526	0.0149244
883.604	0.0149173
883.682	0.0149103
883.760	0.0148595
883.838	0.0148299
883.916	0.0148550
883.994	0.0149062
884.072	0.0148475
884.151	0.0147729
884.229	0.0149216
884.307	0.0148109
884.385	0.0147623
884.463	0.0148962
884.541	0.0148333
884.619	0.0149036
884.697	0.0148657
884.776	0.0147368
884.854	0.0148158
884.932	0.0148264
885.010	0.0148680
885.088	0.0148766
885.166	0.0148692
885.244	0.0147643
885.322	0.0148151
885.401	0.0146915
885.479	0.0147354
885.557	0.0147338
885.635	0.0147305
885.713	0.0146821
885.791	0.0146712
885.869	0.0146864
885.947	0.0147334
886.026	0.0148441
886.104	0.0146589
886.182	0.0148235
886.260	0.0147339
886.338	0.0147663
886.416	0.0147923
886.494	0.0147643
886.572	0.0147776
886.651	0.0148872
886.729	0.0147906
886.807	0.0147260
886.885	0.0149168
886.963	0.0149685
887.041	0.0149850
887.119	0.0148238
887.197	0.0148886
887.276	0.0149243
887.354	0.0148328
887.432	0.0147474
887.510	0.0148204
887.588	0.0148657
887.666	0.0147260
887.744	0.0149397
887.822	0.0148985
887.901	0.0148645
887.979	0.0149232
888.057	0.0150050
888.135	0.0148667
888.213	0.0149176
888.291	0.0149409
888.369	0.0149207
888.447	0.0148662
888.526	0.0149940
888.604	0.0149678
888.682	0.0149817
888.760	0.0148921
888.838	0.0149916
888.916	0.0149008
888.994	0.0150249
889.072	0.0150208
889.151	0.0149026
889.229	0.0150115
889.307	0.0150483
889.385	0.0149973
889.463	0.0151017
889.541	0.0149625
889.619	0.0150066
889.697	0.0148795
889.776	0.0150445
889.854	0.0150028
889.932	0.0150235
890.010	0.0148624
890.088	0.0147578
890.166	0.0147660
890.244	0.0147653
890.322	0.0147423
890.401	0.0148820
890.479	0.0149082
890.557	0.0149116
890.635	0.0148199
890.713	0.0148151
890.791	0.0148083
890.869	0.0148930
890.947	0.0147279
891.026	0.0148784
891.104	0.0147818
891.182	0.0147504
891.260	0.0148730
891.338	0.0149188
891.416	0.0146626
891.494	0.0149482
891.572	0.0148409
891.651	0.0147001
891.729	0.0146889
891.807	0.0148577
891.885	0.0148397
891.963	0.0147672
892.041	0.0148443
892.119	0.0148041
892.197	0.0148880
892.276	0.0146698
892.354	0.0147178
892.432	0.0147478
892.510	0.0147697
892.588	0.0148528
892.666	0.0149126
892.744	0.0149268
892.822	0.0147879
892.901	0.0147851
892.979	0.0147193
893.057	0.0147374
893.135	0.0149380
893.213	0.0148180
893.291	0.0148170
893.369	0.0150571
893.447	0.0148525
893.526	0.0147980
893.604	0.0149589
893.682	0.0149391
893.760	0.0148646
893.838	0.0147440
893.916	0.0149649
893.994	0.0148479
894.072	0.0148524
894.151	0.0148106
894.229	0.0147459
894.307	0.0148501
894.385	0.0149190
894.463	0.0149095
894.541	0.0148914
894.619	0.0149680
894.697	0.0148958
894.776	0.0149736
894.854	0.0148013
894.932	0.0149177
895.010	0.0147755
895.088	0.0147329
895.166	0.0148411
895.244	0.0147876
895.322	0.0148503
895.401	0.0148468
895.479	0.0147775
895.557	0.0147368
895.635	0.0149113
895.713	0.0149250
895.791	0.0148135
895.869	0.0147805
895.947	0.0146948
896.026	0.0149365
896.104	0.0147604
896.182	0.0148387
896.260	0.0149483
896.338	0.0149269
896.416	0.0148207
896.494	0.0149514
896.572	0.0148814
896.651	0.0148694
896.729	0.0147945
896.807	0.0148217
896.885	0.0148466
896.963	0.0149138
897.041	0.0147863
897.119	0.0149313
897.197	0.0148100
897.276	0.0147808
897.354	0.0149133
897.432	0.0148745
897.510	0.0149041
897.588	0.0149889
897.666	0.0147247
897.744	0.0148768
897.822	0.0149593
897.901	0.0149504
897.979	0.0148203
898.057	0.0148193
898.135	0.0147984
898.213	0.0148686
898.291	0.0146881
898.369	0.0146362
898.447	0.0146908
898.526	0.0148929
898.604	0.0148141
898.682	0.0147636
898.760	0.0147549
898.838	0.0149229
898.916	0.0147498
898.994	0.0148587
899.072	0.0149042
899.151	0.0147674
899.229	0.0150111
899.307	0.0148713
899.385	0.0147764
899.463	0.0148180
899.541	0.0148106
899.619	0.0147443
899.697	0.0148788
899.776	0.0148569
899.854	0.0148383
899.932	0.0147968
900.010	0.0148476
900.088	0.0148582
900.166	0.0149437
900.244	0.0150175
900.322	0.0149445
900.401	0.0149232
900.479	0.0149614
900.557	0.0147980
900.635	0.0148660
900.713	0.0149060
900.791	0.0147330
900.869	0.0148928
900.947	0.0148138
901.026	0.0148162
901.104	0.0148896
901.182	0.0147356
901.260	0.0147890
901.338	0.0147820
901.416	0.0147432
901.494	0.0146977
901.572	0.0147868
901.651	0.0147939
901.729	0.0148232
901.807	0.0148627
901.885	0.0147514
901.963	0.0148537
902.041	0.0146646
902.119	0.0147085
902.197	0.0147135
902.276	0.0147506
902.354	0.0148351
902.432	0.0149082
902.510	0.0148572
902.588	0.0148662
902.666	0.0149027
902.744	0.0148891
902.822	0.0150283
902.901	0.0147917
902.979	0.0150138
903.057	0.0150365
903.135	0.0148573
903.213	0.0148560
903.291	0.0150150
903.369	0.0149063
903.447	0.0150801
903.526	0.0149999
903.604	0.0150085
903.682	0.0149917
903.760	0.0150117
903.838	0.0149271
903.916	0.0150339
903.994	0.0149436
904.072	0.0149003
904.151	0.0149317
904.229	0.0148285
904.307	0.0149282
904.385	0.0149659
904.463	0.0148270
904.541	0.0148702
904.619	0.0147870
904.697	0.0147440
904.776	0.0149345
904.854	0.0149535
904.932	0.0147897
905.010	0.0147651
905.088	0.0146768
905.166	0.0147830
905.244	0.0146930
905.322	0.0148527
905.401	0.0147775
905.479	0.0145607
905.557	0.0146568
905.635	0.0147089
905.713	0.0146321
905.791	0.0145931
905.869	0.0145246
905.947	0.0146143
906.026	0.0147595
906.104	0.0149493
906.182	0.0149412
906.260	0.0149148
906.338	0.0148017
906.416	0.0148925
906.494	0.0149523
906.572	0.0150817
906.651	0.0148520
906.729	0.0149219
906.807	0.0149109
906.885	0.0149659
906.963	0.0149496
907.041	0.0148031
907.119	0.0149451
907.197	0.0149465
907.276	0.0150049
907.354	0.0149036
907.432	0.0150724
907.510	0.0149775
907.588	0.0148713
907.666	0.0149596
907.744	0.0150081
907.822	0.0150105
907.901	0.0149798
907.979	0.0149320
908.057	0.0148982
908.135	0.0148827
908.213	0.0149511
908.291	0.0150160
908.369	0.0150812
908.447	0.0148332
908.526	0.0149303
908.604	0.0148130
908.682	0.0147907
908.760	0.0147180
908.838	0.0147499
908.916	0.0148301
908.994	0.0147638
909.072	0.0147441
909.151	0.0147153
909.229	0.0146133
909.307	0.0146268
909.385	0.0146094
909.463	0.0145649
909.541	0.0145995
909.619	0.0145936
909.697	0.0145970
909.776	0.0146061
909.854	0.0145855
909.932	0.0145937
910.010	0.0145774
910.088	0.0145980
910.166	0.0146979
910.244	0.0147636
910.322	0.0147256
910.401	0.0147311
910.479	0.0149068
910.557	0.0148852
910.635	0.0149014
910.713	0.0148918
910.791	0.0151569
910.869	0.0150739
910.947	0.0151022
911.026	0.0150594
911.104	0.0149619
911.182	0.0150390
911.260	0.0150922
911.338	0.0151219
911.416	0.0151344
911.494	0.0151235
911.572	0.0150540
911.651	0.0151337
911.729	0.0150124
911.807	0.0149261
911.885	0.0148989
911.963	0.0149645
912.041	0.0147831
912.119	0.0148877
912.197	0.0148729
912.276	0.0148262
912.354	0.0147409
912.432	0.0146920
912.510	0.0146043
912.588	0.0146565
912.666	0.0146140
912.744	0.0144168
912.822	0.0145133
912.901	0.0146372
912.979	0.0145962
913.057	0.0146216
913.135	0.0147290
913.213	0.0145602
913.291	0.0146347
913.369	0.0147868
913.447	0.0147001
913.526	0.0146918
913.604	0.0147572
913.682	0.0147642
913.760	0.0148820
913.838	0.0148979
913.916	0.0148547
913.994	0.0148589
914.072	0.0149088
914.151	0.0150539
914.229	0.0149744
914.307	0.0148984
914.385	0.0150268
914.463	0.0150554
914.541	0.0150504
914.619	0.0148266
914.697	0.0150288
914.776	0.0150507
914.854	0.0150026
914.932	0.0150152
915.010	0.0148950
915.088	0.0149770
915.166	0.0147335
915.244	0.0149175
915.322	0.0149529
915.401	0.0149575
915.479	0.0147699
915.557	0.0148320
915.635	0.0149823
915.713	0.0149918
915.791	0.0149187
915.869	0.0150438
915.947	0.0150942
916.026	0.0148624
916.104	0.0148281
916.182	0.0148225
916.260	0.0148131
916.338	0.0147837
916.416	0.0146025
916.494	0.0146799
916.572	0.0147354
916.651	0.0146333
916.729	0.0146513
916.807	0.0147329
916.885	0.0147034
916.963	0.0145551
917.041	0.0145614
917.119	0.0147312
917.197	0.0147478
917.276	0.0145800
917.354	0.0145837
917.432	0.0147807
917.510	0.0146480
917.588	0.0147002
917.666	0.0145751
917.744	0.0146976
917.822	0.0147231
917.901	0.0146561
917.979	0.0147338
918.057	0.0147291
918.135	0.0147841
918.213	0.0148356
918.291	0.0148347
918.369	0.0147573
918.447	0.0149236
918.526	0.0148228
918.604	0.0150072
918.682	0.0149002
918.760	0.0150369
918.838	0.0150711
918.916	0.0148880
918.994	0.0149786
919.072	0.0150684
919.151	0.0150867
919.229	0.0149130
919.307	0.0148829
919.385	0.0148792
919.463	0.0150493
919.541	0.0149582
919.619	0.0149595
919.697	0.0149823
919.776	0.0150946
919.854	0.0150782
919.932	0.0149546
920.010	0.0150094
920.088	0.0150665
920.166	0.0150199
920.244	0.0151112
920.322	0.0150101
920.401	0.0149694
920.479	0.0150450
920.557	0.0149902
920.635	0.0148849
920.713	0.0147974
920.791	0.0148702
920.869	0.0149370
920.947	0.0149361
921.026	0.0149229
921.104	0.0147401
921.182	0.0147536
921.260	0.0148148
921.338	0.0148062
921.416	0.0145952
921.494	0.0147380
921.572	0.0146899
921.651	0.0147643
921.729	0.0147190
921.807	0.0147879
921.885	0.0146523
921.963	0.0147044
922.041	0.0145707
922.119	0.0145772
922.197	0.0145316
922.276	0.0146972
922.354	0.0146645
922.432	0.0146259
922.510	0.0146644
922.588	0.0145551
922.666	0.0144891
922.744	0.0146989
922.822	0.0146920
922.901	0.0146175
922.979	0.0147607
923.057	0.0147554
923.135	0.0147460
923.213	0.0148922
923.291	0.0148181
923.369	0.0147770
923.447	0.0150524
923.526	0.0151231
923.604	0.0149149
923.682	0.0150090
923.760	0.0149960
923.838	0.0149194
923.916	0.0149719
923.994	0.0149582
924.072	0.0148622
924.151	0.0149096
924.229	0.0148170
924.307	0.0148450
924.385	0.0147696
924.463	0.0148832
924.541	0.0147446
924.619	0.0147723
924.697	0.0148067
924.776	0.0148427
924.854	0.0148116
924.932	0.0148646
925.010	0.0149072
925.088	0.0149943
925.166	0.0150008
925.244	0.0149909
925.322	0.0151887
925.401	0.0152859
925.479	0.0151620
925.557	0.0150463
925.635	0.0149919
925.713	0.0150940
925.791	0.0149231
925.869	0.0151029
925.947	0.0149606
926.026	0.0149094
926.104	0.0148580
926.182	0.0149020
926.260	0.0148165
926.338	0.0147856
926.416	0.0147672
926.494	0.0148397
926.572	0.0147808
926.651	0.0147009
926.729	0.0147552
926.807	0.0149054
926.885	0.0147458
926.963	0.0146970
927.041	0.0146805
927.119	0.0147401
927.197	0.0145676
927.276	0.0147004
927.354	0.0148257
927.432	0.0147773
927.510	0.0147044
927.588	0.0148796
927.666	0.0147173
927.744	0.0147416
927.822	0.0148495
927.901	0.0149271
927.979	0.0148285
928.057	0.0147617
928.135	0.0149391
928.213	0.0148212
928.291	0.0149430
928.369	0.0149976
928.447	0.0148854
928.526	0.0150066
928.604	0.0149764
928.682	0.0148141
928.760	0.0149357
928.838	0.0149842
928.916	0.0149590
928.994	0.0149168
929.072	0.0148922
929.151	0.0148789
929.229	0.0149751
929.307	0.0149385
929.385	0.0148188
929.463	0.0149934
929.541	0.0149314
929.619	0.0147969
929.697	0.0150186
929.776	0.0148389
929.854	0.0147980
929.932	0.0146996
930.010	0.0147160
930.088	0.0147540
930.166	0.0147475
930.244	0.0147688
930.322	0.0147449
930.401	0.0148477
930.479	0.0147880
930.557	0.0149399
930.635	0.0147874
930.713	0.0147653
930.791	0.0148765
930.869	0.0148594
930.947	0.0148270
931.026	0.0147863
931.104	0.0147569
931.182	0.0148613
931.260	0.0149052
931.338	0.0149432
931.416	0.0148910
931.494	0.0147812
931.572	0.0147499
931.651	0.0147842
931.729	0.0148394
931.807	0.0148666
931.885	0.0148615
931.963	0.0148325
932.041	0.0149555
932.119	0.0150021
932.197	0.0150137
932.276	0.0147519
932.354	0.0148751
932.432	0.0147610
932.510	0.0149162
932.588	0.0148891
932.666	0.0149818
932.744	0.0149533
932.822	0.0148531
932.901	0.0148796
932.979	0.0149387
933.057	0.0149364
933.135	0.0149464
933.213	0.0148478
933.291	0.0148841
933.369	0.0148273
933.447	0.0149659
933.526	0.0148795
933.604	0.0148555
933.682	0.0149168
933.760	0.0148464
933.838	0.0148158
933.916	0.0148463
933.994	0.0148648
934.072	0.0148423
934.151	0.0148472
934.229	0.0148074
934.307	0.0149496
934.385	0.0148182
934.463	0.0147681
934.541	0.0148076
934.619	0.0148902
934.697	0.0147179
934.776	0.0148032
934.854	0.0147516
934.932	0.0148705
935.010	0.0148042
935.088	0.0147145
935.166	0.0147514
935.244	0.0147820
935.322	0.0148017
935.401	0.0146890
935.479	0.0147742
935.557	0.0148589
935.635	0.0147553
935.713	0.0148829
935.791	0.0148843
935.869	0.0148147
935.947	0.0148911
936.026	0.0148778
936.104	0.0149185
936.182	0.0149464
936.260	0.0150843
936.338	0.0149186
936.416	0.0150304
936.494	0.0149310
936.572	0.0149515
936.651	0.0147641
936.729	0.0148177
936.807	0.0150807
936.885	0.0149660
936.963	0.0147264
937.041	0.0147322
937.119	0.0148547
937.197	0.0146840
937.276	0.0146368
937.354	0.0145859
937.432	0.0147948
937.510	0.0147226
937.588	0.0147290
937.666	0.0147215
937.744	0.0148420
937.822	0.0147381
937.901	0.0146342
937.979	0.0147284
938.057	0.0148218
938.135	0.0148617
938.213	0.0148997
938.291	0.0147482
938.369	0.0148478
938.447	0.0148607
938.526	0.0147421
938.604	0.0146718
938.682	0.0147748
938.760	0.0147527
938.838	0.0148901
938.916	0.0147177
938.994	0.0148995
939.072	0.0148425
939.151	0.0148879
939.229	0.0148632
939.307	0.0148354
939.385	0.0148151
939.463	0.0148756
939.541	0.0148601
939.619	0.0147159
939.697	0.0149211
939.776	0.0149599
939.854	0.0150459
939.932	0.0149400
940.010	0.0149323
940.088	0.0149409
940.166	0.0150201
940.244	0.0148804
940.322	0.0149001
940.401	0.0148981
940.479	0.0148175
940.557	0.0147874
940.635	0.0148887
940.713	0.0147945
940.791	0.0147216
940.869	0.0148043
940.947	0.0146905
941.026	0.0148418
941.104	0.0147105
941.182	0.0148028
941.260	0.0148335
941.338	0.0148709
941.416	0.0149297
941.494	0.0149245
941.572	0.0150445
941.651	0.0149258
941.729	0.0152343
941.807	0.0149170
941.885	0.0150898
941.963	0.0150012
942.041	0.0150247
942.119	0.0150304
942.197	0.0151023
942.276	0.0150082
942.354	0.0149828
942.432	0.0147810
942.510	0.0149252
942.588	0.0148540
942.666	0.0148289
942.744	0.0147775
942.822	0.0148911
942.901	0.0147254
942.979	0.0147652
943.057	0.0149084
943.135	0.0148428
943.213	0.0148863
943.291	0.0148785
943.369	0.0148466
943.447	0.0147438
943.526	0.0148616
943.604	0.0148144
943.682	0.0148272
943.760	0.0147321
943.838	0.0147813
943.916	0.0148154
943.994	0.0146877
944.072	0.0146786
944.151	0.0147756
944.229	0.0147093
944.307	0.0147702
944.385	0.0148633
944.463	0.0148589
944.541	0.0148883
944.619	0.0149512
944.697	0.0147279
944.776	0.0148180
944.854	0.0149229
944.932	0.0150921
945.010	0.0150230
945.088	0.0149751
945.166	0.0150254
945.244	0.0149808
945.322	0.0151213
945.401	0.0149036
945.479	0.0148544
945.557	0.0149223
945.635	0.0148422
945.713	0.0150343
945.791	0.0150180
945.869	0.0147961
945.947	0.0148874
946.026	0.0148074
946.104	0.0148688
946.182	0.0147121
946.260	0.0148064
946.338	0.0149136
946.416	0.0149407
946.494	0.0149093
946.572	0.0149933
946.651	0.0149424
946.729	0.0149414
946.807	0.0150014
946.885	0.0151717
946.963	0.0151167
947.041	0.0151549
947.119	0.0150494
947.197	0.0150002
947.276	0.0149103
947.354	0.0149986
947.432	0.0147990
947.510	0.0148170
947.588	0.0146098
947.666	0.0144532
947.744	0.0146262
947.822	0.0145988
947.901	0.0146513
947.979	0.0147364
948.057	0.0147661
948.135	0.0147515
948.213	0.0148460
948.291	0.0150642
948.369	0.0152103
948.447	0.0152644
948.526	0.0151313
948.604	0.0153128
948.682	0.0154472
948.760	0.0153098
948.838	0.0151227
948.916	0.0150756
948.994	0.0150263
949.072	0.0149578
949.151	0.0146802
949.229	0.0147086
949.307	0.0146096
949.385	0.0145692
949.463	0.0145338
949.541	0.0145004
949.619	0.0145071
949.697	0.0146507
949.776	0.0147179
949.854	0.0147286
949.932	0.0146751
950.010	0.0148244
950.088	0.0148269
950.166	0.0149467
950.244	0.0151112
950.322	0.0150396
950.401	0.0150877
950.479	0.0150172
950.557	0.0152541
950.635	0.0150594
950.713	0.0150920
950.791	0.0150606
950.869	0.0148830
950.947	0.0149323
951.026	0.0149050
951.104	0.0149203
951.182	0.0149312
951.260	0.0148463
951.338	0.0148188
951.416	0.0148908
951.494	0.0148955
951.572	0.0148063
951.651	0.0147616
951.729	0.0148504
951.807	0.0148939
951.885	0.0147786
951.963	0.0149194
952.041	0.0149030
952.119	0.0150085
952.197	0.0149291
952.276	0.0149186
952.354	0.0150186
952.432	0.0150468
952.510	0.0151140
952.588	0.0150032
952.666	0.0147886
952.744	0.0148121
952.822	0.0147910
952.901	0.0147684
952.979	0.0147606
953.057	0.0147404
953.135	0.0145272
953.213	0.0147105
953.291	0.0146095
953.369	0.0146851
953.447	0.0147150
953.526	0.0146255
953.604	0.0147102
953.682	0.0148122
953.760	0.0148092
953.838	0.0147401
953.916	0.0147425
953.994	0.0148798
954.072	0.0148678
954.151	0.0149921
954.229	0.0147945
954.307	0.0147718
954.385	0.0148459
954.463	0.0149780
954.541	0.0148400
954.619	0.0148826
954.697	0.0149123
954.776	0.0150246
954.854	0.0150584
954.932	0.0149040
955.010	0.0148923
955.088	0.0149720
955.166	0.0148232
955.244	0.0150398
955.322	0.0149612
955.401	0.0150651
955.479	0.0150165
955.557	0.0148882
955.635	0.0148434
955.713	0.0149546
955.791	0.0148079
955.869	0.0148168
955.947	0.0148477
956.026	0.0147976
956.104	0.0148311
956.182	0.0148109
956.260	0.0147898
956.338	0.0148640
956.416	0.0147333
956.494	0.0147913
956.572	0.0147856
956.651	0.0148173
956.729	0.0146865
956.807	0.0148756
956.885	0.0147351
956.963	0.0148531
957.041	0.0149203
957.119	0.0149612
957.197	0.0148109
957.276	0.0147315
957.354	0.0147692
957.432	0.0148203
957.510	0.0148035
957.588	0.0147952
957.666	0.0148331
957.744	0.0148226
957.822	0.0148724
957.901	0.0149391
957.979	0.0150116
958.057	0.0148475
958.135	0.0148514
958.213	0.0149440
958.291	0.0149314
958.369	0.0149533
958.447	0.0150658
958.526	0.0150653
958.604	0.0151325
958.682	0.0151928
958.760	0.0151495
958.838	0.0150373
958.916	0.0151003
958.994	0.0149989
959.072	0.0150634
959.151	0.0150803
959.229	0.0149824
959.307	0.0149864
959.385	0.0150284
959.463	0.0151105
959.541	0.0151701
959.619	0.0150577
959.697	0.0149319
959.776	0.0149046
959.854	0.0150772
959.932	0.0151140
960.010	0.0149921
960.088	0.0149615
960.166	0.0150191
960.244	0.0149475
960.322	0.0147787
960.401	0.0147689
960.479	0.0147342
960.557	0.0146941
960.635	0.0147567
960.713	0.0147094
960.791	0.0145660
960.869	0.0145417
960.947	0.0145128
961.026	0.0145308
961.104	0.0147520
961.182	0.0146170
961.260	0.0144675
961.338	0.0145761
961.416	0.0148066
961.494	0.0147190
961.572	0.0147293
961.651	0.0148018
961.729	0.0148100
961.807	0.0147883
961.885	0.0148944
961.963	0.0147942
962.041	0.0149217
962.119	0.0148711
962.197	0.0148856
962.276	0.0149785
962.354	0.0148136
962.432	0.0150451
962.510	0.0151020
962.588	0.0149227
962.666	0.0148952
962.744	0.0148461
962.822	0.0150051
962.901	0.0150095
962.979	0.0150446
963.057	0.0149376
963.135	0.0150691
963.213	0.0149744
963.291	0.0149591
963.369	0.0150735
963.447	0.0151019
963.526	0.0151335
963.604	0.0151102
963.682	0.0150760
963.760	0.0150605
963.838	0.0150275
963.916	0.0151308
963.994	0.0150328
964.072	0.0148562
964.151	0.0149368
964.229	0.0149699
964.307	0.0148317
964.385	0.0149251
964.463	0.0148674
964.541	0.0147845
964.619	0.0147737
964.697	0.0147581
964.776	0.0148048
964.854	0.0147504
964.932	0.0145994
965.010	0.0147642
965.088	0.0147087
965.166	0.0148171
965.244	0.0147476
965.322	0.0147495
965.401	0.0148692
965.479	0.0148745
965.557	0.0148476
965.635	0.0148205
965.713	0.0150172
965.791	0.0148618
965.869	0.0149152
965.947	0.0149303
966.026	0.0149780
966.104	0.0149180
966.182	0.0148221
966.260	0.0149273
966.338	0.0150043
966.416	0.0147887
966.494	0.0146948
966.572	0.0147368
966.651	0.0148360
966.729	0.0146691
966.807	0.0147031
966.885	0.0148467
966.963	0.0146735
967.041	0.0146765
967.119	0.0147607
967.197	0.0148640
967.276	0.0147319
967.354	0.0148585
967.432	0.0148842
967.510	0.0148077
967.588	0.0149088
967.666	0.0148234
967.744	0.0149084
967.822	0.0150477
967.901	0.0149634
967.979	0.0149184
968.057	0.0150180
968.135	0.0150438
968.213	0.0147610
968.291	0.0148544
968.369	0.0147397
968.447	0.0149179
968.526	0.0149590
968.604	0.0148971
968.682	0.0149366
968.760	0.0147784
968.838	0.0148898
968.916	0.0151418
968.994	0.0149672
969.072	0.0149582
969.151	0.0149316
969.229	0.0152470
969.307	0.0149625
969.385	0.0150088
969.463	0.0150844
969.541	0.0149547
969.619	0.0149853
969.697	0.0146954
969.776	0.0148759
969.854	0.0148827
969.932	0.0148380
970.010	0.0148923
970.088	0.0148333
970.166	0.0148923
970.244	0.0147474
970.322	0.0149068
970.401	0.0147740
970.479	0.0148954
970.557	0.0149518
970.635	0.0149376
970.713	0.0151689
970.791	0.0150243
970.869	0.0150471
970.947	0.0149121
971.026	0.0150352
971.104	0.0150414
971.182	0.0149721
971.260	0.0150233
971.338	0.0148907
971.416	0.0149387
971.494	0.0149325
971.572	0.0149736
971.651	0.0147953
971.729	0.0148257
971.807	0.0149721
971.885	0.0148927
971.963	0.0148211
972.041	0.0147828
972.119	0.0149954
972.197	0.0149841
972.276	0.0149795
972.354	0.0149314
972.432	0.0148568
972.510	0.0150331
972.588	0.0149771
972.666	0.0150980
972.744	0.0150532
972.822	0.0150601
972.901	0.0149323
972.979	0.0150884
973.057	0.0151765
973.135	0.0150063
973.213	0.0149583
973.291	0.0147035
973.369	0.0150407
973.447	0.0150656
973.526	0.0150017
973.604	0.0149080
973.682	0.0148429
973.760	0.0149775
973.838	0.0149186
973.916	0.0148586
973.994	0.0148257
974.072	0.0149476
974.151	0.0148376
974.229	0.0148707
974.307	0.0147530
974.385	0.0147501
974.463	0.0147805
974.541	0.0149072
974.619	0.0148325
974.697	0.0147707
974.776	0.0147353
974.854	0.0147729
974.932	0.0148845
975.010	0.0147343
975.088	0.0146475
975.166	0.0148212
975.244	0.0148235
975.322	0.0147942
975.401	0.0148244
975.479	0.0146486
975.557	0.0147139
975.635	0.0147866
975.713	0.0147443
975.791	0.0147879
975.869	0.0149468
975.947	0.0147662
976.026	0.0147393
976.104	0.0147018
976.182	0.0146721
976.260	0.0148004
976.338	0.0148993
976.416	0.0147625
976.494	0.0147085
976.572	0.0148637
976.651	0.0148705
976.729	0.0149014
976.807	0.0148348
976.885	0.0146917
976.963	0.0147210
977.041	0.0148113
977.119	0.0148869
977.197	0.0148866
977.276	0.0147902
977.354	0.0149010
977.432	0.0149127
977.510	0.0148898
977.588	0.0148700
977.666	0.0149850
977.744	0.0150057
977.822	0.0150275
977.901	0.0149803
977.979	0.0150146
978.057	0.0151399
978.135	0.0150665
978.213	0.0150932
978.291	0.0150677
978.369	0.0149418
978.447	0.0149127
978.526	0.0148199
978.604	0.0148415
978.682	0.0149809
978.760	0.0148454
978.838	0.0148733
978.916	0.0148775
978.994	0.0149160
979.072	0.0147157
979.151	0.0148476
979.229	0.0147846
979.307	0.0148906
979.385	0.0147265
979.463	0.0147970
979.541	0.0147926
979.619	0.0147724
979.697	0.0146794
979.776	0.0148222
979.854	0.0147932
979.932	0.0148294
