05/03/2022	20:48:43	Ver.	4.1	UNKNOWN
Optical Delay	660.003261	Delta X		0.078125	Sweeps	1	Scan Rate	0/0
Coordinates	Axis 1	NaN	Axis 2	NaN	Axis 3	NaN	Axis 4	NaN	Axis 5	NaN	Axis 6	0.000000
TX Power	0.000000	RX Power	0.000000

660.003	0.0145044
660.081	0.0143503
660.160	0.0144471
660.238	0.0143840
660.316	0.0144661
660.394	0.0145064
660.472	0.0145807
660.550	0.0144216
660.628	0.0145071
660.706	0.0145182
660.785	0.0144193
660.863	0.0144536
660.941	0.0143647
661.019	0.0144267
661.097	0.0144605
661.175	0.0144501
661.253	0.0144855
661.331	0.0144783
661.410	0.0144604
661.488	0.0145113
661.566	0.0145934
661.644	0.0143937
661.722	0.0144221
661.800	0.0145029
661.878	0.0145701
661.956	0.0144392
662.035	0.0144526
662.113	0.0145611
662.191	0.0145063
662.269	0.0145274
662.347	0.0146626
662.425	0.0146042
662.503	0.0145679
662.581	0.0144820
662.660	0.0145505
662.738	0.0146344
662.816	0.0145205
662.894	0.0144953
662.972	0.0144308
663.050	0.0145472
663.128	0.0145347
663.206	0.0144983
663.285	0.0145437
663.363	0.0144000
663.441	0.0144821
663.519	0.0144138
663.597	0.0145664
663.675	0.0143175
663.753	0.0144195
663.831	0.0144212
663.910	0.0144448
663.988	0.0144238
664.066	0.0144348
664.144	0.0145035
664.222	0.0144679
664.300	0.0145010
664.378	0.0144728
664.456	0.0144864
664.535	0.0144434
664.613	0.0144176
664.691	0.0143574
664.769	0.0144982
664.847	0.0144659
664.925	0.0144791
665.003	0.0144633
665.081	0.0144784
665.160	0.0143633
665.238	0.0144598
665.316	0.0145518
665.394	0.0144669
665.472	0.0142155
665.550	0.0143855
665.628	0.0144765
665.706	0.0144584
665.785	0.0142964
665.863	0.0144329
665.941	0.0143475
666.019	0.0143301
666.097	0.0143090
666.175	0.0143839
666.253	0.0143085
666.331	0.0144138
666.410	0.0143877
666.488	0.0144476
666.566	0.0144038
666.644	0.0144565
666.722	0.0144549
666.800	0.0142608
666.878	0.0143720
666.956	0.0145307
667.035	0.0143673
667.113	0.0143985
667.191	0.0144228
667.269	0.0143261
667.347	0.0144871
667.425	0.0143346
667.503	0.0143623
667.581	0.0143159
667.660	0.0145187
667.738	0.0144598
667.816	0.0144930
667.894	0.0144210
667.972	0.0144173
668.050	0.0143713
668.128	0.0144012
668.206	0.0144730
668.285	0.0144344
668.363	0.0144073
668.441	0.0142599
668.519	0.0145061
668.597	0.0144310
668.675	0.0145639
668.753	0.0143794
668.831	0.0143264
668.910	0.0145203
668.988	0.0144425
669.066	0.0144719
669.144	0.0143706
669.222	0.0143181
669.300	0.0143100
669.378	0.0143451
669.456	0.0143607
669.535	0.0144894
669.613	0.0143732
669.691	0.0143698
669.769	0.0143983
669.847	0.0143036
669.925	0.0144154
670.003	0.0143127
670.081	0.0143372
670.160	0.0144749
670.238	0.0141933
670.316	0.0143642
670.394	0.0145213
670.472	0.0142971
670.550	0.0144077
670.628	0.0143391
670.706	0.0144154
670.785	0.0143603
670.863	0.0143504
670.941	0.0142772
671.019	0.0142471
671.097	0.0143263
671.175	0.0143561
671.253	0.0143867
671.331	0.0143304
671.410	0.0143551
671.488	0.0143356
671.566	0.0143906
671.644	0.0144643
671.722	0.0144604
671.800	0.0145142
671.878	0.0144308
671.956	0.0145009
672.035	0.0144303
672.113	0.0144521
672.191	0.0144140
672.269	0.0144131
672.347	0.0143041
672.425	0.0144811
672.503	0.0145696
672.581	0.0144785
672.660	0.0144905
672.738	0.0144810
672.816	0.0143129
672.894	0.0143824
672.972	0.0144290
673.050	0.0144778
673.128	0.0143915
673.206	0.0144572
673.285	0.0144673
673.363	0.0145525
673.441	0.0143762
673.519	0.0144868
673.597	0.0143178
673.675	0.0145466
673.753	0.0144362
673.831	0.0142667
673.910	0.0143917
673.988	0.0144605
674.066	0.0144957
674.144	0.0143143
674.222	0.0143029
674.300	0.0143894
674.378	0.0144082
674.456	0.0143275
674.535	0.0144134
674.613	0.0143755
674.691	0.0143409
674.769	0.0145363
674.847	0.0143982
674.925	0.0144617
675.003	0.0144621
675.081	0.0144003
675.160	0.0144076
675.238	0.0143334
675.316	0.0144613
675.394	0.0144790
675.472	0.0145432
675.550	0.0144388
675.628	0.0144695
675.706	0.0144522
675.785	0.0145903
675.863	0.0144166
675.941	0.0144727
676.019	0.0144584
676.097	0.0144839
676.175	0.0144894
676.253	0.0145109
676.331	0.0144924
676.410	0.0144250
676.488	0.0146242
676.566	0.0145569
676.644	0.0145171
676.722	0.0144627
676.800	0.0144834
676.878	0.0145583
676.956	0.0144541
677.035	0.0145258
677.113	0.0144587
677.191	0.0144257
677.269	0.0145246
677.347	0.0145011
677.425	0.0144637
677.503	0.0144334
677.581	0.0144079
677.660	0.0144509
677.738	0.0143619
677.816	0.0145178
677.894	0.0145289
677.972	0.0145344
678.050	0.0144650
678.128	0.0143588
678.206	0.0144353
678.285	0.0143777
678.363	0.0144279
678.441	0.0144312
678.519	0.0144090
678.597	0.0145011
678.675	0.0143054
678.753	0.0143936
678.831	0.0142995
678.910	0.0142175
678.988	0.0143608
679.066	0.0142807
679.144	0.0142896
679.222	0.0142823
679.300	0.0143682
679.378	0.0143067
679.456	0.0142542
679.535	0.0143825
679.613	0.0145111
679.691	0.0144206
679.769	0.0144803
679.847	0.0143089
679.925	0.0145055
680.003	0.0144153
680.081	0.0145441
680.160	0.0145192
680.238	0.0145306
680.316	0.0143964
680.394	0.0142788
680.472	0.0143242
680.550	0.0146394
680.628	0.0143906
680.706	0.0143222
680.785	0.0144493
680.863	0.0145766
680.941	0.0144695
681.019	0.0144310
681.097	0.0144822
681.175	0.0145024
681.253	0.0145150
681.331	0.0144678
681.410	0.0143968
681.488	0.0144515
681.566	0.0144534
681.644	0.0145557
681.722	0.0143857
681.800	0.0144769
681.878	0.0143532
681.956	0.0143771
682.035	0.0144193
682.113	0.0144776
682.191	0.0143439
682.269	0.0143200
682.347	0.0143906
682.425	0.0144038
682.503	0.0144739
682.581	0.0144682
682.660	0.0144234
682.738	0.0143499
682.816	0.0145531
682.894	0.0145332
682.972	0.0143513
683.050	0.0144032
683.128	0.0145737
683.206	0.0144783
683.285	0.0144859
683.363	0.0143452
683.441	0.0144421
683.519	0.0145121
683.597	0.0143964
683.675	0.0143340
683.753	0.0143665
683.831	0.0144544
683.910	0.0144160
683.988	0.0145625
684.066	0.0144833
684.144	0.0144174
684.222	0.0143222
684.300	0.0143886
684.378	0.0144112
684.456	0.0144076
684.535	0.0143056
684.613	0.0143542
684.691	0.0143436
684.769	0.0143068
684.847	0.0143304
684.925	0.0143616
685.003	0.0143007
685.081	0.0142421
685.160	0.0143913
685.238	0.0145470
685.316	0.0144404
685.394	0.0143903
685.472	0.0142683
685.550	0.0143467
685.628	0.0143720
685.706	0.0143922
685.785	0.0143909
685.863	0.0144984
685.941	0.0144445
686.019	0.0143882
686.097	0.0145383
686.175	0.0144154
686.253	0.0143139
686.331	0.0145327
686.410	0.0142936
686.488	0.0142854
686.566	0.0142840
686.644	0.0144111
686.722	0.0143159
686.800	0.0143353
686.878	0.0143027
686.956	0.0144902
687.035	0.0143533
687.113	0.0142226
687.191	0.0142851
687.269	0.0143850
687.347	0.0143497
687.425	0.0143825
687.503	0.0143101
687.581	0.0143814
687.660	0.0143981
687.738	0.0145099
687.816	0.0146114
687.894	0.0146188
687.972	0.0145604
688.050	0.0144962
688.128	0.0145526
688.206	0.0144185
688.285	0.0143655
688.363	0.0143948
688.441	0.0144112
688.519	0.0145822
688.597	0.0143252
688.675	0.0143851
688.753	0.0142253
688.831	0.0142683
688.910	0.0144138
688.988	0.0143858
689.066	0.0144493
689.144	0.0144096
689.222	0.0144391
689.300	0.0144471
689.378	0.0145160
689.456	0.0144991
689.535	0.0144637
689.613	0.0143842
689.691	0.0143224
689.769	0.0144153
689.847	0.0143633
689.925	0.0142702
690.003	0.0142436
690.081	0.0142332
690.160	0.0142526
690.238	0.0143459
690.316	0.0143295
690.394	0.0143192
690.472	0.0143266
690.550	0.0143900
690.628	0.0143600
690.706	0.0143880
690.785	0.0143464
690.863	0.0144191
690.941	0.0144190
691.019	0.0143499
691.097	0.0142789
691.175	0.0144466
691.253	0.0143616
691.331	0.0142303
691.410	0.0144123
691.488	0.0145276
691.566	0.0143729
691.644	0.0144696
691.722	0.0143414
691.800	0.0145157
691.878	0.0142925
691.956	0.0143913
692.035	0.0143555
692.113	0.0144469
692.191	0.0144717
692.269	0.0145576
692.347	0.0146118
692.425	0.0144384
692.503	0.0144133
692.581	0.0144710
692.660	0.0145737
692.738	0.0146204
692.816	0.0145247
692.894	0.0144839
692.972	0.0145108
693.050	0.0144817
693.128	0.0143740
693.206	0.0144244
693.285	0.0145095
693.363	0.0144714
693.441	0.0145499
693.519	0.0145158
693.597	0.0144666
693.675	0.0145235
693.753	0.0144558
693.831	0.0146102
693.910	0.0145773
693.988	0.0144675
694.066	0.0146374
694.144	0.0145741
694.222	0.0145677
694.300	0.0145579
694.378	0.0144794
694.456	0.0145316
694.535	0.0145298
694.613	0.0145209
694.691	0.0143961
694.769	0.0146152
694.847	0.0144615
694.925	0.0144488
695.003	0.0144411
695.081	0.0145860
695.160	0.0146263
695.238	0.0145356
695.316	0.0144681
695.394	0.0144859
695.472	0.0145567
695.550	0.0146503
695.628	0.0145081
695.706	0.0146157
695.785	0.0146439
695.863	0.0145973
695.941	0.0146413
696.019	0.0145549
696.097	0.0144759
696.175	0.0145087
696.253	0.0145627
696.331	0.0143329
696.410	0.0144714
696.488	0.0145061
696.566	0.0143449
696.644	0.0143645
696.722	0.0144921
696.800	0.0143949
696.878	0.0145286
696.956	0.0144038
697.035	0.0145322
697.113	0.0144547
697.191	0.0145219
697.269	0.0143304
697.347	0.0144033
697.425	0.0145327
697.503	0.0144680
697.581	0.0145379
697.660	0.0145772
697.738	0.0144736
697.816	0.0143867
697.894	0.0144289
697.972	0.0145422
698.050	0.0143993
698.128	0.0144637
698.206	0.0144347
698.285	0.0143102
698.363	0.0142682
698.441	0.0144904
698.519	0.0144265
698.597	0.0144987
698.675	0.0144476
698.753	0.0144212
698.831	0.0143910
698.910	0.0144445
698.988	0.0145144
699.066	0.0144645
699.144	0.0144879
699.222	0.0143222
699.300	0.0143723
699.378	0.0144745
699.456	0.0144652
699.535	0.0144412
699.613	0.0143945
699.691	0.0144998
699.769	0.0144422
699.847	0.0143899
699.925	0.0144529
700.003	0.0143719
700.081	0.0143495
700.160	0.0144859
700.238	0.0144183
700.316	0.0143509
700.394	0.0143282
700.472	0.0144379
700.550	0.0143304
700.628	0.0144925
700.706	0.0144148
700.785	0.0144037
700.863	0.0143027
700.941	0.0143384
701.019	0.0143453
701.097	0.0144295
701.175	0.0143945
701.253	0.0142572
701.331	0.0144072
701.410	0.0142972
701.488	0.0142764
701.566	0.0144989
701.644	0.0143901
701.722	0.0143655
701.800	0.0143493
701.878	0.0143050
701.956	0.0144594
702.035	0.0144125
702.113	0.0144778
702.191	0.0144154
702.269	0.0145182
702.347	0.0144614
702.425	0.0144524
702.503	0.0145110
702.581	0.0145152
702.660	0.0144807
702.738	0.0143380
702.816	0.0143816
702.894	0.0144036
702.972	0.0144764
703.050	0.0144565
703.128	0.0144051
703.206	0.0143344
703.285	0.0142835
703.363	0.0144007
703.441	0.0143784
703.519	0.0144118
703.597	0.0143304
703.675	0.0144502
703.753	0.0144572
703.831	0.0144030
703.910	0.0145872
703.988	0.0143060
704.066	0.0144400
704.144	0.0143794
704.222	0.0142909
704.300	0.0143704
704.378	0.0144090
704.456	0.0142533
704.535	0.0143992
704.613	0.0145213
704.691	0.0144003
704.769	0.0143575
704.847	0.0143246
704.925	0.0143383
705.003	0.0144890
705.081	0.0144894
705.160	0.0144506
705.238	0.0145081
705.316	0.0144196
705.394	0.0145801
705.472	0.0143504
705.550	0.0144928
705.628	0.0143696
705.706	0.0145457
705.785	0.0144949
705.863	0.0145074
705.941	0.0145517
706.019	0.0143912
706.097	0.0143927
706.175	0.0145943
706.253	0.0144379
706.331	0.0146307
706.410	0.0144785
706.488	0.0144475
706.566	0.0144743
706.644	0.0145266
706.722	0.0144542
706.800	0.0145112
706.878	0.0145100
706.956	0.0145341
707.035	0.0144526
707.113	0.0144500
707.191	0.0144667
707.269	0.0145293
707.347	0.0145212
707.425	0.0143710
707.503	0.0144348
707.581	0.0144694
707.660	0.0143427
707.738	0.0144001
707.816	0.0143634
707.894	0.0144183
707.972	0.0144501
708.050	0.0143922
708.128	0.0144839
708.206	0.0143089
708.285	0.0144329
708.363	0.0143249
708.441	0.0142474
708.519	0.0143650
708.597	0.0144044
708.675	0.0144405
708.753	0.0143822
708.831	0.0144529
708.910	0.0142286
708.988	0.0145045
709.066	0.0144110
709.144	0.0143275
709.222	0.0143456
709.300	0.0144144
709.378	0.0143808
709.456	0.0142654
709.535	0.0141286
709.613	0.0141537
709.691	0.0142702
709.769	0.0143235
709.847	0.0143362
709.925	0.0144171
710.003	0.0142673
710.081	0.0143027
710.160	0.0144601
710.238	0.0144498
710.316	0.0144081
710.394	0.0142783
710.472	0.0143616
710.550	0.0143870
710.628	0.0142963
710.706	0.0144337
710.785	0.0143771
710.863	0.0143595
710.941	0.0143208
711.019	0.0143937
711.097	0.0144137
711.175	0.0143436
711.253	0.0144775
711.331	0.0144392
711.410	0.0144198
711.488	0.0143951
711.566	0.0144552
711.644	0.0143949
711.722	0.0143604
711.800	0.0143623
711.878	0.0144534
711.956	0.0144878
712.035	0.0145734
712.113	0.0144955
712.191	0.0144959
712.269	0.0144477
712.347	0.0147269
712.425	0.0144962
712.503	0.0143781
712.581	0.0145129
712.660	0.0145332
712.738	0.0145329
712.816	0.0145117
712.894	0.0144467
712.972	0.0145732
713.050	0.0145723
713.128	0.0145236
713.206	0.0145270
713.285	0.0145684
713.363	0.0145628
713.441	0.0145419
713.519	0.0146313
713.597	0.0145034
713.675	0.0146020
713.753	0.0146333
713.831	0.0146001
713.910	0.0146178
713.988	0.0146008
714.066	0.0145383
714.144	0.0146458
714.222	0.0146577
714.300	0.0143233
714.378	0.0145384
714.456	0.0145267
714.535	0.0146193
714.613	0.0145397
714.691	0.0144074
714.769	0.0145402
714.847	0.0144960
714.925	0.0144690
715.003	0.0144946
715.081	0.0145364
715.160	0.0146576
715.238	0.0146333
715.316	0.0146268
715.394	0.0145103
715.472	0.0145214
715.550	0.0145695
715.628	0.0145059
715.706	0.0144955
715.785	0.0143987
715.863	0.0145926
715.941	0.0145907
716.019	0.0145631
716.097	0.0143516
716.175	0.0144805
716.253	0.0145807
716.331	0.0146086
716.410	0.0145502
716.488	0.0145107
716.566	0.0142933
716.644	0.0144297
716.722	0.0145715
716.800	0.0145139
716.878	0.0144871
716.956	0.0145109
717.035	0.0144254
717.113	0.0146045
717.191	0.0144619
717.269	0.0146010
717.347	0.0145576
717.425	0.0144962
717.503	0.0145101
717.581	0.0146609
717.660	0.0145856
717.738	0.0145341
717.816	0.0145051
717.894	0.0144685
717.972	0.0145336
718.050	0.0145052
718.128	0.0145237
718.206	0.0144389
718.285	0.0144721
718.363	0.0143755
718.441	0.0145004
718.519	0.0143962
718.597	0.0144012
718.675	0.0145221
718.753	0.0144262
718.831	0.0145384
718.910	0.0144354
718.988	0.0146056
719.066	0.0145357
719.144	0.0143314
719.222	0.0145649
719.300	0.0145169
719.378	0.0145640
719.456	0.0147257
719.535	0.0144894
719.613	0.0144506
719.691	0.0146285
719.769	0.0144536
719.847	0.0145397
719.925	0.0146004
720.003	0.0144300
720.081	0.0144530
720.160	0.0145223
720.238	0.0145148
720.316	0.0144305
720.394	0.0144587
720.472	0.0145685
720.550	0.0144008
720.628	0.0145210
720.706	0.0145564
720.785	0.0144460
720.863	0.0144211
720.941	0.0144855
721.019	0.0143525
721.097	0.0145249
721.175	0.0144815
721.253	0.0143909
721.331	0.0145285
721.410	0.0144174
721.488	0.0143723
721.566	0.0144807
721.644	0.0145119
721.722	0.0144398
721.800	0.0144977
721.878	0.0143689
721.956	0.0143732
722.035	0.0145327
722.113	0.0143975
722.191	0.0144426
722.269	0.0145564
722.347	0.0145702
722.425	0.0144744
722.503	0.0144549
722.581	0.0144775
722.660	0.0145351
722.738	0.0143675
722.816	0.0145091
722.894	0.0144807
722.972	0.0143832
723.050	0.0143763
723.128	0.0144033
723.206	0.0145533
723.285	0.0146152
723.363	0.0144130
723.441	0.0145189
723.519	0.0145382
723.597	0.0144030
723.675	0.0144801
723.753	0.0144723
723.831	0.0145591
723.910	0.0145738
723.988	0.0144918
724.066	0.0144524
724.144	0.0143748
724.222	0.0145105
724.300	0.0145045
724.378	0.0145430
724.456	0.0143707
724.535	0.0142068
724.613	0.0144702
724.691	0.0145058
724.769	0.0142654
724.847	0.0145224
724.925	0.0144402
725.003	0.0144534
725.081	0.0144975
725.160	0.0142702
725.238	0.0144302
725.316	0.0143827
725.394	0.0144553
725.472	0.0144354
725.550	0.0143204
725.628	0.0145782
725.706	0.0144633
725.785	0.0144678
725.863	0.0146393
725.941	0.0145679
726.019	0.0144611
726.097	0.0143941
726.175	0.0143973
726.253	0.0144945
726.331	0.0145863
726.410	0.0145124
726.488	0.0144881
726.566	0.0145467
726.644	0.0145805
726.722	0.0145406
726.800	0.0144646
726.878	0.0145590
726.956	0.0146233
727.035	0.0144272
727.113	0.0145103
727.191	0.0145586
727.269	0.0144624
727.347	0.0144740
727.425	0.0144409
727.503	0.0145854
727.581	0.0144011
727.660	0.0144078
727.738	0.0145557
727.816	0.0144435
727.894	0.0142238
727.972	0.0143803
728.050	0.0145364
728.128	0.0143623
728.206	0.0143975
728.285	0.0144468
728.363	0.0144624
728.441	0.0144322
728.519	0.0143996
728.597	0.0143666
728.675	0.0144355
728.753	0.0144366
728.831	0.0143256
728.910	0.0143982
728.988	0.0143780
729.066	0.0144084
729.144	0.0143937
729.222	0.0142960
729.300	0.0143340
729.378	0.0143710
729.456	0.0144098
729.535	0.0143616
729.613	0.0143172
729.691	0.0145025
729.769	0.0144839
729.847	0.0144202
729.925	0.0143406
730.003	0.0143295
730.081	0.0144894
730.160	0.0143832
730.238	0.0143865
730.316	0.0144822
730.394	0.0145491
730.472	0.0143399
730.550	0.0142877
730.628	0.0144566
730.706	0.0144511
730.785	0.0144950
730.863	0.0143794
730.941	0.0145115
731.019	0.0144926
731.097	0.0143413
731.175	0.0143639
731.253	0.0144650
731.331	0.0144820
731.410	0.0144190
731.488	0.0143848
731.566	0.0143484
731.644	0.0144305
731.722	0.0145731
731.800	0.0143052
731.878	0.0143266
731.956	0.0144565
732.035	0.0145503
732.113	0.0143762
732.191	0.0143930
732.269	0.0142907
732.347	0.0143657
732.425	0.0144579
732.503	0.0144460
732.581	0.0143378
732.660	0.0144053
732.738	0.0143398
732.816	0.0143160
732.894	0.0144976
732.972	0.0144327
733.050	0.0143653
733.128	0.0145282
733.206	0.0145085
733.285	0.0145144
733.363	0.0145411
733.441	0.0144701
733.519	0.0145804
733.597	0.0144977
733.675	0.0144720
733.753	0.0144337
733.831	0.0144527
733.910	0.0145007
733.988	0.0144321
734.066	0.0146300
734.144	0.0144669
734.222	0.0144810
734.300	0.0145461
734.378	0.0145118
734.456	0.0145544
734.535	0.0145681
734.613	0.0144720
734.691	0.0144540
734.769	0.0144804
734.847	0.0143829
734.925	0.0144736
735.003	0.0144936
735.081	0.0145332
735.160	0.0145526
735.238	0.0145231
735.316	0.0143878
735.394	0.0144888
735.472	0.0144638
735.550	0.0144403
735.628	0.0144704
735.706	0.0145579
735.785	0.0145641
735.863	0.0143555
735.941	0.0144486
736.019	0.0144720
736.097	0.0146181
736.175	0.0144864
736.253	0.0145329
736.331	0.0143936
736.410	0.0145635
736.488	0.0146258
736.566	0.0145451
736.644	0.0145554
736.722	0.0145252
736.800	0.0144881
736.878	0.0143908
736.956	0.0145103
737.035	0.0146102
737.113	0.0143796
737.191	0.0144773
737.269	0.0146564
737.347	0.0145502
737.425	0.0144862
737.503	0.0145885
737.581	0.0144177
737.660	0.0145508
737.738	0.0144309
737.816	0.0145779
737.894	0.0144843
737.972	0.0146177
738.050	0.0144128
738.128	0.0143293
738.206	0.0145047
738.285	0.0145330
738.363	0.0144712
738.441	0.0143768
738.519	0.0144062
738.597	0.0145300
738.675	0.0145240
738.753	0.0144749
738.831	0.0143620
738.910	0.0144864
738.988	0.0144615
739.066	0.0143101
739.144	0.0145164
739.222	0.0144382
739.300	0.0144967
739.378	0.0144774
739.456	0.0144161
739.535	0.0143806
739.613	0.0144031
739.691	0.0144843
739.769	0.0143166
739.847	0.0144502
739.925	0.0143500
740.003	0.0144312
740.081	0.0144558
740.160	0.0144487
740.238	0.0144112
740.316	0.0143022
740.394	0.0145073
740.472	0.0144765
740.550	0.0144401
740.628	0.0145342
740.706	0.0144472
740.785	0.0143559
740.863	0.0144787
740.941	0.0144180
741.019	0.0145332
741.097	0.0145156
741.175	0.0145900
741.253	0.0144547
741.331	0.0144538
741.410	0.0145457
741.488	0.0144775
741.566	0.0145849
741.644	0.0144275
741.722	0.0143959
741.800	0.0146092
741.878	0.0144962
741.956	0.0143799
742.035	0.0145248
742.113	0.0145090
742.191	0.0144067
742.269	0.0145343
742.347	0.0144314
742.425	0.0145175
742.503	0.0143749
742.581	0.0143977
742.660	0.0143995
742.738	0.0143959
742.816	0.0144697
742.894	0.0144003
742.972	0.0145439
743.050	0.0143211
743.128	0.0144220
743.206	0.0144331
743.285	0.0144648
743.363	0.0144195
743.441	0.0144658
743.519	0.0145547
743.597	0.0144344
743.675	0.0144202
743.753	0.0145002
743.831	0.0145062
743.910	0.0144923
743.988	0.0144653
744.066	0.0144567
744.144	0.0145300
744.222	0.0144206
744.300	0.0145847
744.378	0.0145464
744.456	0.0144851
744.535	0.0144476
744.613	0.0143271
744.691	0.0143569
744.769	0.0144459
744.847	0.0145302
744.925	0.0144669
745.003	0.0144033
745.081	0.0144506
745.160	0.0144749
745.238	0.0144113
745.316	0.0144947
745.394	0.0144467
745.472	0.0142509
745.550	0.0145982
745.628	0.0145589
745.706	0.0145053
745.785	0.0143407
745.863	0.0143504
745.941	0.0144269
746.019	0.0144368
746.097	0.0145290
746.175	0.0143056
746.253	0.0144793
746.331	0.0144151
746.410	0.0142789
746.488	0.0144432
746.566	0.0144598
746.644	0.0144552
746.722	0.0143438
746.800	0.0144418
746.878	0.0144354
746.956	0.0144149
747.035	0.0145013
747.113	0.0144996
747.191	0.0144372
747.269	0.0143402
747.347	0.0144086
747.425	0.0144375
747.503	0.0144162
747.581	0.0143581
747.660	0.0144154
747.738	0.0145899
747.816	0.0144774
747.894	0.0143915
747.972	0.0144082
748.050	0.0143505
748.128	0.0143059
748.206	0.0145556
748.285	0.0145919
748.363	0.0144063
748.441	0.0144917
748.519	0.0144997
748.597	0.0144238
748.675	0.0144796
748.753	0.0143497
748.831	0.0144362
748.910	0.0143391
748.988	0.0145652
749.066	0.0144180
749.144	0.0144618
749.222	0.0144573
749.300	0.0144538
749.378	0.0143295
749.456	0.0143764
749.535	0.0144103
749.613	0.0144925
749.691	0.0144872
749.769	0.0144165
749.847	0.0144336
749.925	0.0143467
750.003	0.0144909
750.081	0.0144610
750.160	0.0144361
750.238	0.0144500
750.316	0.0142748
750.394	0.0143470
750.472	0.0143806
750.550	0.0143868
750.628	0.0145947
750.706	0.0143029
750.785	0.0143468
750.863	0.0144199
750.941	0.0144672
751.019	0.0143604
751.097	0.0144527
751.175	0.0143597
751.253	0.0144462
751.331	0.0143785
751.410	0.0143462
751.488	0.0142836
751.566	0.0142154
751.644	0.0143633
751.722	0.0143656
751.800	0.0142783
751.878	0.0142933
751.956	0.0143824
752.035	0.0143922
752.113	0.0143420
752.191	0.0143829
752.269	0.0144469
752.347	0.0144420
752.425	0.0144151
752.503	0.0143326
752.581	0.0143118
752.660	0.0142374
752.738	0.0141955
752.816	0.0144998
752.894	0.0145613
752.972	0.0143659
753.050	0.0143886
753.128	0.0144596
753.206	0.0143388
753.285	0.0143036
753.363	0.0144250
753.441	0.0144392
753.519	0.0144018
753.597	0.0144746
753.675	0.0145591
753.753	0.0144665
753.831	0.0144616
753.910	0.0144814
753.988	0.0144138
754.066	0.0143758
754.144	0.0143795
754.222	0.0145152
754.300	0.0145059
754.378	0.0143099
754.456	0.0144073
754.535	0.0145519
754.613	0.0144745
754.691	0.0143738
754.769	0.0145171
754.847	0.0146040
754.925	0.0145296
755.003	0.0146415
755.081	0.0145848
755.160	0.0146278
755.238	0.0146127
755.316	0.0146129
755.394	0.0144324
755.472	0.0146252
755.550	0.0145650
755.628	0.0145831
755.706	0.0146853
755.785	0.0145969
755.863	0.0147189
755.941	0.0146502
756.019	0.0145016
756.097	0.0146365
756.175	0.0146121
756.253	0.0146078
756.331	0.0145779
756.410	0.0144669
756.488	0.0144908
756.566	0.0145723
756.644	0.0146243
756.722	0.0145381
756.800	0.0144952
756.878	0.0145779
756.956	0.0145828
757.035	0.0145715
757.113	0.0147511
757.191	0.0145649
757.269	0.0145947
757.347	0.0145071
757.425	0.0144022
757.503	0.0145304
757.581	0.0146391
757.660	0.0145979
757.738	0.0144655
757.816	0.0144646
757.894	0.0144781
757.972	0.0144689
758.050	0.0144797
758.128	0.0144291
758.206	0.0144418
758.285	0.0143737
758.363	0.0144700
758.441	0.0144810
758.519	0.0144442
758.597	0.0145063
758.675	0.0143923
758.753	0.0143520
758.831	0.0144788
758.910	0.0144242
758.988	0.0142843
759.066	0.0142561
759.144	0.0143641
759.222	0.0143037
759.300	0.0143259
759.378	0.0144172
759.456	0.0143736
759.535	0.0144041
759.613	0.0142707
759.691	0.0142599
759.769	0.0142833
759.847	0.0144164
759.925	0.0143754
760.003	0.0142924
760.081	0.0143586
760.160	0.0144375
760.238	0.0144312
760.316	0.0142800
760.394	0.0143578
760.472	0.0144025
760.550	0.0142485
760.628	0.0143588
760.706	0.0143153
760.785	0.0143517
760.863	0.0142451
760.941	0.0143562
761.019	0.0144170
761.097	0.0144048
761.175	0.0144273
761.253	0.0144014
761.331	0.0142709
761.410	0.0143212
761.488	0.0143697
761.566	0.0143762
761.644	0.0142787
761.722	0.0142507
761.800	0.0143642
761.878	0.0144999
761.956	0.0144002
762.035	0.0145255
762.113	0.0143134
762.191	0.0144573
762.269	0.0144501
762.347	0.0143988
762.425	0.0144434
762.503	0.0144518
762.581	0.0144542
762.660	0.0144048
762.738	0.0144581
762.816	0.0144153
762.894	0.0145125
762.972	0.0145257
763.050	0.0145339
763.128	0.0145031
763.206	0.0144774
763.285	0.0144675
763.363	0.0145714
763.441	0.0143713
763.519	0.0144869
763.597	0.0144569
763.675	0.0144184
763.753	0.0144907
763.831	0.0143676
763.910	0.0143794
763.988	0.0143923
764.066	0.0144422
764.144	0.0144115
764.222	0.0145203
764.300	0.0144577
764.378	0.0143910
764.456	0.0144114
764.535	0.0143251
764.613	0.0143742
764.691	0.0145192
764.769	0.0144305
764.847	0.0144672
764.925	0.0143681
765.003	0.0144198
765.081	0.0145309
765.160	0.0144910
765.238	0.0143195
765.316	0.0142744
765.394	0.0144702
765.472	0.0143833
765.550	0.0144000
765.628	0.0144243
765.706	0.0145187
765.785	0.0143109
765.863	0.0142767
765.941	0.0144626
766.019	0.0144002
766.097	0.0144245
766.175	0.0143524
766.253	0.0142553
766.331	0.0143365
766.410	0.0143179
766.488	0.0143090
766.566	0.0143559
766.644	0.0143719
766.722	0.0143900
766.800	0.0144710
766.878	0.0143940
766.956	0.0143357
767.035	0.0142999
767.113	0.0142728
767.191	0.0144533
767.269	0.0144107
767.347	0.0143750
767.425	0.0143669
767.503	0.0143756
767.581	0.0143947
767.660	0.0143306
767.738	0.0144925
767.816	0.0144896
767.894	0.0143572
767.972	0.0142941
768.050	0.0144446
768.128	0.0144759
768.206	0.0144778
768.285	0.0144257
768.363	0.0144128
768.441	0.0142532
768.519	0.0144550
768.597	0.0143235
768.675	0.0144710
768.753	0.0143698
768.831	0.0144087
768.910	0.0144388
768.988	0.0144195
769.066	0.0143035
769.144	0.0143531
769.222	0.0144384
769.300	0.0143954
769.378	0.0144087
769.456	0.0143924
769.535	0.0144141
769.613	0.0143923
769.691	0.0143316
769.769	0.0145236
769.847	0.0144423
769.925	0.0143673
770.003	0.0144434
770.081	0.0145415
770.160	0.0143739
770.238	0.0144083
770.316	0.0144891
770.394	0.0144344
770.472	0.0145358
770.550	0.0145562
770.628	0.0145608
770.706	0.0145532
770.785	0.0146016
770.863	0.0144942
770.941	0.0145582
771.019	0.0146499
771.097	0.0145338
771.175	0.0144931
771.253	0.0146211
771.331	0.0145375
771.410	0.0145827
771.488	0.0145301
771.566	0.0145006
771.644	0.0145589
771.722	0.0145232
771.800	0.0145865
771.878	0.0145527
771.956	0.0145920
772.035	0.0145425
772.113	0.0145164
772.191	0.0144353
772.269	0.0144290
772.347	0.0146558
772.425	0.0145791
772.503	0.0145007
772.581	0.0144786
772.660	0.0144168
772.738	0.0144787
772.816	0.0144488
772.894	0.0144093
772.972	0.0144684
773.050	0.0145507
773.128	0.0143684
773.206	0.0143858
773.285	0.0145023
773.363	0.0144238
773.441	0.0144962
773.519	0.0144979
773.597	0.0145374
773.675	0.0143390
773.753	0.0144451
773.831	0.0142953
773.910	0.0143049
773.988	0.0144103
774.066	0.0143516
774.144	0.0144638
774.222	0.0143576
774.300	0.0144350
774.378	0.0143944
774.456	0.0145904
774.535	0.0143834
774.613	0.0145549
774.691	0.0143423
774.769	0.0143481
774.847	0.0145820
774.925	0.0143547
775.003	0.0143966
775.081	0.0144320
775.160	0.0143994
775.238	0.0143793
775.316	0.0143829
775.394	0.0143518
775.472	0.0143800
775.550	0.0144267
775.628	0.0144267
775.706	0.0145461
775.785	0.0145022
775.863	0.0145251
775.941	0.0144234
776.019	0.0144942
776.097	0.0144881
776.175	0.0144146
776.253	0.0144533
776.331	0.0144949
776.410	0.0145199
776.488	0.0145523
776.566	0.0146505
776.644	0.0145513
776.722	0.0144719
776.800	0.0146500
776.878	0.0146036
776.956	0.0145725
777.035	0.0146032
777.113	0.0145007
777.191	0.0144248
777.269	0.0145676
777.347	0.0145759
777.425	0.0144729
777.503	0.0144927
777.581	0.0145811
777.660	0.0145511
777.738	0.0146687
777.816	0.0144202
777.894	0.0145340
777.972	0.0146007
778.050	0.0145475
778.128	0.0146318
778.206	0.0144894
778.285	0.0144125
778.363	0.0145003
778.441	0.0145820
778.519	0.0144181
778.597	0.0144462
778.675	0.0143154
778.753	0.0145415
778.831	0.0143202
778.910	0.0144757
778.988	0.0144216
779.066	0.0143240
779.144	0.0143671
779.222	0.0144138
779.300	0.0143968
779.378	0.0143214
779.456	0.0144353
779.535	0.0143176
779.613	0.0143502
779.691	0.0143796
779.769	0.0143149
779.847	0.0144888
779.925	0.0143703
780.003	0.0143153
780.081	0.0143675
780.160	0.0144469
780.238	0.0140911
780.316	0.0144036
780.394	0.0144989
780.472	0.0143886
780.550	0.0142690
780.628	0.0143803
780.706	0.0143664
780.785	0.0143524
780.863	0.0142535
780.941	0.0144855
781.019	0.0142674
781.097	0.0142899
781.175	0.0143077
781.253	0.0143977
781.331	0.0141872
781.410	0.0143822
781.488	0.0143395
781.566	0.0143661
781.644	0.0143619
781.722	0.0143092
781.800	0.0144074
781.878	0.0143960
781.956	0.0143996
782.035	0.0144476
782.113	0.0143969
782.191	0.0144166
782.269	0.0143331
782.347	0.0143201
782.425	0.0143797
782.503	0.0144556
782.581	0.0142628
782.660	0.0143411
782.738	0.0143419
782.816	0.0142674
782.894	0.0144321
782.972	0.0143697
783.050	0.0143816
783.128	0.0144059
783.206	0.0144086
783.285	0.0145488
783.363	0.0145476
783.441	0.0143906
783.519	0.0144269
783.597	0.0144967
783.675	0.0143636
783.753	0.0144302
783.831	0.0144106
783.910	0.0144520
783.988	0.0144307
784.066	0.0144900
784.144	0.0144371
784.222	0.0144675
784.300	0.0146197
784.378	0.0145293
784.456	0.0144665
784.535	0.0146799
784.613	0.0146687
784.691	0.0144332
784.769	0.0144852
784.847	0.0144929
784.925	0.0145332
785.003	0.0144714
785.081	0.0145631
785.160	0.0144982
785.238	0.0144895
785.316	0.0145466
785.394	0.0146181
785.472	0.0143645
785.550	0.0144244
785.628	0.0144274
785.706	0.0145326
785.785	0.0144641
785.863	0.0145414
785.941	0.0142838
786.019	0.0143412
786.097	0.0143086
786.175	0.0142323
786.253	0.0144704
786.331	0.0144753
786.410	0.0144526
786.488	0.0144305
786.566	0.0144660
786.644	0.0144318
786.722	0.0144299
786.800	0.0143740
786.878	0.0142139
786.956	0.0143249
787.035	0.0144922
787.113	0.0142896
787.191	0.0142959
787.269	0.0144513
787.347	0.0143588
787.425	0.0144704
787.503	0.0143978
787.581	0.0144427
787.660	0.0143333
787.738	0.0143536
787.816	0.0143276
787.894	0.0145567
787.972	0.0144307
788.050	0.0142371
788.128	0.0143597
788.206	0.0144752
788.285	0.0143723
788.363	0.0143152
788.441	0.0144270
788.519	0.0144253
788.597	0.0144460
788.675	0.0143265
788.753	0.0142883
788.831	0.0144559
788.910	0.0144689
788.988	0.0144600
789.066	0.0144087
789.144	0.0143624
789.222	0.0144655
789.300	0.0144067
789.378	0.0144286
789.456	0.0146008
789.535	0.0145541
789.613	0.0145299
789.691	0.0145545
789.769	0.0143421
789.847	0.0144980
789.925	0.0144463
790.003	0.0142995
790.081	0.0144553
790.160	0.0145484
790.238	0.0143409
790.316	0.0143954
790.394	0.0145730
790.472	0.0145035
790.550	0.0143875
790.628	0.0144092
790.706	0.0144994
790.785	0.0145390
790.863	0.0145090
790.941	0.0143955
791.019	0.0144834
791.097	0.0146133
791.175	0.0143717
791.253	0.0145535
791.331	0.0146114
791.410	0.0144557
791.488	0.0145542
791.566	0.0144737
791.644	0.0145460
791.722	0.0146674
791.800	0.0146410
791.878	0.0146656
791.956	0.0145364
792.035	0.0145538
792.113	0.0145892
792.191	0.0146883
792.269	0.0146107
792.347	0.0147400
792.425	0.0147196
792.503	0.0147332
792.581	0.0146552
792.660	0.0147308
792.738	0.0147017
792.816	0.0146004
792.894	0.0146131
792.972	0.0145468
793.050	0.0145421
793.128	0.0146121
793.206	0.0144690
793.285	0.0145177
793.363	0.0146411
793.441	0.0145648
793.519	0.0144463
793.597	0.0144816
793.675	0.0144991
793.753	0.0143791
793.831	0.0144303
793.910	0.0144794
793.988	0.0144532
794.066	0.0144432
794.144	0.0144682
794.222	0.0144980
794.300	0.0144752
794.378	0.0144759
794.456	0.0144774
794.535	0.0144200
794.613	0.0144791
794.691	0.0144923
794.769	0.0144488
794.847	0.0145415
794.925	0.0145528
795.003	0.0146381
795.081	0.0143812
795.160	0.0145049
795.238	0.0145101
795.316	0.0143385
795.394	0.0143234
795.472	0.0145171
795.550	0.0146410
795.628	0.0144358
795.706	0.0143021
795.785	0.0143781
795.863	0.0144004
795.941	0.0145304
796.019	0.0143927
796.097	0.0142692
796.175	0.0144550
796.253	0.0146100
796.331	0.0144256
796.410	0.0143141
796.488	0.0145142
796.566	0.0144814
796.644	0.0143526
796.722	0.0144523
796.800	0.0144530
796.878	0.0143636
796.956	0.0143915
797.035	0.0144087
797.113	0.0145612
797.191	0.0144100
797.269	0.0145403
797.347	0.0143932
797.425	0.0144157
797.503	0.0143945
797.581	0.0145089
797.660	0.0144195
797.738	0.0143641
797.816	0.0144865
797.894	0.0144756
797.972	0.0144473
798.050	0.0144582
798.128	0.0145099
798.206	0.0143590
798.285	0.0145930
798.363	0.0144432
798.441	0.0144563
798.519	0.0144363
798.597	0.0144949
798.675	0.0144660
798.753	0.0144629
798.831	0.0145914
798.910	0.0144928
798.988	0.0144559
799.066	0.0144073
799.144	0.0145255
799.222	0.0145402
799.300	0.0144257
799.378	0.0145261
799.456	0.0145342
799.535	0.0144800
799.613	0.0145187
799.691	0.0144689
799.769	0.0144391
799.847	0.0145702
799.925	0.0145943
800.003	0.0145047
800.081	0.0145497
800.160	0.0144854
800.238	0.0144466
800.316	0.0144265
800.394	0.0142776
800.472	0.0143729
800.550	0.0143727
800.628	0.0144417
800.706	0.0144163
800.785	0.0143752
800.863	0.0143228
800.941	0.0144450
801.019	0.0143732
801.097	0.0142590
801.175	0.0143185
801.253	0.0144063
801.331	0.0142392
801.410	0.0144750
801.488	0.0143466
801.566	0.0143006
801.644	0.0143808
801.722	0.0144020
801.800	0.0144272
801.878	0.0142068
801.956	0.0144019
802.035	0.0144250
802.113	0.0143535
802.191	0.0143077
802.269	0.0142650
802.347	0.0142633
802.425	0.0143002
802.503	0.0144003
802.581	0.0143217
802.660	0.0142430
802.738	0.0143427
802.816	0.0144321
802.894	0.0144269
802.972	0.0143535
803.050	0.0143490
803.128	0.0142883
803.206	0.0144064
803.285	0.0145168
803.363	0.0143491
803.441	0.0144240
803.519	0.0144450
803.597	0.0143965
803.675	0.0144335
803.753	0.0145834
803.831	0.0145066
803.910	0.0142382
803.988	0.0144201
804.066	0.0144427
804.144	0.0143736
804.222	0.0143919
804.300	0.0144636
804.378	0.0143192
804.456	0.0143917
804.535	0.0145734
804.613	0.0144554
804.691	0.0144279
804.769	0.0145185
804.847	0.0143630
804.925	0.0144453
805.003	0.0145232
805.081	0.0144520
805.160	0.0143775
805.238	0.0145912
805.316	0.0144572
805.394	0.0143938
805.472	0.0144699
805.550	0.0144440
805.628	0.0144852
805.706	0.0145000
805.785	0.0144956
805.863	0.0144515
805.941	0.0145228
806.019	0.0145174
806.097	0.0145562
806.175	0.0145284
806.253	0.0145139
806.331	0.0145000
806.410	0.0145603
806.488	0.0145493
806.566	0.0146802
806.644	0.0146348
806.722	0.0146096
806.800	0.0146558
806.878	0.0144516
806.956	0.0144335
807.035	0.0146732
807.113	0.0146100
807.191	0.0145645
807.269	0.0144622
807.347	0.0145183
807.425	0.0144773
807.503	0.0144823
807.581	0.0144945
807.660	0.0142812
807.738	0.0144785
807.816	0.0144823
807.894	0.0144690
807.972	0.0144224
808.050	0.0143565
808.128	0.0143118
808.206	0.0143006
808.285	0.0144534
808.363	0.0143801
808.441	0.0144452
808.519	0.0142728
808.597	0.0144109
808.675	0.0144294
808.753	0.0145410
808.831	0.0144215
808.910	0.0143346
808.988	0.0141981
809.066	0.0144411
809.144	0.0145868
809.222	0.0143793
809.300	0.0143462
809.378	0.0142822
809.456	0.0142931
809.535	0.0144430
809.613	0.0144283
809.691	0.0143345
809.769	0.0144032
809.847	0.0144747
809.925	0.0144993
810.003	0.0144603
810.081	0.0145515
810.160	0.0145222
810.238	0.0145551
810.316	0.0144347
810.394	0.0144412
810.472	0.0145390
810.550	0.0143790
810.628	0.0143750
810.706	0.0143906
810.785	0.0145784
810.863	0.0146134
810.941	0.0144677
811.019	0.0145844
811.097	0.0145741
811.175	0.0146867
811.253	0.0145269
811.331	0.0144081
811.410	0.0144122
811.488	0.0144530
811.566	0.0144067
811.644	0.0145283
811.722	0.0146238
811.800	0.0145286
811.878	0.0143508
811.956	0.0144100
812.035	0.0145512
812.113	0.0144788
812.191	0.0145844
812.269	0.0144463
812.347	0.0145010
812.425	0.0145573
812.503	0.0142966
812.581	0.0145718
812.660	0.0145537
812.738	0.0144479
812.816	0.0143943
812.894	0.0144347
812.972	0.0144753
813.050	0.0144024
813.128	0.0145135
813.206	0.0144814
813.285	0.0145522
813.363	0.0145487
813.441	0.0144284
813.519	0.0144167
813.597	0.0143882
813.675	0.0144147
813.753	0.0145394
813.831	0.0145387
813.910	0.0143838
813.988	0.0146097
814.066	0.0145277
814.144	0.0145094
814.222	0.0145398
814.300	0.0146502
814.378	0.0145415
814.456	0.0145337
814.535	0.0144933
814.613	0.0145716
814.691	0.0144852
814.769	0.0144700
814.847	0.0145638
814.925	0.0145822
815.003	0.0144884
815.081	0.0144365
815.160	0.0146144
815.238	0.0144221
815.316	0.0144581
815.394	0.0145239
815.472	0.0143869
815.550	0.0145772
815.628	0.0146252
815.706	0.0144254
815.785	0.0144617
815.863	0.0145911
815.941	0.0145996
816.019	0.0144350
816.097	0.0145523
816.175	0.0144901
816.253	0.0144834
816.331	0.0145773
816.410	0.0144895
816.488	0.0145404
816.566	0.0145944
816.644	0.0145592
816.722	0.0145325
816.800	0.0145585
816.878	0.0144544
816.956	0.0145511
817.035	0.0144831
817.113	0.0144082
817.191	0.0145523
817.269	0.0146151
817.347	0.0145265
817.425	0.0143561
817.503	0.0145763
817.581	0.0144427
817.660	0.0144857
817.738	0.0144982
817.816	0.0143712
817.894	0.0144795
817.972	0.0145861
818.050	0.0145240
818.128	0.0143835
818.206	0.0144669
818.285	0.0144650
818.363	0.0145177
818.441	0.0143510
818.519	0.0145802
818.597	0.0146655
818.675	0.0144873
818.753	0.0143902
818.831	0.0144008
818.910	0.0145152
818.988	0.0142396
819.066	0.0144413
819.144	0.0144708
819.222	0.0145773
819.300	0.0144878
819.378	0.0144106
819.456	0.0143967
819.535	0.0143170
819.613	0.0143626
819.691	0.0146795
819.769	0.0144588
819.847	0.0142712
819.925	0.0143872
820.003	0.0143468
820.081	0.0143612
820.160	0.0143247
820.238	0.0145547
820.316	0.0143404
820.394	0.0143562
820.472	0.0143723
820.550	0.0144579
820.628	0.0142972
820.706	0.0144865
820.785	0.0145444
820.863	0.0145650
820.941	0.0144647
821.019	0.0143749
821.097	0.0145197
821.175	0.0146668
821.253	0.0145464
821.331	0.0145246
821.410	0.0145604
821.488	0.0144560
821.566	0.0145320
821.644	0.0146751
821.722	0.0146365
821.800	0.0145280
821.878	0.0146751
821.956	0.0145983
822.035	0.0145835
822.113	0.0146036
822.191	0.0144426
822.269	0.0146374
822.347	0.0145284
822.425	0.0146175
822.503	0.0145962
822.581	0.0145176
822.660	0.0144591
822.738	0.0143660
822.816	0.0146534
822.894	0.0146246
822.972	0.0145560
823.050	0.0146016
823.128	0.0144324
823.206	0.0145827
823.285	0.0144865
823.363	0.0144662
823.441	0.0145700
823.519	0.0144313
823.597	0.0144890
823.675	0.0143353
823.753	0.0144447
823.831	0.0144733
823.910	0.0145048
823.988	0.0144221
824.066	0.0144930
824.144	0.0144136
824.222	0.0143796
824.300	0.0144696
824.378	0.0144808
824.456	0.0144036
824.535	0.0144998
824.613	0.0143359
824.691	0.0145110
824.769	0.0143673
824.847	0.0144237
824.925	0.0143932
825.003	0.0143448
825.081	0.0144549
825.160	0.0143396
825.238	0.0145251
825.316	0.0145132
825.394	0.0145629
825.472	0.0144353
825.550	0.0143188
825.628	0.0142961
825.706	0.0144292
825.785	0.0144335
825.863	0.0144723
825.941	0.0143782
826.019	0.0143736
826.097	0.0144387
826.175	0.0144618
826.253	0.0144290
826.331	0.0145129
826.410	0.0143868
826.488	0.0144626
826.566	0.0143304
826.644	0.0143492
826.722	0.0143533
826.800	0.0144337
826.878	0.0144990
826.956	0.0143816
827.035	0.0143245
827.113	0.0143714
827.191	0.0143953
827.269	0.0143842
827.347	0.0145089
827.425	0.0144296
827.503	0.0143546
827.581	0.0143358
827.660	0.0143188
827.738	0.0141934
827.816	0.0143257
827.894	0.0143409
827.972	0.0145000
828.050	0.0143161
828.128	0.0144067
828.206	0.0143990
828.285	0.0144453
828.363	0.0143531
828.441	0.0143600
828.519	0.0144431
828.597	0.0145615
828.675	0.0143521
828.753	0.0144315
828.831	0.0145402
828.910	0.0144933
828.988	0.0144656
829.066	0.0145651
829.144	0.0145308
829.222	0.0146279
829.300	0.0144967
829.378	0.0144432
829.456	0.0146027
829.535	0.0144190
829.613	0.0145055
829.691	0.0144738
829.769	0.0144385
829.847	0.0144262
829.925	0.0145914
830.003	0.0145827
830.081	0.0144164
830.160	0.0144739
830.238	0.0143838
830.316	0.0143004
830.394	0.0144343
830.472	0.0146716
830.550	0.0145548
830.628	0.0143958
830.706	0.0145011
830.785	0.0145842
830.863	0.0144347
830.941	0.0145164
831.019	0.0144971
831.097	0.0144203
831.175	0.0143816
831.253	0.0146535
831.331	0.0144232
831.410	0.0145643
831.488	0.0145149
831.566	0.0143421
831.644	0.0145021
831.722	0.0146707
831.800	0.0145996
831.878	0.0143970
831.956	0.0143854
832.035	0.0145399
832.113	0.0145816
832.191	0.0145026
832.269	0.0145339
832.347	0.0145792
832.425	0.0144839
832.503	0.0143714
832.581	0.0145044
832.660	0.0144362
832.738	0.0144360
832.816	0.0144991
832.894	0.0143982
832.972	0.0143206
833.050	0.0145863
833.128	0.0144051
833.206	0.0145258
833.285	0.0144842
833.363	0.0144065
833.441	0.0143759
833.519	0.0144808
833.597	0.0144425
833.675	0.0145858
833.753	0.0146012
833.831	0.0143946
833.910	0.0142947
833.988	0.0145050
834.066	0.0144090
834.144	0.0144925
834.222	0.0144260
834.300	0.0144293
834.378	0.0146194
834.456	0.0144817
834.535	0.0144445
834.613	0.0144411
834.691	0.0144264
834.769	0.0145348
834.847	0.0144788
834.925	0.0145918
835.003	0.0144723
835.081	0.0144661
835.160	0.0145213
835.238	0.0145346
835.316	0.0145284
835.394	0.0144904
835.472	0.0145292
835.550	0.0145382
835.628	0.0145405
835.706	0.0145228
835.785	0.0146409
835.863	0.0147458
835.941	0.0144835
836.019	0.0146142
836.097	0.0146903
836.175	0.0145515
836.253	0.0145773
836.331	0.0147690
836.410	0.0145647
836.488	0.0144865
836.566	0.0147143
836.644	0.0145148
836.722	0.0145621
836.800	0.0147981
836.878	0.0147331
836.956	0.0146786
837.035	0.0146757
837.113	0.0146250
837.191	0.0145700
837.269	0.0145126
837.347	0.0145427
837.425	0.0145997
837.503	0.0147028
837.581	0.0146143
837.660	0.0145437
837.738	0.0144789
837.816	0.0144704
837.894	0.0145857
837.972	0.0146039
838.050	0.0143800
838.128	0.0145176
838.206	0.0144795
838.285	0.0146549
838.363	0.0145306
838.441	0.0144645
838.519	0.0145699
838.597	0.0146507
838.675	0.0146948
838.753	0.0144241
838.831	0.0144746
838.910	0.0145529
838.988	0.0144798
839.066	0.0145734
839.144	0.0146727
839.222	0.0145711
839.300	0.0145869
839.378	0.0145899
839.456	0.0145602
839.535	0.0143932
839.613	0.0144199
839.691	0.0144872
839.769	0.0145206
839.847	0.0145588
839.925	0.0145141
840.003	0.0144974
840.081	0.0144541
840.160	0.0145695
840.238	0.0145301
840.316	0.0144727
840.394	0.0145033
840.472	0.0143991
840.550	0.0142928
840.628	0.0144202
840.706	0.0145867
840.785	0.0145266
840.863	0.0145243
840.941	0.0146478
841.019	0.0145816
841.097	0.0144350
841.175	0.0146222
841.253	0.0146589
841.331	0.0145164
841.410	0.0145147
841.488	0.0146272
841.566	0.0145332
841.644	0.0144960
841.722	0.0145164
841.800	0.0145332
841.878	0.0144384
841.956	0.0146945
842.035	0.0144312
842.113	0.0142490
842.191	0.0144795
842.269	0.0143665
842.347	0.0144559
842.425	0.0146546
842.503	0.0144396
842.581	0.0145077
842.660	0.0145487
842.738	0.0144811
842.816	0.0145930
842.894	0.0144617
842.972	0.0143909
843.050	0.0144424
843.128	0.0144241
843.206	0.0144809
843.285	0.0146380
843.363	0.0145114
843.441	0.0144375
843.519	0.0144856
843.597	0.0146819
843.675	0.0145356
843.753	0.0146490
843.831	0.0146203
843.910	0.0146083
843.988	0.0146737
844.066	0.0146306
844.144	0.0144634
844.222	0.0144881
844.300	0.0146851
844.378	0.0146339
844.456	0.0144111
844.535	0.0145525
844.613	0.0145137
844.691	0.0145544
844.769	0.0145224
844.847	0.0145561
844.925	0.0145373
845.003	0.0145573
845.081	0.0145996
845.160	0.0145090
845.238	0.0144670
845.316	0.0145737
845.394	0.0144875
845.472	0.0144566
845.550	0.0145299
845.628	0.0144216
845.706	0.0144301
845.785	0.0144375
845.863	0.0145673
845.941	0.0144482
846.019	0.0144365
846.097	0.0144604
846.175	0.0144862
846.253	0.0143925
846.331	0.0144592
846.410	0.0145168
846.488	0.0144659
846.566	0.0145561
846.644	0.0145105
846.722	0.0146124
846.800	0.0145325
846.878	0.0143669
846.956	0.0144819
847.035	0.0145692
847.113	0.0144714
847.191	0.0145001
847.269	0.0145116
847.347	0.0143755
847.425	0.0143588
847.503	0.0143806
847.581	0.0145528
847.660	0.0145298
847.738	0.0144727
847.816	0.0143845
847.894	0.0144011
847.972	0.0145473
848.050	0.0145078
848.128	0.0145700
848.206	0.0144912
848.285	0.0143954
848.363	0.0144640
848.441	0.0144803
848.519	0.0146038
848.597	0.0144209
848.675	0.0144308
848.753	0.0145775
848.831	0.0145560
848.910	0.0145521
848.988	0.0145985
849.066	0.0145606
849.144	0.0142760
849.222	0.0144801
849.300	0.0143877
849.378	0.0142992
849.456	0.0145567
849.535	0.0145557
849.613	0.0144424
849.691	0.0145866
849.769	0.0145548
849.847	0.0145616
849.925	0.0142798
850.003	0.0145182
850.081	0.0144701
850.160	0.0144535
850.238	0.0143894
850.316	0.0144270
850.394	0.0145745
850.472	0.0145756
850.550	0.0145335
850.628	0.0145209
850.706	0.0142123
850.785	0.0143980
850.863	0.0144976
850.941	0.0145274
851.019	0.0145072
851.097	0.0145308
851.175	0.0144096
851.253	0.0145212
851.331	0.0146384
851.410	0.0145313
851.488	0.0144570
851.566	0.0142807
851.644	0.0143584
851.722	0.0142718
851.800	0.0143484
851.878	0.0143540
851.956	0.0143687
852.035	0.0142970
852.113	0.0143279
852.191	0.0142908
852.269	0.0142672
852.347	0.0141734
852.425	0.0142449
852.503	0.0141952
852.581	0.0142790
852.660	0.0143944
852.738	0.0142032
852.816	0.0143240
852.894	0.0141161
852.972	0.0141729
853.050	0.0142599
853.128	0.0141366
853.206	0.0142687
853.285	0.0141977
853.363	0.0142877
853.441	0.0143369
853.519	0.0141440
853.597	0.0143687
853.675	0.0141950
853.753	0.0141558
853.831	0.0141525
853.910	0.0143101
853.988	0.0143265
854.066	0.0143043
854.144	0.0142213
854.222	0.0142875
854.300	0.0144015
854.378	0.0142697
854.456	0.0143785
854.535	0.0143623
854.613	0.0143557
854.691	0.0142842
854.769	0.0143162
854.847	0.0143095
854.925	0.0143169
855.003	0.0142990
855.081	0.0142034
855.160	0.0142926
855.238	0.0144046
855.316	0.0143620
855.394	0.0143163
855.472	0.0142428
855.550	0.0144387
855.628	0.0143473
855.706	0.0143802
855.785	0.0142999
855.863	0.0144122
855.941	0.0144924
856.019	0.0144149
856.097	0.0142586
856.175	0.0144495
856.253	0.0144073
856.331	0.0143698
856.410	0.0144966
856.488	0.0144081
856.566	0.0143864
856.644	0.0145518
856.722	0.0144518
856.800	0.0144263
856.878	0.0145294
856.956	0.0144690
857.035	0.0145706
857.113	0.0145031
857.191	0.0145002
857.269	0.0143784
857.347	0.0145055
857.425	0.0145173
857.503	0.0144710
857.581	0.0144858
857.660	0.0145279
857.738	0.0146279
857.816	0.0146575
857.894	0.0145425
857.972	0.0144993
858.050	0.0146301
858.128	0.0144939
858.206	0.0146999
858.285	0.0145612
858.363	0.0145044
858.441	0.0146682
858.519	0.0146767
858.597	0.0145680
858.675	0.0146594
858.753	0.0146246
858.831	0.0145108
858.910	0.0144971
858.988	0.0145599
859.066	0.0146958
859.144	0.0144286
859.222	0.0145511
859.300	0.0145531
859.378	0.0145665
859.456	0.0145656
859.535	0.0145968
859.613	0.0145446
859.691	0.0144118
859.769	0.0144173
859.847	0.0145252
859.925	0.0144485
860.003	0.0144241
860.081	0.0144115
860.160	0.0144382
860.238	0.0145473
860.316	0.0144505
860.394	0.0145521
860.472	0.0144340
860.550	0.0143955
860.628	0.0144662
860.706	0.0144405
860.785	0.0143740
860.863	0.0144907
860.941	0.0146920
861.019	0.0144834
861.097	0.0144958
861.175	0.0145565
861.253	0.0144552
861.331	0.0145027
861.410	0.0144121
861.488	0.0145460
861.566	0.0144438
861.644	0.0144072
861.722	0.0144852
861.800	0.0145107
861.878	0.0143990
861.956	0.0144637
862.035	0.0145050
862.113	0.0144887
862.191	0.0143772
862.269	0.0144089
862.347	0.0143883
862.425	0.0145562
862.503	0.0144656
862.581	0.0144785
862.660	0.0144851
862.738	0.0143855
862.816	0.0144402
862.894	0.0143598
862.972	0.0144624
863.050	0.0143954
863.128	0.0144572
863.206	0.0144279
863.285	0.0144019
863.363	0.0142931
863.441	0.0144205
863.519	0.0143736
863.597	0.0142532
863.675	0.0142962
863.753	0.0144160
863.831	0.0143658
863.910	0.0143517
863.988	0.0143465
864.066	0.0142788
864.144	0.0143804
864.222	0.0143537
864.300	0.0144312
864.378	0.0143499
864.456	0.0142950
864.535	0.0143452
864.613	0.0143274
864.691	0.0142533
864.769	0.0143227
864.847	0.0144267
864.925	0.0143086
865.003	0.0145010
865.081	0.0143954
865.160	0.0143562
865.238	0.0144576
865.316	0.0144206
865.394	0.0145703
865.472	0.0144520
865.550	0.0144418
865.628	0.0144069
865.706	0.0144920
865.785	0.0145206
865.863	0.0143725
865.941	0.0144897
866.019	0.0147638
866.097	0.0146117
866.175	0.0145600
866.253	0.0144740
866.331	0.0146098
866.410	0.0145359
866.488	0.0146684
866.566	0.0145453
866.644	0.0145027
866.722	0.0144897
866.800	0.0145844
866.878	0.0145480
866.956	0.0145413
867.035	0.0146049
867.113	0.0145332
867.191	0.0144695
867.269	0.0145096
867.347	0.0144072
867.425	0.0144121
867.503	0.0144719
867.581	0.0145335
867.660	0.0145092
867.738	0.0143004
867.816	0.0144136
867.894	0.0145098
867.972	0.0144956
868.050	0.0144238
868.128	0.0144565
868.206	0.0144151
868.285	0.0143884
868.363	0.0143198
868.441	0.0142807
868.519	0.0143656
868.597	0.0144733
868.675	0.0143929
868.753	0.0143431
868.831	0.0143102
868.910	0.0144621
868.988	0.0143814
869.066	0.0142483
869.144	0.0143882
869.222	0.0143469
869.300	0.0144328
869.378	0.0144749
869.456	0.0144607
869.535	0.0144293
869.613	0.0143575
869.691	0.0142694
869.769	0.0143538
869.847	0.0144539
869.925	0.0143063
870.003	0.0143411
870.081	0.0143530
870.160	0.0143478
870.238	0.0143297
870.316	0.0143131
870.394	0.0143097
870.472	0.0143221
870.550	0.0143148
870.628	0.0143981
870.706	0.0144422
870.785	0.0143955
870.863	0.0142603
870.941	0.0142955
871.019	0.0143549
871.097	0.0143529
871.175	0.0143933
871.253	0.0143246
871.331	0.0141840
871.410	0.0142995
871.488	0.0143574
871.566	0.0142303
871.644	0.0141955
871.722	0.0142918
871.800	0.0144318
871.878	0.0143933
871.956	0.0143687
872.035	0.0144949
872.113	0.0142933
872.191	0.0142899
872.269	0.0143134
872.347	0.0144554
872.425	0.0143199
872.503	0.0144145
872.581	0.0146220
872.660	0.0143790
872.738	0.0144605
872.816	0.0144415
872.894	0.0144290
872.972	0.0143426
873.050	0.0144396
873.128	0.0144622
873.206	0.0145802
873.285	0.0145036
873.363	0.0144884
873.441	0.0144614
873.519	0.0144736
873.597	0.0144628
873.675	0.0144440
873.753	0.0146100
873.831	0.0144853
873.910	0.0145961
873.988	0.0145105
874.066	0.0144966
874.144	0.0144952
874.222	0.0144647
874.300	0.0142736
874.378	0.0144307
874.456	0.0145834
874.535	0.0144471
874.613	0.0144477
874.691	0.0143851
874.769	0.0143398
874.847	0.0143096
874.925	0.0144208
875.003	0.0145315
875.081	0.0143388
875.160	0.0142980
875.238	0.0143722
875.316	0.0144402
875.394	0.0143187
875.472	0.0143087
875.550	0.0143221
875.628	0.0143668
875.706	0.0143880
875.785	0.0143337
875.863	0.0143117
875.941	0.0143668
876.019	0.0142242
876.097	0.0142770
876.175	0.0142409
876.253	0.0144667
876.331	0.0143713
876.410	0.0144064
876.488	0.0142106
876.566	0.0142753
876.644	0.0142939
876.722	0.0143707
876.800	0.0145009
876.878	0.0143512
876.956	0.0143298
877.035	0.0142745
877.113	0.0143015
877.191	0.0144299
877.269	0.0143574
877.347	0.0143124
877.425	0.0143303
877.503	0.0142960
877.581	0.0142999
877.660	0.0145235
877.738	0.0144466
877.816	0.0144484
877.894	0.0143743
877.972	0.0143692
878.050	0.0143346
878.128	0.0143924
878.206	0.0144169
878.285	0.0143826
878.363	0.0144193
878.441	0.0144753
878.519	0.0144030
878.597	0.0142996
878.675	0.0143437
878.753	0.0144568
878.831	0.0143473
878.910	0.0143887
878.988	0.0143604
879.066	0.0144482
879.144	0.0145039
879.222	0.0144159
879.300	0.0144388
879.378	0.0144598
879.456	0.0144630
879.535	0.0144225
879.613	0.0143913
879.691	0.0144740
879.769	0.0144711
879.847	0.0144378
879.925	0.0144906
880.003	0.0143710
880.081	0.0144476
880.160	0.0144166
880.238	0.0144336
880.316	0.0144273
880.394	0.0144355
880.472	0.0143544
880.550	0.0144835
880.628	0.0144965
880.706	0.0144067
880.785	0.0145145
880.863	0.0143795
880.941	0.0144810
881.019	0.0145035
881.097	0.0143578
881.175	0.0144957
881.253	0.0144158
881.331	0.0144165
881.410	0.0145407
881.488	0.0142426
881.566	0.0144050
881.644	0.0144429
881.722	0.0144466
881.800	0.0143166
881.878	0.0143806
881.956	0.0144775
882.035	0.0143397
882.113	0.0143973
882.191	0.0143976
882.269	0.0143764
882.347	0.0144069
882.425	0.0143848
882.503	0.0143750
882.581	0.0144442
882.660	0.0143867
882.738	0.0144411
882.816	0.0145233
882.894	0.0144129
882.972	0.0144843
883.050	0.0143719
883.128	0.0143679
883.206	0.0143501
883.285	0.0144462
883.363	0.0144407
883.441	0.0144651
883.519	0.0145372
883.597	0.0144711
883.675	0.0144617
883.753	0.0144315
883.831	0.0145275
883.910	0.0145309
883.988	0.0145451
884.066	0.0145789
884.144	0.0145810
884.222	0.0146304
884.300	0.0145987
884.378	0.0145964
884.456	0.0146631
884.535	0.0146277
884.613	0.0146002
884.691	0.0146492
884.769	0.0146138
884.847	0.0147218
884.925	0.0147567
885.003	0.0146324
885.081	0.0144806
885.160	0.0146478
885.238	0.0145927
885.316	0.0145122
885.394	0.0145627
885.472	0.0145757
885.550	0.0146774
885.628	0.0145461
885.706	0.0144893
885.785	0.0147124
885.863	0.0147040
885.941	0.0146986
886.019	0.0145889
886.097	0.0145811
886.175	0.0146031
886.253	0.0146613
886.331	0.0147150
886.410	0.0145555
886.488	0.0145660
886.566	0.0146447
886.644	0.0146547
886.722	0.0146095
886.800	0.0146233
886.878	0.0146966
886.956	0.0146075
887.035	0.0146157
887.113	0.0147319
887.191	0.0146074
887.269	0.0145282
887.347	0.0145934
887.425	0.0146023
887.503	0.0145409
887.581	0.0145760
887.660	0.0147173
887.738	0.0145816
887.816	0.0144946
887.894	0.0144447
887.972	0.0145836
888.050	0.0146650
888.128	0.0144926
888.206	0.0144906
888.285	0.0143849
888.363	0.0143781
888.441	0.0144115
888.519	0.0145504
888.597	0.0145820
888.675	0.0143795
888.753	0.0143967
888.831	0.0144665
888.910	0.0144370
888.988	0.0143495
889.066	0.0144003
889.144	0.0144320
889.222	0.0143975
889.300	0.0145157
889.378	0.0143185
889.456	0.0143813
889.535	0.0145145
889.613	0.0144730
889.691	0.0143856
889.769	0.0143742
889.847	0.0142433
889.925	0.0143032
890.003	0.0143552
890.081	0.0144495
890.160	0.0142732
890.238	0.0143821
890.316	0.0141710
890.394	0.0144485
890.472	0.0143446
890.550	0.0142168
890.628	0.0142274
890.706	0.0142468
890.785	0.0143217
890.863	0.0142551
890.941	0.0142228
891.019	0.0140733
891.097	0.0142412
891.175	0.0142005
891.253	0.0142149
891.331	0.0142637
891.410	0.0142479
891.488	0.0143361
891.566	0.0142257
891.644	0.0142130
891.722	0.0142255
891.800	0.0143031
891.878	0.0142034
891.956	0.0141357
892.035	0.0143941
892.113	0.0143065
892.191	0.0142838
892.269	0.0142611
892.347	0.0144849
892.425	0.0142791
892.503	0.0142978
892.581	0.0143977
892.660	0.0144514
892.738	0.0143397
892.816	0.0144294
892.894	0.0143545
892.972	0.0144946
893.050	0.0144582
893.128	0.0143282
893.206	0.0143773
893.285	0.0144122
893.363	0.0143518
893.441	0.0144518
893.519	0.0144131
893.597	0.0144379
893.675	0.0144385
893.753	0.0144492
893.831	0.0144532
893.910	0.0144431
893.988	0.0142734
894.066	0.0144712
894.144	0.0143617
894.222	0.0143483
894.300	0.0144129
894.378	0.0143964
894.456	0.0143484
894.535	0.0144653
894.613	0.0144287
894.691	0.0143639
894.769	0.0143903
894.847	0.0144228
894.925	0.0143526
895.003	0.0144773
895.081	0.0145204
895.160	0.0143386
895.238	0.0144045
895.316	0.0144434
895.394	0.0144888
895.472	0.0143109
895.550	0.0144898
895.628	0.0145639
895.706	0.0144749
895.785	0.0145134
895.863	0.0145082
895.941	0.0144051
896.019	0.0144888
896.097	0.0144034
896.175	0.0144314
896.253	0.0144218
896.331	0.0144379
896.410	0.0144121
896.488	0.0143896
896.566	0.0143746
896.644	0.0143409
896.722	0.0143798
896.800	0.0143455
896.878	0.0143873
896.956	0.0142481
897.035	0.0143638
897.113	0.0142199
897.191	0.0144161
897.269	0.0142700
897.347	0.0143049
897.425	0.0143063
897.503	0.0143700
897.581	0.0142899
897.660	0.0144816
897.738	0.0144358
897.816	0.0142636
897.894	0.0142437
897.972	0.0143167
898.050	0.0144093
898.128	0.0144174
898.206	0.0141852
898.285	0.0144355
898.363	0.0143521
898.441	0.0144028
898.519	0.0143973
898.597	0.0144306
898.675	0.0143202
898.753	0.0145625
898.831	0.0143754
898.910	0.0142989
898.988	0.0145441
899.066	0.0145641
899.144	0.0144567
899.222	0.0145252
899.300	0.0145179
899.378	0.0145041
899.456	0.0145295
899.535	0.0144068
899.613	0.0146957
899.691	0.0146518
899.769	0.0145670
899.847	0.0145241
899.925	0.0144802
900.003	0.0146101
900.081	0.0146033
900.160	0.0145790
900.238	0.0144310
900.316	0.0145291
900.394	0.0145737
900.472	0.0144615
900.550	0.0145401
900.628	0.0145129
900.706	0.0146436
900.785	0.0146357
900.863	0.0146452
900.941	0.0145373
901.019	0.0145081
901.097	0.0144921
901.175	0.0146023
901.253	0.0146369
901.331	0.0145377
901.410	0.0145547
901.488	0.0146280
901.566	0.0146162
901.644	0.0145622
901.722	0.0146225
901.800	0.0146155
901.878	0.0145950
901.956	0.0145688
902.035	0.0146097
902.113	0.0145515
902.191	0.0145060
902.269	0.0145329
902.347	0.0145438
902.425	0.0146309
902.503	0.0145042
902.581	0.0146205
902.660	0.0146693
902.738	0.0145354
902.816	0.0146465
902.894	0.0143869
902.972	0.0145393
903.050	0.0146746
903.128	0.0145671
903.206	0.0144617
903.285	0.0145583
903.363	0.0145123
903.441	0.0143900
903.519	0.0145590
903.597	0.0145434
903.675	0.0145543
903.753	0.0145098
903.831	0.0144587
903.910	0.0144788
903.988	0.0144689
904.066	0.0145063
904.144	0.0143344
904.222	0.0144247
904.300	0.0143517
904.378	0.0144593
904.456	0.0143368
904.535	0.0143900
904.613	0.0144304
904.691	0.0144271
904.769	0.0143519
904.847	0.0145469
904.925	0.0144200
905.003	0.0143710
905.081	0.0144236
905.160	0.0144498
905.238	0.0142562
905.316	0.0143252
905.394	0.0142677
905.472	0.0143651
905.550	0.0142542
905.628	0.0142682
905.706	0.0143625
905.785	0.0143488
905.863	0.0143412
905.941	0.0144099
906.019	0.0143477
906.097	0.0143343
906.175	0.0144286
906.253	0.0142411
906.331	0.0145304
906.410	0.0144927
906.488	0.0145076
906.566	0.0144845
906.644	0.0144897
906.722	0.0145522
906.800	0.0146005
906.878	0.0144621
906.956	0.0144781
907.035	0.0145381
907.113	0.0145068
907.191	0.0146038
907.269	0.0145331
907.347	0.0144513
907.425	0.0144810
907.503	0.0145168
907.581	0.0145369
907.660	0.0145680
907.738	0.0145016
907.816	0.0145742
907.894	0.0145504
907.972	0.0145850
908.050	0.0143645
908.128	0.0145303
908.206	0.0145528
908.285	0.0145540
908.363	0.0146912
908.441	0.0145357
908.519	0.0145300
908.597	0.0145577
908.675	0.0146770
908.753	0.0144973
908.831	0.0144628
908.910	0.0144764
908.988	0.0144222
909.066	0.0145161
909.144	0.0145997
909.222	0.0145354
909.300	0.0144849
909.378	0.0144382
909.456	0.0144226
909.535	0.0144324
909.613	0.0144662
909.691	0.0143871
909.769	0.0145125
909.847	0.0144952
909.925	0.0144595
910.003	0.0145653
910.081	0.0144228
910.160	0.0144828
910.238	0.0144917
910.316	0.0145556
910.394	0.0144240
910.472	0.0145418
910.550	0.0145674
910.628	0.0145204
910.706	0.0146046
910.785	0.0143709
910.863	0.0144730
910.941	0.0144388
911.019	0.0143897
911.097	0.0143308
911.175	0.0142292
911.253	0.0143908
911.331	0.0144393
911.410	0.0143854
911.488	0.0143404
911.566	0.0144669
911.644	0.0142889
911.722	0.0143003
911.800	0.0142796
911.878	0.0143000
911.956	0.0142780
912.035	0.0143407
912.113	0.0143797
912.191	0.0144476
912.269	0.0144107
912.347	0.0144645
912.425	0.0143814
912.503	0.0144975
912.581	0.0143980
912.660	0.0143051
912.738	0.0143790
912.816	0.0142748
912.894	0.0143984
912.972	0.0145128
913.050	0.0144144
913.128	0.0144595
913.206	0.0142939
913.285	0.0143910
913.363	0.0144302
913.441	0.0144005
913.519	0.0143821
913.597	0.0144344
913.675	0.0145804
913.753	0.0145197
913.831	0.0144564
913.910	0.0144137
913.988	0.0145196
914.066	0.0144850
914.144	0.0144775
914.222	0.0145161
914.300	0.0143911
914.378	0.0146011
914.456	0.0144963
914.535	0.0144318
914.613	0.0144864
914.691	0.0143063
914.769	0.0144846
914.847	0.0144851
914.925	0.0143208
915.003	0.0143111
915.081	0.0143273
915.160	0.0142924
915.238	0.0144017
915.316	0.0144547
915.394	0.0144778
915.472	0.0143848
915.550	0.0144276
915.628	0.0143430
915.706	0.0142696
915.785	0.0144641
915.863	0.0144734
915.941	0.0142436
916.019	0.0144534
916.097	0.0143401
916.175	0.0143252
916.253	0.0142967
916.331	0.0142043
916.410	0.0141586
916.488	0.0143811
916.566	0.0143155
916.644	0.0143710
916.722	0.0143470
916.800	0.0143602
916.878	0.0143308
916.956	0.0143882
917.035	0.0144786
917.113	0.0143151
917.191	0.0144086
917.269	0.0144175
917.347	0.0144411
917.425	0.0144460
917.503	0.0144047
917.581	0.0146098
917.660	0.0143826
917.738	0.0143809
917.816	0.0144121
917.894	0.0143951
917.972	0.0143388
918.050	0.0144952
918.128	0.0144974
918.206	0.0143851
918.285	0.0144924
918.363	0.0144852
918.441	0.0143311
918.519	0.0143737
918.597	0.0144830
918.675	0.0144460
918.753	0.0143995
918.831	0.0144380
918.910	0.0143922
918.988	0.0144405
919.066	0.0143245
919.144	0.0145113
919.222	0.0145108
919.300	0.0144634
919.378	0.0144142
919.456	0.0144038
919.535	0.0143485
919.613	0.0144750
919.691	0.0143616
919.769	0.0143480
919.847	0.0143942
919.925	0.0145549
920.003	0.0143420
920.081	0.0143983
920.160	0.0143697
920.238	0.0142594
920.316	0.0144118
920.394	0.0143858
920.472	0.0143442
920.550	0.0143152
920.628	0.0143511
920.706	0.0144627
920.785	0.0143451
920.863	0.0145113
920.941	0.0144146
921.019	0.0142547
921.097	0.0143019
921.175	0.0145401
921.253	0.0144136
921.331	0.0144481
921.410	0.0143886
921.488	0.0143702
921.566	0.0142510
921.644	0.0144240
921.722	0.0144952
921.800	0.0143978
921.878	0.0143615
921.956	0.0145950
922.035	0.0145603
922.113	0.0143973
922.191	0.0144821
922.269	0.0144837
922.347	0.0145590
922.425	0.0144911
922.503	0.0145387
922.581	0.0144431
922.660	0.0144396
922.738	0.0144760
922.816	0.0144263
922.894	0.0144057
922.972	0.0143918
923.050	0.0144504
923.128	0.0145189
923.206	0.0144807
923.285	0.0143914
923.363	0.0144070
923.441	0.0145306
923.519	0.0143107
923.597	0.0143768
923.675	0.0143832
923.753	0.0145339
923.831	0.0144297
923.910	0.0144572
923.988	0.0144152
924.066	0.0145280
924.144	0.0144890
924.222	0.0144647
924.300	0.0144664
924.378	0.0144437
924.456	0.0144430
924.535	0.0144274
924.613	0.0145303
924.691	0.0146017
924.769	0.0146511
924.847	0.0145730
924.925	0.0145991
925.003	0.0145392
925.081	0.0144779
925.160	0.0145908
925.238	0.0146786
925.316	0.0145148
925.394	0.0144995
925.472	0.0145042
925.550	0.0146335
925.628	0.0145943
925.706	0.0145403
925.785	0.0146668
925.863	0.0145006
925.941	0.0146294
926.019	0.0145867
926.097	0.0144780
926.175	0.0145182
926.253	0.0146411
926.331	0.0145404
926.410	0.0146093
926.488	0.0145889
926.566	0.0146025
926.644	0.0144908
926.722	0.0145955
926.800	0.0145152
926.878	0.0144783
926.956	0.0145718
927.035	0.0145350
927.113	0.0146003
927.191	0.0144938
927.269	0.0146336
927.347	0.0146690
927.425	0.0145256
927.503	0.0144914
927.581	0.0144035
927.660	0.0146021
927.738	0.0146412
927.816	0.0145061
927.894	0.0144359
927.972	0.0145459
928.050	0.0144646
928.128	0.0144209
928.206	0.0143806
928.285	0.0143810
928.363	0.0145453
928.441	0.0144215
928.519	0.0143649
928.597	0.0143835
928.675	0.0143874
928.753	0.0144933
928.831	0.0144757
928.910	0.0144637
928.988	0.0145169
929.066	0.0143100
929.144	0.0141753
929.222	0.0143762
929.300	0.0142942
929.378	0.0143793
929.456	0.0143667
929.535	0.0143571
929.613	0.0144434
929.691	0.0143556
929.769	0.0143034
929.847	0.0143272
929.925	0.0144222
930.003	0.0143632
930.081	0.0143119
930.160	0.0143246
930.238	0.0142482
930.316	0.0143035
930.394	0.0142358
930.472	0.0142501
930.550	0.0143336
930.628	0.0143509
930.706	0.0144535
930.785	0.0142986
930.863	0.0142793
930.941	0.0142864
931.019	0.0143214
931.097	0.0143138
931.175	0.0143355
931.253	0.0141570
931.331	0.0143259
931.410	0.0144212
931.488	0.0143833
931.566	0.0145179
931.644	0.0145220
931.722	0.0144299
931.800	0.0144522
931.878	0.0144966
931.956	0.0144986
932.035	0.0144421
932.113	0.0144934
932.191	0.0145986
932.269	0.0144623
932.347	0.0145885
932.425	0.0145918
932.503	0.0145336
932.581	0.0145221
932.660	0.0144427
932.738	0.0145168
932.816	0.0145322
932.894	0.0144830
932.972	0.0144832
933.050	0.0145585
933.128	0.0144027
933.206	0.0145541
933.285	0.0145935
933.363	0.0145380
933.441	0.0144285
933.519	0.0145244
933.597	0.0145511
933.675	0.0145188
933.753	0.0145099
933.831	0.0145633
933.910	0.0144203
933.988	0.0144241
934.066	0.0146608
934.144	0.0145430
934.222	0.0144692
934.300	0.0144862
934.378	0.0145464
934.456	0.0145475
934.535	0.0144843
934.613	0.0144352
934.691	0.0145081
934.769	0.0145029
934.847	0.0144733
934.925	0.0143121
935.003	0.0143722
935.081	0.0144616
935.160	0.0145627
935.238	0.0143512
935.316	0.0144628
935.394	0.0144431
935.472	0.0143988
935.550	0.0143429
935.628	0.0142789
935.706	0.0144287
935.785	0.0143977
935.863	0.0145288
935.941	0.0143919
936.019	0.0144227
936.097	0.0145309
936.175	0.0145664
936.253	0.0144882
936.331	0.0144173
936.410	0.0144583
936.488	0.0145525
936.566	0.0144576
936.644	0.0143727
936.722	0.0144691
936.800	0.0144977
936.878	0.0143325
936.956	0.0142937
937.035	0.0144280
937.113	0.0144840
937.191	0.0143311
937.269	0.0144759
937.347	0.0144363
937.425	0.0144425
937.503	0.0143825
937.581	0.0143978
937.660	0.0144984
937.738	0.0144624
937.816	0.0145173
937.894	0.0144485
937.972	0.0143699
938.050	0.0144751
938.128	0.0143846
938.206	0.0144388
938.285	0.0143806
938.363	0.0146062
938.441	0.0143895
938.519	0.0145042
938.597	0.0144582
938.675	0.0144318
938.753	0.0142949
938.831	0.0144102
938.910	0.0143958
938.988	0.0144749
939.066	0.0144511
939.144	0.0144743
939.222	0.0144660
939.300	0.0144908
939.378	0.0143997
939.456	0.0144302
939.535	0.0144699
939.613	0.0144560
939.691	0.0146543
939.769	0.0145376
939.847	0.0144775
939.925	0.0144405
940.003	0.0143964
940.081	0.0145427
940.160	0.0144377
940.238	0.0143420
940.316	0.0144289
940.394	0.0144025
940.472	0.0144233
940.550	0.0145142
940.628	0.0143641
940.706	0.0144620
940.785	0.0143763
940.863	0.0144639
940.941	0.0142590
941.019	0.0143566
941.097	0.0144096
941.175	0.0143459
941.253	0.0144753
941.331	0.0144057
941.410	0.0143919
941.488	0.0143909
941.566	0.0142628
941.644	0.0144424
941.722	0.0142632
941.800	0.0143752
941.878	0.0144981
941.956	0.0143079
942.035	0.0143073
942.113	0.0144657
942.191	0.0143041
942.269	0.0143088
942.347	0.0143427
942.425	0.0142835
942.503	0.0143398
942.581	0.0142546
942.660	0.0142945
942.738	0.0144233
942.816	0.0142349
942.894	0.0144583
942.972	0.0143236
943.050	0.0142886
943.128	0.0142751
943.206	0.0143120
943.285	0.0143935
943.363	0.0143176
943.441	0.0142384
943.519	0.0144012
943.597	0.0144789
943.675	0.0144836
943.753	0.0143974
943.831	0.0144038
943.910	0.0145361
943.988	0.0144719
944.066	0.0144550
944.144	0.0145088
944.222	0.0144063
944.300	0.0144656
944.378	0.0143693
944.456	0.0143276
944.535	0.0144373
944.613	0.0145319
944.691	0.0144320
944.769	0.0144291
944.847	0.0145155
944.925	0.0144198
945.003	0.0142952
945.081	0.0144289
945.160	0.0144096
945.238	0.0144367
945.316	0.0144154
945.394	0.0144685
945.472	0.0144823
945.550	0.0144833
945.628	0.0145220
945.706	0.0144446
945.785	0.0144829
945.863	0.0145948
945.941	0.0144596
946.019	0.0145283
946.097	0.0144430
946.175	0.0145193
946.253	0.0144310
946.331	0.0145010
946.410	0.0145277
946.488	0.0144799
946.566	0.0144912
946.644	0.0144875
946.722	0.0145525
946.800	0.0146328
946.878	0.0144389
946.956	0.0144398
947.035	0.0145829
947.113	0.0145959
947.191	0.0143806
947.269	0.0144978
947.347	0.0144787
947.425	0.0145668
947.503	0.0145195
947.581	0.0145121
947.660	0.0144792
947.738	0.0145097
947.816	0.0145985
947.894	0.0143880
947.972	0.0142984
948.050	0.0144555
948.128	0.0144495
948.206	0.0143710
948.285	0.0144202
948.363	0.0143884
948.441	0.0144446
948.519	0.0145405
948.597	0.0144168
948.675	0.0143567
948.753	0.0144402
948.831	0.0144528
948.910	0.0144116
948.988	0.0144376
949.066	0.0144054
949.144	0.0144555
949.222	0.0144552
949.300	0.0142432
949.378	0.0143431
949.456	0.0144525
949.535	0.0144950
949.613	0.0144170
949.691	0.0144739
949.769	0.0143999
949.847	0.0144140
949.925	0.0144746
950.003	0.0144877
950.081	0.0143707
950.160	0.0144318
950.238	0.0144067
950.316	0.0143534
950.394	0.0143703
950.472	0.0144505
950.550	0.0143095
950.628	0.0143737
950.706	0.0143678
950.785	0.0143452
950.863	0.0144291
950.941	0.0143847
951.019	0.0143488
951.097	0.0144324
951.175	0.0144096
951.253	0.0143556
951.331	0.0144663
951.410	0.0144185
951.488	0.0143681
951.566	0.0143069
951.644	0.0143522
951.722	0.0143882
951.800	0.0144342
951.878	0.0144427
951.956	0.0146004
952.035	0.0143767
952.113	0.0143202
952.191	0.0144112
952.269	0.0144325
952.347	0.0143935
952.425	0.0144073
952.503	0.0143493
952.581	0.0142048
952.660	0.0144109
952.738	0.0144376
952.816	0.0144441
952.894	0.0143462
952.972	0.0144387
953.050	0.0144300
953.128	0.0143688
953.206	0.0142814
953.285	0.0142905
953.363	0.0143432
953.441	0.0145863
953.519	0.0144518
953.597	0.0144717
953.675	0.0143842
953.753	0.0144611
953.831	0.0144469
953.910	0.0144868
953.988	0.0144603
954.066	0.0144492
954.144	0.0144096
954.222	0.0145188
954.300	0.0146404
954.378	0.0145985
954.456	0.0145882
954.535	0.0146439
954.613	0.0146939
954.691	0.0143984
954.769	0.0143785
954.847	0.0145839
954.925	0.0147150
955.003	0.0146041
955.081	0.0146225
955.160	0.0146951
955.238	0.0147247
955.316	0.0146278
955.394	0.0145586
955.472	0.0147609
955.550	0.0147069
955.628	0.0146278
955.706	0.0146117
955.785	0.0146414
955.863	0.0147308
955.941	0.0144936
956.019	0.0146000
956.097	0.0146702
956.175	0.0145370
956.253	0.0144942
956.331	0.0146241
956.410	0.0146882
956.488	0.0146017
956.566	0.0145847
956.644	0.0145300
956.722	0.0145343
956.800	0.0144174
956.878	0.0145888
956.956	0.0145695
957.035	0.0144976
957.113	0.0144816
957.191	0.0144831
957.269	0.0143746
957.347	0.0144768
957.425	0.0143840
957.503	0.0142722
957.581	0.0142412
957.660	0.0144242
957.738	0.0143648
957.816	0.0144780
957.894	0.0145053
957.972	0.0142433
958.050	0.0142395
958.128	0.0143853
958.206	0.0145092
958.285	0.0144006
958.363	0.0143842
958.441	0.0144838
958.519	0.0145007
958.597	0.0144378
958.675	0.0144697
958.753	0.0142267
958.831	0.0142969
958.910	0.0144767
958.988	0.0143877
959.066	0.0145229
959.144	0.0144997
959.222	0.0145349
959.300	0.0146151
959.378	0.0145311
959.456	0.0144989
959.535	0.0144650
959.613	0.0145644
959.691	0.0145586
959.769	0.0145184
959.847	0.0144802
959.925	0.0144987
960.003	0.0145098
960.081	0.0145995
960.160	0.0144566
960.238	0.0144238
960.316	0.0144522
960.394	0.0145218
960.472	0.0145236
960.550	0.0145619
960.628	0.0143919
960.706	0.0145479
960.785	0.0145902
960.863	0.0144662
960.941	0.0143913
961.019	0.0145133
961.097	0.0145667
961.175	0.0146224
961.253	0.0147203
961.331	0.0146986
961.410	0.0146545
961.488	0.0144987
961.566	0.0146825
961.644	0.0145739
961.722	0.0145978
961.800	0.0147139
961.878	0.0145540
961.956	0.0144247
962.035	0.0146030
962.113	0.0146146
962.191	0.0146674
962.269	0.0145255
962.347	0.0145390
962.425	0.0146447
962.503	0.0146561
962.581	0.0145372
962.660	0.0146082
962.738	0.0145200
962.816	0.0144039
962.894	0.0144314
962.972	0.0145770
963.050	0.0144798
963.128	0.0143671
963.206	0.0144640
963.285	0.0144157
963.363	0.0145394
963.441	0.0145358
963.519	0.0144703
963.597	0.0144208
963.675	0.0144835
963.753	0.0144706
963.831	0.0145737
963.910	0.0145190
963.988	0.0144928
964.066	0.0143324
964.144	0.0144510
964.222	0.0144379
964.300	0.0143491
964.378	0.0144312
964.456	0.0145012
964.535	0.0144154
964.613	0.0143454
964.691	0.0144426
964.769	0.0144828
964.847	0.0143864
964.925	0.0144356
965.003	0.0143583
965.081	0.0143933
965.160	0.0143314
965.238	0.0144434
965.316	0.0144342
965.394	0.0144471
965.472	0.0143722
965.550	0.0144594
965.628	0.0145419
965.706	0.0144431
965.785	0.0143603
965.863	0.0144720
965.941	0.0145542
966.019	0.0144633
966.097	0.0144193
966.175	0.0144244
966.253	0.0145057
966.331	0.0143603
966.410	0.0144769
966.488	0.0145897
966.566	0.0145056
966.644	0.0145590
966.722	0.0145337
966.800	0.0144832
966.878	0.0145585
966.956	0.0144418
967.035	0.0143752
967.113	0.0145408
967.191	0.0145101
967.269	0.0143307
967.347	0.0144329
967.425	0.0143584
967.503	0.0143484
967.581	0.0143723
967.660	0.0144521
967.738	0.0143732
967.816	0.0144349
967.894	0.0142712
967.972	0.0143506
968.050	0.0144888
968.128	0.0145309
968.206	0.0144160
968.285	0.0143377
968.363	0.0143053
968.441	0.0143730
968.519	0.0144614
968.597	0.0144915
968.675	0.0145445
968.753	0.0145451
968.831	0.0143810
968.910	0.0143258
968.988	0.0143819
969.066	0.0143800
969.144	0.0143508
969.222	0.0145257
969.300	0.0144238
969.378	0.0143269
969.456	0.0144388
969.535	0.0144528
969.613	0.0143476
969.691	0.0143849
969.769	0.0143974
969.847	0.0143871
969.925	0.0145192
970.003	0.0143020
970.081	0.0142396
970.160	0.0143774
970.238	0.0143683
970.316	0.0142979
970.394	0.0143275
970.472	0.0143619
970.550	0.0144076
970.628	0.0142853
970.706	0.0143066
970.785	0.0143825
970.863	0.0143431
970.941	0.0144135
971.019	0.0142630
971.097	0.0143271
971.175	0.0144707
971.253	0.0145085
971.331	0.0143954
971.410	0.0143734
971.488	0.0143768
971.566	0.0143285
971.644	0.0143166
971.722	0.0143788
971.800	0.0142834
971.878	0.0143929
971.956	0.0144177
972.035	0.0144855
972.113	0.0143687
972.191	0.0143381
972.269	0.0141814
972.347	0.0144052
972.425	0.0142924
972.503	0.0144040
972.581	0.0143069
972.660	0.0142088
972.738	0.0142628
972.816	0.0142672
972.894	0.0143548
972.972	0.0143074
973.050	0.0144936
973.128	0.0144046
973.206	0.0145168
973.285	0.0143680
973.363	0.0142895
973.441	0.0143675
973.519	0.0144940
973.597	0.0144540
973.675	0.0143839
973.753	0.0144383
973.831	0.0144813
973.910	0.0143313
973.988	0.0144336
974.066	0.0144896
974.144	0.0145299
974.222	0.0144155
974.300	0.0145219
974.378	0.0143906
974.456	0.0144260
974.535	0.0144686
974.613	0.0146256
974.691	0.0144939
974.769	0.0145208
974.847	0.0143619
974.925	0.0145007
975.003	0.0144795
975.081	0.0145195
975.160	0.0143585
975.238	0.0143922
975.316	0.0145149
975.394	0.0144582
975.472	0.0143981
975.550	0.0145215
975.628	0.0145387
975.706	0.0144617
975.785	0.0145274
975.863	0.0145336
975.941	0.0146030
976.019	0.0145875
976.097	0.0145265
976.175	0.0145921
976.253	0.0144464
976.331	0.0146658
976.410	0.0145441
976.488	0.0146194
976.566	0.0145686
976.644	0.0144519
976.722	0.0144411
976.800	0.0144671
976.878	0.0145845
976.956	0.0146773
977.035	0.0144769
977.113	0.0144883
977.191	0.0144679
977.269	0.0145852
977.347	0.0144334
977.425	0.0145150
977.503	0.0145557
977.581	0.0145236
977.660	0.0146397
977.738	0.0144233
977.816	0.0144549
977.894	0.0143903
977.972	0.0145468
978.050	0.0146147
978.128	0.0144550
978.206	0.0145744
978.285	0.0145365
978.363	0.0145616
978.441	0.0145538
978.519	0.0144801
978.597	0.0144299
978.675	0.0145616
978.753	0.0145885
978.831	0.0146428
978.910	0.0146481
978.988	0.0145173
979.066	0.0145414
979.144	0.0145039
979.222	0.0145703
979.300	0.0146530
979.378	0.0145329
979.456	0.0145102
979.535	0.0145533
979.613	0.0145049
979.691	0.0144682
979.769	0.0145077
979.847	0.0146411
979.925	0.0144739
