05/03/2022	20:09:11	Ver.	4.1	UNKNOWN
Optical Delay	660.003261	Delta X		0.078125	Sweeps	1	Scan Rate	0/0
Coordinates	Axis 1	NaN	Axis 2	NaN	Axis 3	NaN	Axis 4	NaN	Axis 5	NaN	Axis 6	0.000000
TX Power	0.000000	RX Power	0.000000

660.003	0.0140726
660.081	0.0140695
660.160	0.0142432
660.238	0.0140677
660.316	0.0140417
660.394	0.0140857
660.472	0.0140333
660.550	0.0141677
660.628	0.0140517
660.706	0.0138716
660.785	0.0141937
660.863	0.0140761
660.941	0.0140257
661.019	0.0140435
661.097	0.0140841
661.175	0.0140208
661.253	0.0140665
661.331	0.0140888
661.410	0.0139922
661.488	0.0141863
661.566	0.0141882
661.644	0.0141106
661.722	0.0141040
661.800	0.0140206
661.878	0.0141215
661.956	0.0140990
662.035	0.0141507
662.113	0.0141113
662.191	0.0140600
662.269	0.0139990
662.347	0.0141420
662.425	0.0139923
662.503	0.0140639
662.581	0.0141494
662.660	0.0139849
662.738	0.0139016
662.816	0.0141321
662.894	0.0141998
662.972	0.0140463
663.050	0.0139555
663.128	0.0143047
663.206	0.0141512
663.285	0.0140601
663.363	0.0140483
663.441	0.0140568
663.519	0.0140720
663.597	0.0140437
663.675	0.0140359
663.753	0.0140791
663.831	0.0140844
663.910	0.0140460
663.988	0.0140770
664.066	0.0139838
664.144	0.0140349
664.222	0.0140448
664.300	0.0140932
664.378	0.0140584
664.456	0.0140631
664.535	0.0140286
664.613	0.0140581
664.691	0.0140026
664.769	0.0140720
664.847	0.0140282
664.925	0.0140847
665.003	0.0139826
665.081	0.0139805
665.160	0.0139349
665.238	0.0140164
665.316	0.0139681
665.394	0.0140210
665.472	0.0140237
665.550	0.0140912
665.628	0.0139977
665.706	0.0140458
665.785	0.0140537
665.863	0.0141513
665.941	0.0140646
666.019	0.0141538
666.097	0.0139288
666.175	0.0140742
666.253	0.0140690
666.331	0.0139941
666.410	0.0141122
666.488	0.0140202
666.566	0.0140533
666.644	0.0140801
666.722	0.0140568
666.800	0.0140648
666.878	0.0141206
666.956	0.0141270
667.035	0.0139799
667.113	0.0139435
667.191	0.0141270
667.269	0.0140332
667.347	0.0140614
667.425	0.0139510
667.503	0.0140149
667.581	0.0140891
667.660	0.0141151
667.738	0.0141168
667.816	0.0140657
667.894	0.0141088
667.972	0.0139780
668.050	0.0140408
668.128	0.0139814
668.206	0.0141590
668.285	0.0141413
668.363	0.0142416
668.441	0.0139852
668.519	0.0140411
668.597	0.0140025
668.675	0.0140119
668.753	0.0141562
668.831	0.0141000
668.910	0.0140527
668.988	0.0141582
669.066	0.0141371
669.144	0.0140418
669.222	0.0141994
669.300	0.0140713
669.378	0.0141956
669.456	0.0141827
669.535	0.0141451
669.613	0.0140243
669.691	0.0142582
669.769	0.0140355
669.847	0.0140801
669.925	0.0140625
670.003	0.0142124
670.081	0.0141375
670.160	0.0141783
670.238	0.0139796
670.316	0.0140285
670.394	0.0142364
670.472	0.0141711
670.550	0.0141525
670.628	0.0140130
670.706	0.0139701
670.785	0.0140087
670.863	0.0140685
670.941	0.0139514
671.019	0.0139104
671.097	0.0142410
671.175	0.0140990
671.253	0.0140717
671.331	0.0141528
671.410	0.0141988
671.488	0.0141364
671.566	0.0140365
671.644	0.0139963
671.722	0.0140775
671.800	0.0140717
671.878	0.0140961
671.956	0.0141109
672.035	0.0141296
672.113	0.0138810
672.191	0.0141061
672.269	0.0141515
672.347	0.0141063
672.425	0.0141487
672.503	0.0140431
672.581	0.0139451
672.660	0.0140496
672.738	0.0140967
672.816	0.0140414
672.894	0.0141803
672.972	0.0141548
673.050	0.0140513
673.128	0.0140760
673.206	0.0140151
673.285	0.0140365
673.363	0.0139539
673.441	0.0140809
673.519	0.0140860
673.597	0.0139868
673.675	0.0140837
673.753	0.0141130
673.831	0.0140269
673.910	0.0140180
673.988	0.0141440
674.066	0.0140479
674.144	0.0139721
674.222	0.0139814
674.300	0.0139410
674.378	0.0141932
674.456	0.0141528
674.535	0.0141099
674.613	0.0140843
674.691	0.0139347
674.769	0.0140073
674.847	0.0141087
674.925	0.0140289
675.003	0.0141024
675.081	0.0141682
675.160	0.0141499
675.238	0.0141232
675.316	0.0140933
675.394	0.0141126
675.472	0.0141002
675.550	0.0141062
675.628	0.0140391
675.706	0.0141238
675.785	0.0141599
675.863	0.0139978
675.941	0.0141142
676.019	0.0140757
676.097	0.0140493
676.175	0.0140575
676.253	0.0140491
676.331	0.0141685
676.410	0.0140798
676.488	0.0141193
676.566	0.0140263
676.644	0.0139378
676.722	0.0141075
676.800	0.0140803
676.878	0.0141111
676.956	0.0140800
677.035	0.0141358
677.113	0.0139978
677.191	0.0139947
677.269	0.0139530
677.347	0.0141788
677.425	0.0141048
677.503	0.0141257
677.581	0.0141994
677.660	0.0141010
677.738	0.0140773
677.816	0.0141374
677.894	0.0140766
677.972	0.0141092
678.050	0.0140693
678.128	0.0138767
678.206	0.0141759
678.285	0.0141662
678.363	0.0141087
678.441	0.0140424
678.519	0.0139617
678.597	0.0140651
678.675	0.0140685
678.753	0.0141014
678.831	0.0140445
678.910	0.0141336
678.988	0.0141184
679.066	0.0139191
679.144	0.0139271
679.222	0.0139654
679.300	0.0140910
679.378	0.0139652
679.456	0.0138628
679.535	0.0141692
679.613	0.0140623
679.691	0.0140849
679.769	0.0139793
679.847	0.0140861
679.925	0.0140299
680.003	0.0139971
680.081	0.0140475
680.160	0.0141697
680.238	0.0140314
680.316	0.0140694
680.394	0.0139965
680.472	0.0140003
680.550	0.0140746
680.628	0.0139037
680.706	0.0140474
680.785	0.0139328
680.863	0.0140735
680.941	0.0140620
681.019	0.0140891
681.097	0.0140858
681.175	0.0142017
681.253	0.0141242
681.331	0.0140810
681.410	0.0139632
681.488	0.0141128
681.566	0.0140926
681.644	0.0140877
681.722	0.0140924
681.800	0.0140283
681.878	0.0140732
681.956	0.0140996
682.035	0.0140461
682.113	0.0140831
682.191	0.0140338
682.269	0.0142271
682.347	0.0141244
682.425	0.0141328
682.503	0.0140606
682.581	0.0142780
682.660	0.0141453
682.738	0.0140091
682.816	0.0140814
682.894	0.0141160
682.972	0.0140202
683.050	0.0142302
683.128	0.0140974
683.206	0.0141168
683.285	0.0140589
683.363	0.0141154
683.441	0.0140434
683.519	0.0139985
683.597	0.0140416
683.675	0.0140089
683.753	0.0141460
683.831	0.0141027
683.910	0.0141526
683.988	0.0142110
684.066	0.0140718
684.144	0.0140518
684.222	0.0140661
684.300	0.0141338
684.378	0.0141711
684.456	0.0139814
684.535	0.0141593
684.613	0.0141298
684.691	0.0139427
684.769	0.0140604
684.847	0.0140813
684.925	0.0140788
685.003	0.0142031
685.081	0.0140754
685.160	0.0140833
685.238	0.0141643
685.316	0.0141180
685.394	0.0139930
685.472	0.0141025
685.550	0.0140646
685.628	0.0140294
685.706	0.0140854
685.785	0.0140735
685.863	0.0139905
685.941	0.0140349
686.019	0.0141534
686.097	0.0141422
686.175	0.0140472
686.253	0.0139989
686.331	0.0139237
686.410	0.0140984
686.488	0.0141452
686.566	0.0141268
686.644	0.0140371
686.722	0.0139356
686.800	0.0140611
686.878	0.0141680
686.956	0.0139365
687.035	0.0141308
687.113	0.0140246
687.191	0.0141361
687.269	0.0139741
687.347	0.0140292
687.425	0.0140051
687.503	0.0140675
687.581	0.0140024
687.660	0.0141008
687.738	0.0139990
687.816	0.0141407
687.894	0.0141432
687.972	0.0141366
688.050	0.0140855
688.128	0.0141697
688.206	0.0140406
688.285	0.0140350
688.363	0.0139737
688.441	0.0140054
688.519	0.0139987
688.597	0.0140350
688.675	0.0139435
688.753	0.0140266
688.831	0.0141219
688.910	0.0141357
688.988	0.0140977
689.066	0.0141221
689.144	0.0140099
689.222	0.0140082
689.300	0.0140723
689.378	0.0140854
689.456	0.0141664
689.535	0.0142067
689.613	0.0142113
689.691	0.0140973
689.769	0.0139536
689.847	0.0141442
689.925	0.0140521
690.003	0.0140842
690.081	0.0142358
690.160	0.0141534
690.238	0.0141196
690.316	0.0140607
690.394	0.0140195
690.472	0.0141238
690.550	0.0140916
690.628	0.0141395
690.706	0.0140813
690.785	0.0140363
690.863	0.0141537
690.941	0.0140784
691.019	0.0141687
691.097	0.0141029
691.175	0.0140424
691.253	0.0139521
691.331	0.0141068
691.410	0.0141261
691.488	0.0140630
691.566	0.0140912
691.644	0.0140729
691.722	0.0140462
691.800	0.0140410
691.878	0.0140765
691.956	0.0141727
692.035	0.0141726
692.113	0.0140257
692.191	0.0140762
692.269	0.0139063
692.347	0.0140842
692.425	0.0140272
692.503	0.0140384
692.581	0.0140900
692.660	0.0141780
692.738	0.0139969
692.816	0.0139540
692.894	0.0140681
692.972	0.0141080
693.050	0.0140099
693.128	0.0141486
693.206	0.0141241
693.285	0.0140145
693.363	0.0141285
693.441	0.0140187
693.519	0.0140000
693.597	0.0140737
693.675	0.0140736
693.753	0.0140535
693.831	0.0140784
693.910	0.0140994
693.988	0.0140587
694.066	0.0141221
694.144	0.0141246
694.222	0.0140199
694.300	0.0141605
694.378	0.0141334
694.456	0.0140884
694.535	0.0139784
694.613	0.0140573
694.691	0.0140956
694.769	0.0141279
694.847	0.0140950
694.925	0.0141045
695.003	0.0140543
695.081	0.0140861
695.160	0.0139514
695.238	0.0140481
695.316	0.0141531
695.394	0.0140724
695.472	0.0140605
695.550	0.0139960
695.628	0.0139783
695.706	0.0141783
695.785	0.0139944
695.863	0.0139827
695.941	0.0140734
696.019	0.0140680
696.097	0.0140842
696.175	0.0140172
696.253	0.0140527
696.331	0.0141585
696.410	0.0141861
696.488	0.0140444
696.566	0.0140922
696.644	0.0141271
696.722	0.0140160
696.800	0.0139503
696.878	0.0138977
696.956	0.0139718
697.035	0.0139330
697.113	0.0139616
697.191	0.0139889
697.269	0.0140483
697.347	0.0140915
697.425	0.0141421
697.503	0.0141303
697.581	0.0141373
697.660	0.0139966
697.738	0.0141289
697.816	0.0140349
697.894	0.0139837
697.972	0.0140061
698.050	0.0140175
698.128	0.0140402
698.206	0.0140824
698.285	0.0140412
698.363	0.0139764
698.441	0.0140141
698.519	0.0140260
698.597	0.0141414
698.675	0.0139488
698.753	0.0140247
698.831	0.0141277
698.910	0.0140186
698.988	0.0141882
699.066	0.0140096
699.144	0.0140287
699.222	0.0139131
699.300	0.0139549
699.378	0.0142101
699.456	0.0140822
699.535	0.0139452
699.613	0.0140726
699.691	0.0140712
699.769	0.0140578
699.847	0.0140556
699.925	0.0140314
700.003	0.0139616
700.081	0.0141412
700.160	0.0140382
700.238	0.0139981
700.316	0.0140335
700.394	0.0141955
700.472	0.0141580
700.550	0.0140275
700.628	0.0141561
700.706	0.0140665
700.785	0.0141837
700.863	0.0141415
700.941	0.0141227
701.019	0.0141772
701.097	0.0142283
701.175	0.0141791
701.253	0.0142339
701.331	0.0141206
701.410	0.0142400
701.488	0.0142700
701.566	0.0140220
701.644	0.0140295
701.722	0.0140497
701.800	0.0139951
701.878	0.0140630
701.956	0.0139622
702.035	0.0140498
702.113	0.0141210
702.191	0.0139999
702.269	0.0140023
702.347	0.0141402
702.425	0.0140077
702.503	0.0139915
702.581	0.0140278
702.660	0.0140395
702.738	0.0140514
702.816	0.0140588
702.894	0.0141323
702.972	0.0141308
703.050	0.0141726
703.128	0.0141084
703.206	0.0141214
703.285	0.0141249
703.363	0.0141563
703.441	0.0142290
703.519	0.0141087
703.597	0.0141059
703.675	0.0141458
703.753	0.0141627
703.831	0.0143182
703.910	0.0142294
703.988	0.0142384
704.066	0.0142884
704.144	0.0142682
704.222	0.0142798
704.300	0.0143633
704.378	0.0144195
704.456	0.0142781
704.535	0.0142594
704.613	0.0143936
704.691	0.0144128
704.769	0.0143946
704.847	0.0143372
704.925	0.0145076
705.003	0.0143698
705.081	0.0143652
705.160	0.0142941
705.238	0.0143275
705.316	0.0142458
705.394	0.0142821
705.472	0.0142949
705.550	0.0142086
705.628	0.0141926
705.706	0.0142670
705.785	0.0140653
705.863	0.0141201
705.941	0.0141792
706.019	0.0140015
706.097	0.0139649
706.175	0.0140328
706.253	0.0139575
706.331	0.0137646
706.410	0.0138159
706.488	0.0138620
706.566	0.0137066
706.644	0.0137385
706.722	0.0136820
706.800	0.0137632
706.878	0.0134834
706.956	0.0131462
707.035	0.0129006
707.113	0.0123038
707.191	0.0115177
707.269	0.0105292
707.347	0.00949539
707.425	0.00879730
707.503	0.00868332
707.581	0.00929741
707.660	0.0108229
707.738	0.0133166
707.816	0.0162343
707.894	0.0191491
707.972	0.0211716
708.050	0.0221476
708.128	0.0214429
708.206	0.0190965
708.285	0.0156100
708.363	0.0117352
708.441	0.00781525
708.519	0.00460907
708.597	0.00275093
708.675	0.00223717
708.753	0.00384583
708.831	0.00733192
708.910	0.0117481
708.988	0.0170124
709.066	0.0223697
709.144	0.0271446
709.222	0.0309566
709.300	0.0329277
709.378	0.0332181
709.456	0.0316405
709.535	0.0281944
709.613	0.0236927
709.691	0.0182491
709.769	0.0128849
709.847	0.00777184
709.925	0.00351883
710.003	0.000673370
710.081	-0.000595169
710.160	-0.000667496
710.238	0.000356140
710.316	0.00234322
710.394	0.00488693
710.472	0.00768791
710.550	0.0104880
710.628	0.0131988
710.706	0.0155556
710.785	0.0174787
710.863	0.0187652
710.941	0.0196980
711.019	0.0201328
711.097	0.0197273
711.175	0.0191885
711.253	0.0182193
711.331	0.0169173
711.410	0.0158624
711.488	0.0148930
711.566	0.0141479
711.644	0.0134622
711.722	0.0129039
711.800	0.0127350
711.878	0.0126331
711.956	0.0126281
712.035	0.0125445
712.113	0.0124561
712.191	0.0126776
712.269	0.0129188
712.347	0.0134374
712.425	0.0140787
712.503	0.0145918
712.581	0.0154462
712.660	0.0160945
712.738	0.0167204
712.816	0.0171613
712.894	0.0174061
712.972	0.0173337
713.050	0.0168959
713.128	0.0161841
713.206	0.0152457
713.285	0.0141319
713.363	0.0130069
713.441	0.0122413
713.519	0.0114781
713.597	0.0106619
713.675	0.0103428
713.753	0.0103693
713.831	0.0104071
713.910	0.0109855
713.988	0.0114529
714.066	0.0121093
714.144	0.0129000
714.222	0.0137110
714.300	0.0144508
714.378	0.0149336
714.456	0.0154603
714.535	0.0161009
714.613	0.0165829
714.691	0.0168573
714.769	0.0170128
714.847	0.0170158
714.925	0.0168870
715.003	0.0165537
715.081	0.0159853
715.160	0.0152450
715.238	0.0145468
715.316	0.0140040
715.394	0.0132633
715.472	0.0128207
715.550	0.0126286
715.628	0.0123653
715.706	0.0122273
715.785	0.0122949
715.863	0.0124496
715.941	0.0126598
716.019	0.0130131
716.097	0.0134261
716.175	0.0137823
716.253	0.0139930
716.331	0.0146198
716.410	0.0150633
716.488	0.0154637
716.566	0.0158892
716.644	0.0162528
716.722	0.0166016
716.800	0.0167971
716.878	0.0166179
716.956	0.0164130
717.035	0.0159832
717.113	0.0154796
717.191	0.0150865
717.269	0.0146326
717.347	0.0141666
717.425	0.0137949
717.503	0.0134238
717.581	0.0132178
717.660	0.0129211
717.738	0.0125946
717.816	0.0123487
717.894	0.0119921
717.972	0.0116290
718.050	0.0113271
718.128	0.0111463
718.206	0.0107973
718.285	0.0109762
718.363	0.0109568
718.441	0.0112747
718.519	0.0117915
718.597	0.0120270
718.675	0.0124756
718.753	0.0126933
718.831	0.0130415
718.910	0.0131973
718.988	0.0133884
719.066	0.0135380
719.144	0.0139441
719.222	0.0142468
719.300	0.0146561
719.378	0.0151096
719.456	0.0154971
719.535	0.0157631
719.613	0.0161581
719.691	0.0163705
719.769	0.0163761
719.847	0.0162472
719.925	0.0159050
720.003	0.0155523
720.081	0.0154755
720.160	0.0152509
720.238	0.0151623
720.316	0.0151751
720.394	0.0151825
720.472	0.0151846
720.550	0.0152728
720.628	0.0154420
720.706	0.0152247
720.785	0.0151166
720.863	0.0149903
720.941	0.0150262
721.019	0.0147662
721.097	0.0147527
721.175	0.0146593
721.253	0.0144073
721.331	0.0141146
721.410	0.0137403
721.488	0.0133022
721.566	0.0127753
721.644	0.0124881
721.722	0.0120522
721.800	0.0117653
721.878	0.0113434
721.956	0.0110249
722.035	0.0112167
722.113	0.0112198
722.191	0.0112714
722.269	0.0114191
722.347	0.0117992
722.425	0.0119171
722.503	0.0122150
722.581	0.0126665
722.660	0.0130061
722.738	0.0132964
722.816	0.0136075
722.894	0.0141581
722.972	0.0147620
723.050	0.0151659
723.128	0.0155260
723.206	0.0157905
723.285	0.0158395
723.363	0.0159161
723.441	0.0159304
723.519	0.0158230
723.597	0.0156630
723.675	0.0155034
723.753	0.0155631
723.831	0.0156789
723.910	0.0155061
723.988	0.0156570
724.066	0.0154800
724.144	0.0151824
724.222	0.0149969
724.300	0.0148047
724.378	0.0147803
724.456	0.0147254
724.535	0.0146638
724.613	0.0145586
724.691	0.0143810
724.769	0.0141638
724.847	0.0138692
724.925	0.0135928
725.003	0.0131510
725.081	0.0127747
725.160	0.0124744
725.238	0.0121725
725.316	0.0120412
725.394	0.0121009
725.472	0.0122719
725.550	0.0126672
725.628	0.0131304
725.706	0.0137310
725.785	0.0140108
725.863	0.0146127
725.941	0.0148190
726.019	0.0151553
726.097	0.0153344
726.175	0.0153865
726.253	0.0154110
726.331	0.0156052
726.410	0.0156207
726.488	0.0155862
726.566	0.0156213
726.644	0.0155799
726.722	0.0155016
726.800	0.0151517
726.878	0.0150233
726.956	0.0147675
727.035	0.0143402
727.113	0.0141130
727.191	0.0138316
727.269	0.0134322
727.347	0.0134098
727.425	0.0134132
727.503	0.0131412
727.581	0.0130339
727.660	0.0131611
727.738	0.0132011
727.816	0.0131580
727.894	0.0133295
727.972	0.0136105
728.050	0.0137486
728.128	0.0140979
728.206	0.0143850
728.285	0.0146060
728.363	0.0145238
728.441	0.0146579
728.519	0.0147153
728.597	0.0144169
728.675	0.0143067
728.753	0.0139727
728.831	0.0134728
728.910	0.0133046
728.988	0.0127804
729.066	0.0123914
729.144	0.0120132
729.222	0.0117183
729.300	0.0116969
729.378	0.0117251
729.456	0.0117916
729.535	0.0121553
729.613	0.0124638
729.691	0.0128072
729.769	0.0132601
729.847	0.0137976
729.925	0.0143082
730.003	0.0147121
730.081	0.0147854
730.160	0.0149358
730.238	0.0150652
730.316	0.0150133
730.394	0.0148044
730.472	0.0145937
730.550	0.0143977
730.628	0.0142960
730.706	0.0140942
730.785	0.0140803
730.863	0.0142139
730.941	0.0145977
731.019	0.0144154
731.097	0.0147576
731.175	0.0149571
731.253	0.0152049
731.331	0.0155301
731.410	0.0155946
731.488	0.0158070
731.566	0.0160171
731.644	0.0161668
731.722	0.0161117
731.800	0.0161074
731.878	0.0158064
731.956	0.0157458
732.035	0.0154610
732.113	0.0151732
732.191	0.0149904
732.269	0.0147681
732.347	0.0145171
732.425	0.0142689
732.503	0.0138128
732.581	0.0133372
732.660	0.0132984
732.738	0.0128969
732.816	0.0125355
732.894	0.0122761
732.972	0.0119735
733.050	0.0119465
733.128	0.0120244
733.206	0.0121339
733.285	0.0122752
733.363	0.0127087
733.441	0.0129322
733.519	0.0132240
733.597	0.0135317
733.675	0.0137354
733.753	0.0142313
733.831	0.0145509
733.910	0.0146751
733.988	0.0146412
734.066	0.0146259
734.144	0.0143314
734.222	0.0141151
734.300	0.0138638
734.378	0.0136139
734.456	0.0132909
734.535	0.0130492
734.613	0.0129409
734.691	0.0128614
734.769	0.0129685
734.847	0.0130542
734.925	0.0132678
735.003	0.0135047
735.081	0.0137471
735.160	0.0140440
735.238	0.0142654
735.316	0.0144136
735.394	0.0144756
735.472	0.0145391
735.550	0.0145825
735.628	0.0145865
735.706	0.0145622
735.785	0.0145834
735.863	0.0147673
735.941	0.0147475
736.019	0.0147133
736.097	0.0145827
736.175	0.0145856
736.253	0.0147034
736.331	0.0145674
736.410	0.0146281
736.488	0.0145982
736.566	0.0146737
736.644	0.0148066
736.722	0.0148060
736.800	0.0148637
736.878	0.0149711
736.956	0.0148603
737.035	0.0147363
737.113	0.0144997
737.191	0.0143427
737.269	0.0141761
737.347	0.0139522
737.425	0.0138985
737.503	0.0138065
737.581	0.0138268
737.660	0.0140204
737.738	0.0140092
737.816	0.0139526
737.894	0.0139846
737.972	0.0138777
738.050	0.0140444
738.128	0.0138383
738.206	0.0141042
738.285	0.0140637
738.363	0.0139069
738.441	0.0140404
738.519	0.0141424
738.597	0.0142767
738.675	0.0143544
738.753	0.0144014
738.831	0.0145001
738.910	0.0144897
738.988	0.0145487
739.066	0.0143806
739.144	0.0145451
739.222	0.0142913
739.300	0.0142827
739.378	0.0140239
739.456	0.0140875
739.535	0.0138707
739.613	0.0136952
739.691	0.0133759
739.769	0.0134080
739.847	0.0132887
739.925	0.0134079
740.003	0.0134409
740.081	0.0135273
740.160	0.0138231
740.238	0.0139684
740.316	0.0141147
740.394	0.0143906
740.472	0.0145259
740.550	0.0147845
740.628	0.0147029
740.706	0.0144622
740.785	0.0142390
740.863	0.0139684
740.941	0.0136659
741.019	0.0133785
741.097	0.0132202
741.175	0.0128822
741.253	0.0126121
741.331	0.0124438
741.410	0.0124081
741.488	0.0124457
741.566	0.0126263
741.644	0.0127464
741.722	0.0131683
741.800	0.0134437
741.878	0.0136375
741.956	0.0140873
742.035	0.0142228
742.113	0.0144961
742.191	0.0146481
742.269	0.0149764
742.347	0.0150446
742.425	0.0149166
742.503	0.0147995
742.581	0.0146192
742.660	0.0147285
742.738	0.0144721
742.816	0.0142660
742.894	0.0143973
742.972	0.0142442
743.050	0.0141544
743.128	0.0142544
743.206	0.0143673
743.285	0.0143072
743.363	0.0143690
743.441	0.0144789
743.519	0.0143784
743.597	0.0144670
743.675	0.0143373
743.753	0.0144804
743.831	0.0145565
743.910	0.0145538
743.988	0.0145844
744.066	0.0145687
744.144	0.0146405
744.222	0.0145564
744.300	0.0146105
744.378	0.0145242
744.456	0.0145350
744.535	0.0145580
744.613	0.0144624
744.691	0.0143053
744.769	0.0143456
744.847	0.0143468
744.925	0.0142368
745.003	0.0139185
745.081	0.0138837
745.160	0.0139484
745.238	0.0137026
745.316	0.0136171
745.394	0.0135580
745.472	0.0133215
745.550	0.0136366
745.628	0.0135136
745.706	0.0135144
745.785	0.0135703
745.863	0.0135225
745.941	0.0135080
746.019	0.0135681
746.097	0.0135252
746.175	0.0132396
746.253	0.0132539
746.331	0.0132879
746.410	0.0130588
746.488	0.0132851
746.566	0.0133066
746.644	0.0130121
746.722	0.0133290
746.800	0.0135435
746.878	0.0135498
746.956	0.0138347
747.035	0.0141092
747.113	0.0140620
747.191	0.0139389
747.269	0.0143060
747.347	0.0141402
747.425	0.0139499
747.503	0.0141544
747.581	0.0140266
747.660	0.0139613
747.738	0.0139075
747.816	0.0140195
747.894	0.0140064
747.972	0.0141172
748.050	0.0142110
748.128	0.0140872
748.206	0.0143836
748.285	0.0143508
748.363	0.0142307
748.441	0.0142963
748.519	0.0143755
748.597	0.0144819
748.675	0.0143425
748.753	0.0144201
748.831	0.0145289
748.910	0.0143832
748.988	0.0144778
749.066	0.0145248
749.144	0.0146065
749.222	0.0145065
749.300	0.0145872
749.378	0.0144802
749.456	0.0146638
749.535	0.0148096
749.613	0.0148203
749.691	0.0150340
749.769	0.0150341
749.847	0.0150293
749.925	0.0149931
750.003	0.0150343
750.081	0.0148181
750.160	0.0147281
750.238	0.0146053
750.316	0.0143466
750.394	0.0143282
750.472	0.0142780
750.550	0.0141458
750.628	0.0141801
750.706	0.0143535
750.785	0.0143176
750.863	0.0142809
750.941	0.0142487
751.019	0.0143542
751.097	0.0144147
751.175	0.0143858
751.253	0.0143877
751.331	0.0143940
751.410	0.0143641
751.488	0.0142292
751.566	0.0141654
751.644	0.0137965
751.722	0.0134595
751.800	0.0134575
751.878	0.0132608
751.956	0.0132092
752.035	0.0129207
752.113	0.0130386
752.191	0.0132223
752.269	0.0132162
752.347	0.0133373
752.425	0.0135092
752.503	0.0136117
752.581	0.0136482
752.660	0.0135688
752.738	0.0139594
752.816	0.0139643
752.894	0.0140425
752.972	0.0141383
753.050	0.0143810
753.128	0.0143423
753.206	0.0142590
753.285	0.0143709
753.363	0.0144405
753.441	0.0142078
753.519	0.0140825
753.597	0.0140802
753.675	0.0140213
753.753	0.0138970
753.831	0.0137865
753.910	0.0139317
753.988	0.0137179
754.066	0.0134893
754.144	0.0134874
754.222	0.0133186
754.300	0.0133620
754.378	0.0134232
754.456	0.0135690
754.535	0.0136489
754.613	0.0135776
754.691	0.0137639
754.769	0.0139751
754.847	0.0143313
754.925	0.0144580
755.003	0.0147283
755.081	0.0148170
755.160	0.0150242
755.238	0.0152319
755.316	0.0151483
755.394	0.0150056
755.472	0.0149376
755.550	0.0149027
755.628	0.0146877
755.706	0.0144814
755.785	0.0145346
755.863	0.0143597
755.941	0.0141948
756.019	0.0140599
756.097	0.0140466
756.175	0.0140791
756.253	0.0140831
756.331	0.0141698
756.410	0.0142007
756.488	0.0141772
756.566	0.0142416
756.644	0.0143607
756.722	0.0145659
756.800	0.0143849
756.878	0.0144598
756.956	0.0143423
757.035	0.0144458
757.113	0.0144421
757.191	0.0142248
757.269	0.0140967
757.347	0.0140350
757.425	0.0140337
757.503	0.0137466
757.581	0.0137180
757.660	0.0139175
757.738	0.0140371
757.816	0.0139273
757.894	0.0139800
757.972	0.0139890
758.050	0.0139959
758.128	0.0140075
758.206	0.0139812
758.285	0.0140227
758.363	0.0139101
758.441	0.0141375
758.519	0.0140582
758.597	0.0141686
758.675	0.0141361
758.753	0.0142455
758.831	0.0142531
758.910	0.0142393
758.988	0.0143170
759.066	0.0141917
759.144	0.0141982
759.222	0.0140412
759.300	0.0138158
759.378	0.0136611
759.456	0.0135655
759.535	0.0136089
759.613	0.0135433
759.691	0.0135117
759.769	0.0133398
759.847	0.0132038
759.925	0.0131852
760.003	0.0133552
760.081	0.0134895
760.160	0.0135810
760.238	0.0136984
760.316	0.0137729
760.394	0.0140115
760.472	0.0141744
760.550	0.0141890
760.628	0.0141399
760.706	0.0140943
760.785	0.0139040
760.863	0.0139925
760.941	0.0138499
761.019	0.0137647
761.097	0.0137498
761.175	0.0137450
761.253	0.0136794
761.331	0.0138741
761.410	0.0140685
761.488	0.0139538
761.566	0.0140686
761.644	0.0142910
761.722	0.0143040
761.800	0.0144114
761.878	0.0144793
761.956	0.0146424
762.035	0.0146702
762.113	0.0147320
762.191	0.0147168
762.269	0.0148712
762.347	0.0148213
762.425	0.0148238
762.503	0.0146825
762.581	0.0146001
762.660	0.0144711
762.738	0.0143195
762.816	0.0142364
762.894	0.0143055
762.972	0.0143603
763.050	0.0140342
763.128	0.0139442
763.206	0.0141940
763.285	0.0142031
763.363	0.0141801
763.441	0.0141357
763.519	0.0142261
763.597	0.0143883
763.675	0.0144104
763.753	0.0144571
763.831	0.0145377
763.910	0.0145187
763.988	0.0146111
764.066	0.0147033
764.144	0.0146288
764.222	0.0147160
764.300	0.0145454
764.378	0.0145902
764.456	0.0144857
764.535	0.0140903
764.613	0.0139761
764.691	0.0138279
764.769	0.0136363
764.847	0.0136948
764.925	0.0135961
765.003	0.0133806
765.081	0.0135292
765.160	0.0135168
765.238	0.0134500
765.316	0.0134254
765.394	0.0136436
765.472	0.0136551
765.550	0.0136052
765.628	0.0137050
765.706	0.0138976
765.785	0.0139368
765.863	0.0138510
765.941	0.0139145
766.019	0.0138645
766.097	0.0138606
766.175	0.0138667
766.253	0.0139902
766.331	0.0139053
766.410	0.0137580
766.488	0.0137527
766.566	0.0137259
766.644	0.0136897
766.722	0.0136880
766.800	0.0136353
766.878	0.0136950
766.956	0.0139388
767.035	0.0139409
767.113	0.0139242
767.191	0.0140427
767.269	0.0139987
767.347	0.0138844
767.425	0.0140553
767.503	0.0140444
767.581	0.0140290
767.660	0.0140754
767.738	0.0141428
767.816	0.0140618
767.894	0.0141339
767.972	0.0141883
768.050	0.0141197
768.128	0.0141485
768.206	0.0140917
768.285	0.0141890
768.363	0.0141352
768.441	0.0142026
768.519	0.0141145
768.597	0.0140879
768.675	0.0141362
768.753	0.0141263
768.831	0.0141946
768.910	0.0140755
768.988	0.0141103
769.066	0.0141078
769.144	0.0141732
769.222	0.0142984
769.300	0.0143165
769.378	0.0143433
769.456	0.0145103
769.535	0.0144632
769.613	0.0144581
769.691	0.0144707
769.769	0.0145317
769.847	0.0144917
769.925	0.0144727
770.003	0.0143204
770.081	0.0143227
770.160	0.0142894
770.238	0.0144193
770.316	0.0143665
770.394	0.0143574
770.472	0.0142959
770.550	0.0143040
770.628	0.0143394
770.706	0.0143126
770.785	0.0146697
770.863	0.0145637
770.941	0.0144322
771.019	0.0143733
771.097	0.0143964
771.175	0.0145618
771.253	0.0144829
771.331	0.0144794
771.410	0.0142818
771.488	0.0141557
771.566	0.0141103
771.644	0.0139140
771.722	0.0136710
771.800	0.0138190
771.878	0.0136722
771.956	0.0134171
772.035	0.0135570
772.113	0.0137717
772.191	0.0136707
772.269	0.0136712
772.347	0.0136393
772.425	0.0135176
772.503	0.0136379
772.581	0.0135141
772.660	0.0136655
772.738	0.0136589
772.816	0.0136094
772.894	0.0137778
772.972	0.0136652
773.050	0.0136707
773.128	0.0139417
773.206	0.0137930
773.285	0.0138649
773.363	0.0139220
773.441	0.0140270
773.519	0.0140160
773.597	0.0140424
773.675	0.0138860
773.753	0.0139361
773.831	0.0140726
773.910	0.0140734
773.988	0.0138265
774.066	0.0139412
774.144	0.0140556
774.222	0.0138822
774.300	0.0138532
774.378	0.0138892
774.456	0.0139220
774.535	0.0140427
774.613	0.0141769
774.691	0.0141158
774.769	0.0142137
774.847	0.0141811
774.925	0.0142202
775.003	0.0144107
775.081	0.0144670
775.160	0.0143748
775.238	0.0142851
775.316	0.0143681
775.394	0.0143112
775.472	0.0143484
775.550	0.0141554
775.628	0.0141492
775.706	0.0141954
775.785	0.0141302
775.863	0.0141095
775.941	0.0141267
776.019	0.0141078
776.097	0.0142632
776.175	0.0142232
776.253	0.0143750
776.331	0.0144602
776.410	0.0143803
776.488	0.0144109
776.566	0.0144289
776.644	0.0142672
776.722	0.0143459
776.800	0.0142725
776.878	0.0143536
776.956	0.0140787
777.035	0.0141147
777.113	0.0141005
777.191	0.0141875
777.269	0.0142961
777.347	0.0142666
777.425	0.0141896
777.503	0.0143640
777.581	0.0145615
777.660	0.0144836
777.738	0.0146017
777.816	0.0146645
777.894	0.0145687
777.972	0.0144590
778.050	0.0144636
778.128	0.0144224
778.206	0.0143124
778.285	0.0143573
778.363	0.0143462
778.441	0.0141814
778.519	0.0141778
778.597	0.0141270
778.675	0.0141165
778.753	0.0141885
778.831	0.0141579
778.910	0.0140108
778.988	0.0140848
779.066	0.0141119
779.144	0.0139164
779.222	0.0138821
779.300	0.0139371
779.378	0.0139322
779.456	0.0138914
779.535	0.0141297
779.613	0.0139649
779.691	0.0139621
779.769	0.0140175
779.847	0.0139256
779.925	0.0138314
780.003	0.0138517
780.081	0.0138665
780.160	0.0139751
780.238	0.0139963
780.316	0.0137366
780.394	0.0137939
780.472	0.0138282
780.550	0.0138047
780.628	0.0135040
780.706	0.0134662
780.785	0.0135788
780.863	0.0134374
780.941	0.0133702
781.019	0.0133767
781.097	0.0132932
781.175	0.0133227
781.253	0.0134394
781.331	0.0136491
781.410	0.0135159
781.488	0.0136264
781.566	0.0137010
781.644	0.0136959
781.722	0.0138868
781.800	0.0140488
781.878	0.0140372
781.956	0.0140459
782.035	0.0141436
782.113	0.0140298
782.191	0.0140004
782.269	0.0141411
782.347	0.0140266
782.425	0.0141761
782.503	0.0141534
782.581	0.0141382
782.660	0.0141191
782.738	0.0140223
782.816	0.0142255
782.894	0.0142210
782.972	0.0141945
783.050	0.0142587
783.128	0.0143850
783.206	0.0143182
783.285	0.0142374
783.363	0.0144246
783.441	0.0145032
783.519	0.0143382
783.597	0.0144692
783.675	0.0144521
783.753	0.0143990
783.831	0.0144715
783.910	0.0144446
783.988	0.0143867
784.066	0.0143576
784.144	0.0143788
784.222	0.0142294
784.300	0.0141508
784.378	0.0141642
784.456	0.0141962
784.535	0.0141766
784.613	0.0141502
784.691	0.0139931
784.769	0.0140793
784.847	0.0142025
784.925	0.0140683
785.003	0.0141241
785.081	0.0141584
785.160	0.0140761
785.238	0.0141579
785.316	0.0142468
785.394	0.0140231
785.472	0.0142461
785.550	0.0142777
785.628	0.0140771
785.706	0.0139625
785.785	0.0138332
785.863	0.0139337
785.941	0.0138669
786.019	0.0136295
786.097	0.0135306
786.175	0.0136153
786.253	0.0136837
786.331	0.0135830
786.410	0.0136255
786.488	0.0136787
786.566	0.0137428
786.644	0.0135426
786.722	0.0136781
786.800	0.0137019
786.878	0.0138709
786.956	0.0137986
787.035	0.0138543
787.113	0.0140019
787.191	0.0139854
787.269	0.0140817
787.347	0.0139711
787.425	0.0139164
787.503	0.0139308
787.581	0.0139770
787.660	0.0138134
787.738	0.0137366
787.816	0.0138149
787.894	0.0138985
787.972	0.0138750
788.050	0.0138814
788.128	0.0139630
788.206	0.0139117
788.285	0.0140858
788.363	0.0141023
788.441	0.0141912
788.519	0.0141869
788.597	0.0139227
788.675	0.0138672
788.753	0.0139168
788.831	0.0137245
788.910	0.0136410
788.988	0.0136403
789.066	0.0136906
789.144	0.0135645
789.222	0.0136916
789.300	0.0136888
789.378	0.0138082
789.456	0.0137865
789.535	0.0139779
789.613	0.0141093
789.691	0.0142396
789.769	0.0141336
789.847	0.0142213
789.925	0.0143222
790.003	0.0142030
790.081	0.0142452
790.160	0.0142143
790.238	0.0143794
790.316	0.0142155
790.394	0.0144370
790.472	0.0143509
790.550	0.0143392
790.628	0.0144337
790.706	0.0144530
790.785	0.0144265
790.863	0.0145135
790.941	0.0145670
791.019	0.0145935
791.097	0.0146460
791.175	0.0146181
791.253	0.0146028
791.331	0.0144553
791.410	0.0144025
791.488	0.0141278
791.566	0.0140716
791.644	0.0142184
791.722	0.0142287
791.800	0.0140110
791.878	0.0139679
791.956	0.0141933
792.035	0.0142725
792.113	0.0140675
792.191	0.0140858
792.269	0.0141384
792.347	0.0140872
792.425	0.0142168
792.503	0.0141837
792.581	0.0141583
792.660	0.0141120
792.738	0.0141128
792.816	0.0142152
792.894	0.0141448
792.972	0.0139774
793.050	0.0140237
793.128	0.0138370
793.206	0.0138298
793.285	0.0138850
793.363	0.0138880
793.441	0.0138269
793.519	0.0138261
793.597	0.0137873
793.675	0.0137976
793.753	0.0136500
793.831	0.0137461
793.910	0.0137467
793.988	0.0139664
794.066	0.0139341
794.144	0.0138605
794.222	0.0138380
794.300	0.0139451
794.378	0.0139300
794.456	0.0139550
794.535	0.0139153
794.613	0.0141277
794.691	0.0141473
794.769	0.0140843
794.847	0.0138680
794.925	0.0139516
795.003	0.0139735
795.081	0.0139157
795.160	0.0140836
795.238	0.0138820
795.316	0.0137122
795.394	0.0138440
795.472	0.0138120
795.550	0.0137809
795.628	0.0137273
795.706	0.0137491
795.785	0.0137952
795.863	0.0136515
795.941	0.0139513
796.019	0.0138734
796.097	0.0138457
796.175	0.0140160
796.253	0.0141850
796.331	0.0140311
796.410	0.0141681
796.488	0.0141985
796.566	0.0141134
796.644	0.0140918
796.722	0.0140575
796.800	0.0140630
796.878	0.0141512
796.956	0.0139484
797.035	0.0138717
797.113	0.0138990
797.191	0.0138654
797.269	0.0138621
797.347	0.0139193
797.425	0.0139872
797.503	0.0138768
797.581	0.0137856
797.660	0.0139917
797.738	0.0141260
797.816	0.0140667
797.894	0.0141032
797.972	0.0141156
798.050	0.0141509
798.128	0.0141394
798.206	0.0142607
798.285	0.0142519
798.363	0.0140861
798.441	0.0142106
798.519	0.0141296
798.597	0.0142687
798.675	0.0143738
798.753	0.0144492
798.831	0.0144270
798.910	0.0144526
798.988	0.0146090
799.066	0.0146401
799.144	0.0143925
799.222	0.0145268
799.300	0.0145367
799.378	0.0144334
799.456	0.0142930
799.535	0.0143641
799.613	0.0142239
799.691	0.0142900
799.769	0.0142876
799.847	0.0142733
799.925	0.0140961
800.003	0.0141299
800.081	0.0142149
800.160	0.0140006
800.238	0.0140179
800.316	0.0140443
800.394	0.0139515
800.472	0.0137384
800.550	0.0138048
800.628	0.0137164
800.706	0.0136631
800.785	0.0137463
800.863	0.0138079
800.941	0.0136304
801.019	0.0135062
801.097	0.0135820
801.175	0.0135405
801.253	0.0135616
801.331	0.0137736
801.410	0.0135938
801.488	0.0135546
801.566	0.0136629
801.644	0.0137751
801.722	0.0137166
801.800	0.0137688
801.878	0.0138056
801.956	0.0139897
802.035	0.0139064
802.113	0.0138482
802.191	0.0140067
802.269	0.0140256
802.347	0.0139004
802.425	0.0139102
802.503	0.0140344
802.581	0.0138167
802.660	0.0138164
802.738	0.0138882
802.816	0.0138421
802.894	0.0138660
802.972	0.0136814
803.050	0.0135424
803.128	0.0135949
803.206	0.0136650
803.285	0.0135996
803.363	0.0137189
803.441	0.0135949
803.519	0.0137148
803.597	0.0138506
803.675	0.0139091
803.753	0.0139328
803.831	0.0141964
803.910	0.0142447
803.988	0.0140639
804.066	0.0141178
804.144	0.0140553
804.222	0.0139321
804.300	0.0139373
804.378	0.0137191
804.456	0.0135691
804.535	0.0135255
804.613	0.0135605
804.691	0.0136691
804.769	0.0138815
804.847	0.0140089
804.925	0.0141451
805.003	0.0146400
805.081	0.0147273
805.160	0.0151145
805.238	0.0154684
805.316	0.0155305
805.394	0.0156180
805.472	0.0158959
805.550	0.0157442
805.628	0.0156407
805.706	0.0154205
805.785	0.0150175
805.863	0.0147888
805.941	0.0145462
806.019	0.0140823
806.097	0.0138115
806.175	0.0133413
806.253	0.0131305
806.331	0.0128664
806.410	0.0126331
806.488	0.0126490
806.566	0.0124778
806.644	0.0124774
806.722	0.0126611
806.800	0.0130263
806.878	0.0130962
806.956	0.0133087
807.035	0.0139012
807.113	0.0141335
807.191	0.0143817
807.269	0.0146130
807.347	0.0148527
807.425	0.0150883
807.503	0.0152695
807.581	0.0151489
807.660	0.0152313
807.738	0.0151116
807.816	0.0151006
807.894	0.0150075
807.972	0.0148289
808.050	0.0147129
808.128	0.0144223
808.206	0.0142991
808.285	0.0142448
808.363	0.0139616
808.441	0.0138422
808.519	0.0136595
808.597	0.0134413
808.675	0.0135069
808.753	0.0134521
808.831	0.0134028
808.910	0.0133028
808.988	0.0132352
809.066	0.0133254
809.144	0.0131838
809.222	0.0131255
809.300	0.0131308
809.378	0.0132555
809.456	0.0133004
809.535	0.0132888
809.613	0.0130500
809.691	0.0132259
809.769	0.0132406
809.847	0.0133862
809.925	0.0134404
810.003	0.0135706
810.081	0.0136731
810.160	0.0138796
810.238	0.0139684
810.316	0.0142929
810.394	0.0143167
810.472	0.0143551
810.550	0.0145008
810.628	0.0146232
810.706	0.0148844
810.785	0.0149004
810.863	0.0150432
810.941	0.0150213
811.019	0.0151203
811.097	0.0150462
811.175	0.0149632
811.253	0.0151006
811.331	0.0148548
811.410	0.0146594
811.488	0.0144778
811.566	0.0143276
811.644	0.0142026
811.722	0.0141304
811.800	0.0140650
811.878	0.0140274
811.956	0.0138731
812.035	0.0140112
812.113	0.0140532
812.191	0.0139555
812.269	0.0141483
812.347	0.0141951
812.425	0.0141277
812.503	0.0141780
812.581	0.0140672
812.660	0.0143213
812.738	0.0142393
812.816	0.0140456
812.894	0.0139419
812.972	0.0139319
813.050	0.0137946
813.128	0.0136848
813.206	0.0137676
813.285	0.0135266
813.363	0.0134245
813.441	0.0135088
813.519	0.0135396
813.597	0.0135989
813.675	0.0137175
813.753	0.0136570
813.831	0.0137157
813.910	0.0137522
813.988	0.0136995
814.066	0.0136831
814.144	0.0138302
814.222	0.0139340
814.300	0.0140366
814.378	0.0140565
814.456	0.0139916
814.535	0.0140074
814.613	0.0140922
814.691	0.0141381
814.769	0.0142341
814.847	0.0142262
814.925	0.0141203
815.003	0.0143015
815.081	0.0143300
815.160	0.0143011
815.238	0.0141627
815.316	0.0141460
815.394	0.0141500
815.472	0.0141700
815.550	0.0141166
815.628	0.0141695
815.706	0.0141970
815.785	0.0140747
815.863	0.0139909
815.941	0.0139581
816.019	0.0140631
816.097	0.0139824
816.175	0.0139915
816.253	0.0138347
816.331	0.0138851
816.410	0.0139108
816.488	0.0137234
816.566	0.0136739
816.644	0.0136328
816.722	0.0137973
816.800	0.0138470
816.878	0.0137830
816.956	0.0138892
817.035	0.0140173
817.113	0.0140241
817.191	0.0141076
817.269	0.0142132
817.347	0.0139676
817.425	0.0140202
817.503	0.0139470
817.581	0.0140294
817.660	0.0140972
817.738	0.0139047
817.816	0.0137762
817.894	0.0138008
817.972	0.0138239
818.050	0.0135348
818.128	0.0137176
818.206	0.0134896
818.285	0.0135934
818.363	0.0135821
818.441	0.0134035
818.519	0.0136860
818.597	0.0137238
818.675	0.0137877
818.753	0.0138708
818.831	0.0138976
818.910	0.0139185
818.988	0.0139395
819.066	0.0140752
819.144	0.0140195
819.222	0.0141184
819.300	0.0143889
819.378	0.0142416
819.456	0.0141467
819.535	0.0143755
819.613	0.0146161
819.691	0.0147556
819.769	0.0146677
819.847	0.0147511
819.925	0.0147387
820.003	0.0147797
820.081	0.0146937
820.160	0.0147592
820.238	0.0148017
820.316	0.0146786
820.394	0.0146680
820.472	0.0145183
820.550	0.0144462
820.628	0.0144466
820.706	0.0143472
820.785	0.0142958
820.863	0.0141734
820.941	0.0141914
821.019	0.0139920
821.097	0.0140681
821.175	0.0140172
821.253	0.0138779
821.331	0.0138473
821.410	0.0139056
821.488	0.0139101
821.566	0.0137317
821.644	0.0136275
821.722	0.0136377
821.800	0.0136250
821.878	0.0136620
821.956	0.0137129
822.035	0.0136808
822.113	0.0136829
822.191	0.0137757
822.269	0.0138815
822.347	0.0138493
822.425	0.0139835
822.503	0.0140727
822.581	0.0143510
822.660	0.0143652
822.738	0.0142387
822.816	0.0142578
822.894	0.0143155
822.972	0.0143872
823.050	0.0141862
823.128	0.0142245
823.206	0.0141717
823.285	0.0141489
823.363	0.0139812
823.441	0.0139425
823.519	0.0137833
823.597	0.0137053
823.675	0.0137518
823.753	0.0137751
823.831	0.0136990
823.910	0.0137874
823.988	0.0135921
824.066	0.0137861
824.144	0.0139465
824.222	0.0138529
824.300	0.0136730
824.378	0.0138728
824.456	0.0137960
824.535	0.0139499
824.613	0.0140032
824.691	0.0139541
824.769	0.0141547
824.847	0.0140926
824.925	0.0139570
825.003	0.0139912
825.081	0.0140081
825.160	0.0138004
825.238	0.0140060
825.316	0.0140589
825.394	0.0139542
825.472	0.0139868
825.550	0.0139724
825.628	0.0140672
825.706	0.0143048
825.785	0.0142204
825.863	0.0141757
825.941	0.0144144
826.019	0.0145331
826.097	0.0144801
826.175	0.0145421
826.253	0.0145362
826.331	0.0144979
826.410	0.0144988
826.488	0.0146452
826.566	0.0145679
826.644	0.0146353
826.722	0.0146764
826.800	0.0143895
826.878	0.0143888
826.956	0.0143751
827.035	0.0143539
827.113	0.0142873
827.191	0.0142992
827.269	0.0142152
827.347	0.0144218
827.425	0.0141751
827.503	0.0141232
827.581	0.0140897
827.660	0.0141330
827.738	0.0139811
827.816	0.0140118
827.894	0.0140128
827.972	0.0139616
828.050	0.0140045
828.128	0.0140120
828.206	0.0140792
828.285	0.0140477
828.363	0.0141304
828.441	0.0139906
828.519	0.0141527
828.597	0.0142145
828.675	0.0140195
828.753	0.0139867
828.831	0.0137941
828.910	0.0138154
828.988	0.0136901
829.066	0.0136122
829.144	0.0135081
829.222	0.0137325
829.300	0.0137275
829.378	0.0136945
829.456	0.0138531
829.535	0.0141923
829.613	0.0140196
829.691	0.0140160
829.769	0.0141722
829.847	0.0143523
829.925	0.0143339
830.003	0.0142941
830.081	0.0144035
830.160	0.0143322
830.238	0.0142172
830.316	0.0142075
830.394	0.0141106
830.472	0.0139246
830.550	0.0139699
830.628	0.0138271
830.706	0.0136839
830.785	0.0137534
830.863	0.0137795
830.941	0.0136018
831.019	0.0136058
831.097	0.0137005
831.175	0.0136485
831.253	0.0137491
831.331	0.0139574
831.410	0.0138274
831.488	0.0137211
831.566	0.0140007
831.644	0.0140367
831.722	0.0142035
831.800	0.0141946
831.878	0.0143221
831.956	0.0144148
832.035	0.0144540
832.113	0.0144314
832.191	0.0144757
832.269	0.0142915
832.347	0.0142714
832.425	0.0143215
832.503	0.0141622
832.581	0.0142517
832.660	0.0141157
832.738	0.0140034
832.816	0.0139166
832.894	0.0141298
832.972	0.0142312
833.050	0.0141503
833.128	0.0142822
833.206	0.0142470
833.285	0.0144497
833.363	0.0145461
833.441	0.0145206
833.519	0.0146395
833.597	0.0147988
833.675	0.0146700
833.753	0.0147298
833.831	0.0148820
833.910	0.0147131
833.988	0.0147996
834.066	0.0145576
834.144	0.0143782
834.222	0.0142358
834.300	0.0141553
834.378	0.0139284
834.456	0.0138165
834.535	0.0134734
834.613	0.0133340
834.691	0.0134271
834.769	0.0132639
834.847	0.0132726
834.925	0.0132173
835.003	0.0134132
835.081	0.0135699
835.160	0.0134949
835.238	0.0137354
835.316	0.0138486
835.394	0.0140240
835.472	0.0142730
835.550	0.0144775
835.628	0.0146280
835.706	0.0147301
835.785	0.0149339
835.863	0.0148549
835.941	0.0150923
836.019	0.0150008
836.097	0.0149483
836.175	0.0148965
836.253	0.0147485
836.331	0.0146066
836.410	0.0143761
836.488	0.0142358
836.566	0.0141513
836.644	0.0138931
836.722	0.0137618
836.800	0.0135326
836.878	0.0133922
836.956	0.0133084
837.035	0.0132805
837.113	0.0131754
837.191	0.0131672
837.269	0.0131191
837.347	0.0133896
837.425	0.0135615
837.503	0.0136259
837.581	0.0137334
837.660	0.0139249
837.738	0.0141280
837.816	0.0141446
837.894	0.0142839
837.972	0.0145239
838.050	0.0145131
838.128	0.0145638
838.206	0.0146011
838.285	0.0146651
838.363	0.0145994
838.441	0.0146312
838.519	0.0147128
838.597	0.0146719
838.675	0.0145738
838.753	0.0145350
838.831	0.0144724
838.910	0.0143454
838.988	0.0142472
839.066	0.0141257
839.144	0.0139771
839.222	0.0138391
839.300	0.0138940
839.378	0.0137679
839.456	0.0137332
839.535	0.0136886
839.613	0.0135957
839.691	0.0134512
839.769	0.0134133
839.847	0.0135484
839.925	0.0135204
840.003	0.0135194
840.081	0.0136652
840.160	0.0137463
840.238	0.0137894
840.316	0.0139956
840.394	0.0139755
840.472	0.0142264
840.550	0.0142204
840.628	0.0143829
840.706	0.0144347
840.785	0.0145554
840.863	0.0144633
840.941	0.0144365
841.019	0.0145531
841.097	0.0146482
841.175	0.0144871
841.253	0.0144733
841.331	0.0145767
841.410	0.0145213
841.488	0.0145547
841.566	0.0143452
841.644	0.0143226
841.722	0.0141813
841.800	0.0141944
841.878	0.0142136
841.956	0.0141355
842.035	0.0141317
842.113	0.0141219
842.191	0.0140654
842.269	0.0138998
842.347	0.0140851
842.425	0.0139065
842.503	0.0140308
842.581	0.0141848
842.660	0.0141637
842.738	0.0140585
842.816	0.0141404
842.894	0.0141773
842.972	0.0141678
843.050	0.0141028
843.128	0.0139590
843.206	0.0139852
843.285	0.0139701
843.363	0.0138244
843.441	0.0139684
843.519	0.0139533
843.597	0.0139537
843.675	0.0138570
843.753	0.0139390
843.831	0.0140406
843.910	0.0140024
843.988	0.0140201
844.066	0.0140403
844.144	0.0141206
844.222	0.0140599
844.300	0.0142027
844.378	0.0142110
844.456	0.0141978
844.535	0.0142077
844.613	0.0144197
844.691	0.0142467
844.769	0.0143947
844.847	0.0143987
844.925	0.0143414
845.003	0.0143219
845.081	0.0142254
845.160	0.0141932
845.238	0.0141656
845.316	0.0139256
845.394	0.0140163
845.472	0.0139654
845.550	0.0139820
845.628	0.0138985
845.706	0.0138297
845.785	0.0136873
845.863	0.0137901
845.941	0.0138290
846.019	0.0138243
846.097	0.0138412
846.175	0.0137467
846.253	0.0138065
846.331	0.0138625
846.410	0.0138042
846.488	0.0139965
846.566	0.0140996
846.644	0.0140591
846.722	0.0140002
846.800	0.0141100
846.878	0.0142144
846.956	0.0142090
847.035	0.0143999
847.113	0.0143909
847.191	0.0143865
847.269	0.0143488
847.347	0.0145363
847.425	0.0144523
847.503	0.0144517
847.581	0.0143196
847.660	0.0143609
847.738	0.0143067
847.816	0.0142040
847.894	0.0142434
847.972	0.0142308
848.050	0.0142121
848.128	0.0141601
848.206	0.0141035
848.285	0.0140039
848.363	0.0140176
848.441	0.0140040
848.519	0.0138646
848.597	0.0138301
848.675	0.0137278
848.753	0.0137759
848.831	0.0138077
848.910	0.0139276
848.988	0.0138419
849.066	0.0139747
849.144	0.0139631
849.222	0.0140324
849.300	0.0140894
849.378	0.0142213
849.456	0.0142355
849.535	0.0142358
849.613	0.0142655
849.691	0.0142573
849.769	0.0143299
849.847	0.0142141
849.925	0.0142513
850.003	0.0143311
850.081	0.0142944
850.160	0.0142168
850.238	0.0141422
850.316	0.0141804
850.394	0.0140417
850.472	0.0139446
850.550	0.0140348
850.628	0.0139590
850.706	0.0139362
850.785	0.0138718
850.863	0.0138436
850.941	0.0138943
851.019	0.0138181
851.097	0.0139362
851.175	0.0139247
851.253	0.0139698
851.331	0.0140111
851.410	0.0140041
851.488	0.0138067
851.566	0.0139130
851.644	0.0140915
851.722	0.0141000
851.800	0.0140408
851.878	0.0140655
851.956	0.0141559
852.035	0.0143346
852.113	0.0142916
852.191	0.0142520
852.269	0.0142538
852.347	0.0142962
852.425	0.0142660
852.503	0.0143378
852.581	0.0142197
852.660	0.0142845
852.738	0.0140852
852.816	0.0141583
852.894	0.0140347
852.972	0.0140289
853.050	0.0140979
853.128	0.0140453
853.206	0.0138830
853.285	0.0139471
853.363	0.0140077
853.441	0.0140729
853.519	0.0139674
853.597	0.0138399
853.675	0.0138113
853.753	0.0139732
853.831	0.0139012
853.910	0.0137477
853.988	0.0137477
854.066	0.0139069
854.144	0.0138743
854.222	0.0137544
854.300	0.0138753
854.378	0.0140615
854.456	0.0140565
854.535	0.0139658
854.613	0.0141737
854.691	0.0141489
854.769	0.0142442
854.847	0.0142915
854.925	0.0142596
855.003	0.0144345
855.081	0.0143535
855.160	0.0143526
855.238	0.0144035
855.316	0.0143101
855.394	0.0144002
855.472	0.0144193
855.550	0.0144455
855.628	0.0144154
855.706	0.0143658
855.785	0.0143575
855.863	0.0144187
855.941	0.0142663
856.019	0.0142774
856.097	0.0142522
856.175	0.0142736
856.253	0.0141432
856.331	0.0139817
856.410	0.0141358
856.488	0.0139220
856.566	0.0139384
856.644	0.0139574
856.722	0.0137500
856.800	0.0137816
856.878	0.0137534
856.956	0.0136633
857.035	0.0137692
857.113	0.0136234
857.191	0.0137663
857.269	0.0137276
857.347	0.0138345
857.425	0.0138702
857.503	0.0136253
857.581	0.0139040
857.660	0.0139787
857.738	0.0139545
857.816	0.0141380
857.894	0.0141110
857.972	0.0142160
858.050	0.0142493
858.128	0.0142372
858.206	0.0142904
858.285	0.0143472
858.363	0.0144524
858.441	0.0142038
858.519	0.0144341
858.597	0.0143514
858.675	0.0142735
858.753	0.0140998
858.831	0.0140375
858.910	0.0141542
858.988	0.0141403
859.066	0.0141316
859.144	0.0140411
859.222	0.0139189
859.300	0.0137944
859.378	0.0137561
859.456	0.0139653
859.535	0.0140096
859.613	0.0138802
859.691	0.0139116
859.769	0.0140479
859.847	0.0139055
859.925	0.0138639
860.003	0.0140058
860.081	0.0141743
860.160	0.0140873
860.238	0.0140631
860.316	0.0141203
860.394	0.0139977
860.472	0.0140896
860.550	0.0141052
860.628	0.0140575
860.706	0.0140499
860.785	0.0140789
860.863	0.0140852
860.941	0.0140224
861.019	0.0139677
861.097	0.0139423
861.175	0.0139114
861.253	0.0139529
861.331	0.0138889
861.410	0.0139234
861.488	0.0140013
861.566	0.0139962
861.644	0.0139198
861.722	0.0139325
861.800	0.0138350
861.878	0.0139301
861.956	0.0139387
862.035	0.0140171
862.113	0.0140591
862.191	0.0140064
862.269	0.0140636
862.347	0.0139396
862.425	0.0139312
862.503	0.0140075
862.581	0.0139735
862.660	0.0139201
862.738	0.0141617
862.816	0.0139816
862.894	0.0140948
862.972	0.0140262
863.050	0.0140755
863.128	0.0142443
863.206	0.0141023
863.285	0.0140425
863.363	0.0141624
863.441	0.0142287
863.519	0.0142479
863.597	0.0143538
863.675	0.0143154
863.753	0.0144119
863.831	0.0141856
863.910	0.0143365
863.988	0.0143326
864.066	0.0141856
864.144	0.0142814
864.222	0.0142632
864.300	0.0143582
864.378	0.0143166
864.456	0.0140859
864.535	0.0142889
864.613	0.0142828
864.691	0.0141207
864.769	0.0141653
864.847	0.0141819
864.925	0.0140726
865.003	0.0141633
865.081	0.0140930
865.160	0.0141177
865.238	0.0141071
865.316	0.0140202
865.394	0.0140974
865.472	0.0140041
865.550	0.0140017
865.628	0.0139232
865.706	0.0138753
865.785	0.0138049
865.863	0.0136924
865.941	0.0137672
866.019	0.0137431
866.097	0.0138795
866.175	0.0138128
866.253	0.0136806
866.331	0.0137794
866.410	0.0138325
866.488	0.0136221
866.566	0.0136898
866.644	0.0137309
866.722	0.0136954
866.800	0.0136899
866.878	0.0136676
866.956	0.0137702
867.035	0.0137939
867.113	0.0138988
867.191	0.0138376
867.269	0.0138140
867.347	0.0139181
867.425	0.0139645
867.503	0.0139125
867.581	0.0140795
867.660	0.0141074
867.738	0.0141325
867.816	0.0140979
867.894	0.0140806
867.972	0.0140706
868.050	0.0140570
868.128	0.0140258
868.206	0.0141128
868.285	0.0140644
868.363	0.0141457
868.441	0.0140764
868.519	0.0140678
868.597	0.0139937
868.675	0.0139661
868.753	0.0139364
868.831	0.0141289
868.910	0.0141840
868.988	0.0139346
869.066	0.0139827
869.144	0.0139663
869.222	0.0141343
869.300	0.0141875
869.378	0.0139716
869.456	0.0140315
869.535	0.0141764
869.613	0.0141814
869.691	0.0140463
869.769	0.0140213
869.847	0.0139846
869.925	0.0139762
870.003	0.0140674
870.081	0.0139356
870.160	0.0139326
870.238	0.0139046
870.316	0.0137544
870.394	0.0136600
870.472	0.0137897
870.550	0.0137893
870.628	0.0138334
870.706	0.0137001
870.785	0.0136103
870.863	0.0137877
870.941	0.0137408
871.019	0.0137943
871.097	0.0138021
871.175	0.0138400
871.253	0.0139892
871.331	0.0141094
871.410	0.0141161
871.488	0.0142471
871.566	0.0143387
871.644	0.0142995
871.722	0.0144276
871.800	0.0145700
871.878	0.0144638
871.956	0.0146262
872.035	0.0145383
872.113	0.0144699
872.191	0.0144854
872.269	0.0144043
872.347	0.0143163
872.425	0.0143329
872.503	0.0143093
872.581	0.0142564
872.660	0.0141687
872.738	0.0141175
872.816	0.0141556
872.894	0.0140257
872.972	0.0139361
873.050	0.0139285
873.128	0.0137983
873.206	0.0138984
873.285	0.0139554
873.363	0.0138156
873.441	0.0137591
873.519	0.0138078
873.597	0.0138488
873.675	0.0138605
873.753	0.0138231
873.831	0.0139785
873.910	0.0138596
873.988	0.0138045
874.066	0.0140719
874.144	0.0139510
874.222	0.0140139
874.300	0.0140694
874.378	0.0139608
874.456	0.0140233
874.535	0.0140253
874.613	0.0139664
874.691	0.0138629
874.769	0.0139233
874.847	0.0138821
874.925	0.0138894
875.003	0.0139191
875.081	0.0136636
875.160	0.0138784
875.238	0.0139650
875.316	0.0140327
875.394	0.0139215
875.472	0.0141171
875.550	0.0141254
875.628	0.0140547
875.706	0.0141562
875.785	0.0141006
875.863	0.0140843
875.941	0.0140000
876.019	0.0139491
876.097	0.0139462
876.175	0.0139787
876.253	0.0138548
876.331	0.0137371
876.410	0.0137907
876.488	0.0139678
876.566	0.0139214
876.644	0.0138929
876.722	0.0139143
876.800	0.0139973
876.878	0.0141631
876.956	0.0141293
877.035	0.0139693
877.113	0.0137911
877.191	0.0140294
877.269	0.0138483
877.347	0.0139091
877.425	0.0138151
877.503	0.0138667
877.581	0.0138109
877.660	0.0138152
877.738	0.0139400
877.816	0.0139198
877.894	0.0140541
877.972	0.0141026
878.050	0.0141125
878.128	0.0142036
878.206	0.0142548
878.285	0.0141758
878.363	0.0141866
878.441	0.0140597
878.519	0.0140969
878.597	0.0141080
878.675	0.0140182
878.753	0.0140232
878.831	0.0139033
878.910	0.0139922
878.988	0.0140746
879.066	0.0139882
879.144	0.0141290
879.222	0.0141140
879.300	0.0141468
879.378	0.0142869
879.456	0.0143621
879.535	0.0144212
879.613	0.0143996
879.691	0.0144215
879.769	0.0145215
879.847	0.0144005
879.925	0.0142989
880.003	0.0143616
880.081	0.0142816
880.160	0.0142480
880.238	0.0141446
880.316	0.0140518
880.394	0.0140701
880.472	0.0139629
880.550	0.0139426
880.628	0.0139986
880.706	0.0139526
880.785	0.0139558
880.863	0.0137961
880.941	0.0138430
881.019	0.0138732
881.097	0.0137762
881.175	0.0137793
881.253	0.0137991
881.331	0.0138934
881.410	0.0138204
881.488	0.0138588
881.566	0.0137797
881.644	0.0138496
881.722	0.0139751
881.800	0.0140991
881.878	0.0141673
881.956	0.0140534
882.035	0.0141236
882.113	0.0141158
882.191	0.0141260
882.269	0.0142101
882.347	0.0141286
882.425	0.0142058
882.503	0.0141412
882.581	0.0140644
882.660	0.0139362
882.738	0.0139712
882.816	0.0139054
882.894	0.0140167
882.972	0.0139388
883.050	0.0138895
883.128	0.0139172
883.206	0.0137311
883.285	0.0138438
883.363	0.0138835
883.441	0.0138566
883.519	0.0137688
883.597	0.0138284
883.675	0.0137666
883.753	0.0137886
883.831	0.0138684
883.910	0.0139732
883.988	0.0137859
884.066	0.0139746
884.144	0.0140016
884.222	0.0138750
884.300	0.0139243
884.378	0.0142024
884.456	0.0141964
884.535	0.0142681
884.613	0.0142918
884.691	0.0144093
884.769	0.0143500
884.847	0.0145119
884.925	0.0144946
885.003	0.0145840
885.081	0.0145290
885.160	0.0146471
885.238	0.0143892
885.316	0.0144437
885.394	0.0145670
885.472	0.0142638
885.550	0.0142003
885.628	0.0140723
885.706	0.0140475
885.785	0.0139385
885.863	0.0138534
885.941	0.0137778
886.019	0.0137032
886.097	0.0137004
886.175	0.0137443
886.253	0.0137387
886.331	0.0136839
886.410	0.0137995
886.488	0.0138913
886.566	0.0139946
886.644	0.0140972
886.722	0.0140534
886.800	0.0140049
886.878	0.0142084
886.956	0.0142628
887.035	0.0142339
887.113	0.0142716
887.191	0.0143982
887.269	0.0143221
887.347	0.0143006
887.425	0.0143867
887.503	0.0141620
887.581	0.0142278
887.660	0.0141325
887.738	0.0141149
887.816	0.0140348
887.894	0.0139983
887.972	0.0139185
888.050	0.0139601
888.128	0.0138413
888.206	0.0138649
888.285	0.0136813
888.363	0.0136903
888.441	0.0138559
888.519	0.0138599
888.597	0.0137675
888.675	0.0137791
888.753	0.0136617
888.831	0.0137544
888.910	0.0136392
888.988	0.0138794
889.066	0.0136446
889.144	0.0136064
889.222	0.0138212
889.300	0.0136977
889.378	0.0137714
889.456	0.0138405
889.535	0.0136300
889.613	0.0137492
889.691	0.0139591
889.769	0.0137975
889.847	0.0138510
889.925	0.0140221
890.003	0.0139883
890.081	0.0141199
890.160	0.0139567
890.238	0.0140526
890.316	0.0141821
890.394	0.0140898
890.472	0.0140899
890.550	0.0142064
890.628	0.0141319
890.706	0.0140452
890.785	0.0140788
890.863	0.0141510
890.941	0.0141746
891.019	0.0140720
891.097	0.0141854
891.175	0.0140910
891.253	0.0140582
891.331	0.0140501
891.410	0.0140991
891.488	0.0140182
891.566	0.0139969
891.644	0.0140031
891.722	0.0140154
891.800	0.0140139
891.878	0.0141355
891.956	0.0139152
892.035	0.0138727
892.113	0.0137453
892.191	0.0136942
892.269	0.0138180
892.347	0.0139482
892.425	0.0138832
892.503	0.0139299
892.581	0.0139349
892.660	0.0139505
892.738	0.0139848
892.816	0.0140399
892.894	0.0140795
892.972	0.0139017
893.050	0.0138110
893.128	0.0139598
893.206	0.0140718
893.285	0.0139727
893.363	0.0140265
893.441	0.0140456
893.519	0.0139657
893.597	0.0139874
893.675	0.0139555
893.753	0.0139075
893.831	0.0139014
893.910	0.0138300
893.988	0.0138512
894.066	0.0139713
894.144	0.0139536
894.222	0.0138982
894.300	0.0139154
894.378	0.0139745
894.456	0.0140083
894.535	0.0141628
894.613	0.0142229
894.691	0.0141737
894.769	0.0143963
894.847	0.0143083
894.925	0.0143996
895.003	0.0144577
895.081	0.0142097
895.160	0.0142818
895.238	0.0142675
895.316	0.0140295
895.394	0.0140335
895.472	0.0140636
895.550	0.0140665
895.628	0.0139008
895.706	0.0138915
895.785	0.0139774
895.863	0.0139970
895.941	0.0138444
896.019	0.0138818
896.097	0.0139776
896.175	0.0139758
896.253	0.0140026
896.331	0.0140253
896.410	0.0140427
896.488	0.0140763
896.566	0.0140807
896.644	0.0140875
896.722	0.0139557
896.800	0.0140571
896.878	0.0140725
896.956	0.0140052
897.035	0.0140643
897.113	0.0142373
897.191	0.0139756
897.269	0.0139183
897.347	0.0139636
897.425	0.0139167
897.503	0.0138924
897.581	0.0139693
897.660	0.0139816
897.738	0.0141508
897.816	0.0140099
897.894	0.0140065
897.972	0.0141360
898.050	0.0141582
898.128	0.0141003
898.206	0.0140909
898.285	0.0141107
898.363	0.0139401
898.441	0.0139720
898.519	0.0138295
898.597	0.0137521
898.675	0.0139318
898.753	0.0136481
898.831	0.0134735
898.910	0.0134272
898.988	0.0133464
899.066	0.0133211
899.144	0.0134489
899.222	0.0136050
899.300	0.0138638
899.378	0.0141816
899.456	0.0145322
899.535	0.0148246
899.613	0.0151560
899.691	0.0151561
899.769	0.0153452
899.847	0.0152917
899.925	0.0147432
900.003	0.0144240
900.081	0.0139210
900.160	0.0131841
900.238	0.0129169
900.316	0.0127334
900.394	0.0128125
900.472	0.0131905
900.550	0.0137035
900.628	0.0144286
900.706	0.0150734
900.785	0.0158834
900.863	0.0163513
900.941	0.0163996
901.019	0.0163597
901.097	0.0158238
901.175	0.0150204
901.253	0.0141119
901.331	0.0129435
901.410	0.0119569
901.488	0.0110490
901.566	0.0103824
901.644	0.0101017
901.722	0.0101328
901.800	0.0105865
901.878	0.0112786
901.956	0.0121747
902.035	0.0133062
902.113	0.0145721
902.191	0.0155987
902.269	0.0163977
902.347	0.0170350
902.425	0.0176686
902.503	0.0178364
902.581	0.0175794
902.660	0.0171909
902.738	0.0165004
902.816	0.0159930
902.894	0.0155082
902.972	0.0145584
903.050	0.0139816
903.128	0.0134438
903.206	0.0128413
903.285	0.0124210
903.363	0.0121630
903.441	0.0119711
903.519	0.0120090
903.597	0.0122421
903.675	0.0123435
903.753	0.0124799
903.831	0.0128940
903.910	0.0131864
903.988	0.0134863
904.066	0.0138580
904.144	0.0143252
904.222	0.0144938
904.300	0.0147968
904.378	0.0150618
904.456	0.0151548
904.535	0.0153608
904.613	0.0153625
904.691	0.0151799
904.769	0.0152771
904.847	0.0148763
904.925	0.0147871
905.003	0.0146774
905.081	0.0144855
905.160	0.0144218
905.238	0.0141875
905.316	0.0139674
905.394	0.0140833
905.472	0.0141119
905.550	0.0139641
905.628	0.0140603
905.706	0.0139662
905.785	0.0138390
905.863	0.0139146
905.941	0.0139579
906.019	0.0138016
906.097	0.0137833
906.175	0.0139410
906.253	0.0138564
906.331	0.0138866
906.410	0.0138291
906.488	0.0138645
906.566	0.0139148
906.644	0.0139954
906.722	0.0139765
906.800	0.0139112
906.878	0.0140287
906.956	0.0139657
907.035	0.0140722
907.113	0.0139722
907.191	0.0139503
907.269	0.0140447
907.347	0.0141704
907.425	0.0142577
907.503	0.0141022
907.581	0.0139086
907.660	0.0141528
907.738	0.0140567
907.816	0.0140424
907.894	0.0142066
907.972	0.0141180
908.050	0.0141284
908.128	0.0141417
908.206	0.0141150
908.285	0.0141724
908.363	0.0142522
908.441	0.0142661
908.519	0.0143176
908.597	0.0143036
908.675	0.0142143
908.753	0.0143816
908.831	0.0144327
908.910	0.0144963
908.988	0.0142617
909.066	0.0142950
909.144	0.0144163
909.222	0.0141991
909.300	0.0142264
909.378	0.0143189
909.456	0.0142480
909.535	0.0141808
909.613	0.0142549
909.691	0.0141288
909.769	0.0141203
909.847	0.0140490
909.925	0.0139689
910.003	0.0139603
910.081	0.0138126
910.160	0.0137115
910.238	0.0136803
910.316	0.0137174
910.394	0.0134751
910.472	0.0136445
910.550	0.0136897
910.628	0.0135226
910.706	0.0135776
910.785	0.0135557
910.863	0.0136332
910.941	0.0136513
911.019	0.0138151
911.097	0.0138103
911.175	0.0140489
911.253	0.0141354
911.331	0.0141717
911.410	0.0141514
911.488	0.0143299
911.566	0.0141585
911.644	0.0141187
911.722	0.0142757
911.800	0.0141283
911.878	0.0140514
911.956	0.0141389
912.035	0.0141349
912.113	0.0141843
912.191	0.0140743
912.269	0.0140831
912.347	0.0139465
912.425	0.0138293
912.503	0.0138909
912.581	0.0139238
912.660	0.0139989
912.738	0.0139584
912.816	0.0139252
912.894	0.0139561
912.972	0.0138665
913.050	0.0140497
913.128	0.0140720
913.206	0.0141247
913.285	0.0140897
913.363	0.0140700
913.441	0.0139844
913.519	0.0140864
913.597	0.0139719
913.675	0.0140012
913.753	0.0139632
913.831	0.0139636
913.910	0.0140942
913.988	0.0142344
914.066	0.0140481
914.144	0.0141620
914.222	0.0142235
914.300	0.0143271
914.378	0.0143038
914.456	0.0145104
914.535	0.0144527
914.613	0.0144499
914.691	0.0146259
914.769	0.0145094
914.847	0.0145211
914.925	0.0145322
915.003	0.0141715
915.081	0.0143018
915.160	0.0142598
915.238	0.0142690
915.316	0.0141341
915.394	0.0140018
915.472	0.0139111
915.550	0.0138074
915.628	0.0138248
915.706	0.0139448
915.785	0.0138039
915.863	0.0136404
915.941	0.0137179
916.019	0.0138762
916.097	0.0136829
916.175	0.0136333
916.253	0.0136327
916.331	0.0136098
916.410	0.0135265
916.488	0.0134091
916.566	0.0136968
916.644	0.0137452
916.722	0.0135697
916.800	0.0137514
916.878	0.0138042
916.956	0.0138670
917.035	0.0139570
917.113	0.0141920
917.191	0.0142081
917.269	0.0144096
917.347	0.0145522
917.425	0.0146513
917.503	0.0146987
917.581	0.0149772
917.660	0.0149446
917.738	0.0147515
917.816	0.0148159
917.894	0.0145560
917.972	0.0145422
918.050	0.0144918
918.128	0.0144484
918.206	0.0143295
918.285	0.0141530
918.363	0.0139491
918.441	0.0136951
918.519	0.0137132
918.597	0.0136510
918.675	0.0136803
918.753	0.0134663
918.831	0.0135449
918.910	0.0135998
918.988	0.0134765
919.066	0.0136324
919.144	0.0137362
919.222	0.0136903
919.300	0.0137154
919.378	0.0137050
919.456	0.0137791
919.535	0.0138213
919.613	0.0139526
919.691	0.0140971
919.769	0.0141992
919.847	0.0140813
919.925	0.0141042
920.003	0.0141800
920.081	0.0141742
920.160	0.0141901
920.238	0.0141142
920.316	0.0142380
920.394	0.0140362
920.472	0.0140745
920.550	0.0140818
920.628	0.0139130
920.706	0.0140817
920.785	0.0140120
920.863	0.0141510
920.941	0.0142367
921.019	0.0142332
921.097	0.0142487
921.175	0.0143013
921.253	0.0144018
921.331	0.0145467
921.410	0.0143858
921.488	0.0145080
921.566	0.0144915
921.644	0.0144444
921.722	0.0143961
921.800	0.0141365
921.878	0.0141273
921.956	0.0143406
922.035	0.0141217
922.113	0.0139265
922.191	0.0139214
922.269	0.0138857
922.347	0.0139229
922.425	0.0140951
922.503	0.0141142
922.581	0.0140837
922.660	0.0141158
922.738	0.0143069
922.816	0.0145533
922.894	0.0144413
922.972	0.0145858
923.050	0.0145335
923.128	0.0146220
923.206	0.0144170
923.285	0.0144708
923.363	0.0142998
923.441	0.0143166
923.519	0.0144263
923.597	0.0142140
923.675	0.0141443
923.753	0.0141153
923.831	0.0140535
923.910	0.0141022
923.988	0.0141053
924.066	0.0140433
924.144	0.0139632
924.222	0.0139086
924.300	0.0139551
924.378	0.0140618
924.456	0.0139255
924.535	0.0137309
924.613	0.0138264
924.691	0.0137971
924.769	0.0136662
924.847	0.0137096
924.925	0.0136498
925.003	0.0137373
925.081	0.0138065
925.160	0.0139690
925.238	0.0139803
925.316	0.0139291
925.394	0.0139761
925.472	0.0138483
925.550	0.0139782
925.628	0.0139565
925.706	0.0139490
925.785	0.0139076
925.863	0.0139603
925.941	0.0139663
926.019	0.0139782
926.097	0.0140656
926.175	0.0141425
926.253	0.0141528
926.331	0.0142606
926.410	0.0142725
926.488	0.0142654
926.566	0.0142802
926.644	0.0144765
926.722	0.0145464
926.800	0.0145452
926.878	0.0144190
926.956	0.0144807
927.035	0.0144135
927.113	0.0142736
927.191	0.0142899
927.269	0.0141613
927.347	0.0139823
927.425	0.0140804
927.503	0.0140065
927.581	0.0140931
927.660	0.0139799
927.738	0.0140253
927.816	0.0140079
927.894	0.0139970
927.972	0.0139477
928.050	0.0140010
928.128	0.0140256
928.206	0.0139574
928.285	0.0139316
928.363	0.0139643
928.441	0.0139038
928.519	0.0140109
928.597	0.0138586
928.675	0.0139330
928.753	0.0139661
928.831	0.0140829
928.910	0.0138992
928.988	0.0138573
929.066	0.0139909
929.144	0.0143069
929.222	0.0141605
929.300	0.0142158
929.378	0.0144412
929.456	0.0145361
929.535	0.0144624
929.613	0.0145686
929.691	0.0146355
929.769	0.0146729
929.847	0.0146359
929.925	0.0146066
930.003	0.0144525
930.081	0.0145409
930.160	0.0144540
930.238	0.0143090
930.316	0.0142964
930.394	0.0144003
930.472	0.0143388
930.550	0.0142449
930.628	0.0140444
930.706	0.0140707
930.785	0.0139984
930.863	0.0141321
930.941	0.0140167
931.019	0.0139647
931.097	0.0141152
931.175	0.0140627
931.253	0.0136932
931.331	0.0138763
931.410	0.0138945
931.488	0.0139980
931.566	0.0139874
931.644	0.0139835
931.722	0.0140015
931.800	0.0142200
931.878	0.0142304
931.956	0.0139418
932.035	0.0140177
932.113	0.0140670
932.191	0.0140582
932.269	0.0138834
932.347	0.0139236
932.425	0.0139101
932.503	0.0138051
932.581	0.0137846
932.660	0.0138324
932.738	0.0137257
932.816	0.0139432
932.894	0.0139249
932.972	0.0137163
933.050	0.0137870
933.128	0.0138921
933.206	0.0141199
933.285	0.0140803
933.363	0.0140244
933.441	0.0141096
933.519	0.0141725
933.597	0.0141517
933.675	0.0141631
933.753	0.0142129
933.831	0.0141519
933.910	0.0142393
933.988	0.0141200
934.066	0.0141922
934.144	0.0140820
934.222	0.0141635
934.300	0.0142462
934.378	0.0142329
934.456	0.0142014
934.535	0.0142014
934.613	0.0142065
934.691	0.0142429
934.769	0.0141860
934.847	0.0142052
934.925	0.0141816
935.003	0.0142111
935.081	0.0143446
935.160	0.0139984
935.238	0.0139756
935.316	0.0140182
935.394	0.0140685
935.472	0.0139800
935.550	0.0140397
935.628	0.0139137
935.706	0.0140033
935.785	0.0139941
935.863	0.0138924
935.941	0.0140041
936.019	0.0139683
936.097	0.0139239
936.175	0.0139630
936.253	0.0138378
936.331	0.0138058
936.410	0.0138771
936.488	0.0139260
936.566	0.0136108
936.644	0.0137292
936.722	0.0137167
936.800	0.0135532
936.878	0.0137241
936.956	0.0136702
937.035	0.0136849
937.113	0.0138629
937.191	0.0138677
937.269	0.0138130
937.347	0.0140724
937.425	0.0141823
937.503	0.0143321
937.581	0.0144127
937.660	0.0143762
937.738	0.0145827
937.816	0.0145339
937.894	0.0144904
937.972	0.0144830
938.050	0.0145213
938.128	0.0144674
938.206	0.0146220
938.285	0.0143860
938.363	0.0144121
938.441	0.0142055
938.519	0.0140878
938.597	0.0141227
938.675	0.0140318
938.753	0.0139507
938.831	0.0139545
938.910	0.0139031
938.988	0.0138950
939.066	0.0139030
939.144	0.0138359
939.222	0.0138885
939.300	0.0137282
939.378	0.0138152
939.456	0.0137534
939.535	0.0138156
939.613	0.0138830
939.691	0.0138279
939.769	0.0138518
939.847	0.0138650
939.925	0.0139980
940.003	0.0140767
940.081	0.0139983
940.160	0.0139435
940.238	0.0138995
940.316	0.0138918
940.394	0.0140471
940.472	0.0138714
940.550	0.0138020
940.628	0.0137425
940.706	0.0138464
940.785	0.0137882
940.863	0.0136821
940.941	0.0136955
941.019	0.0138940
941.097	0.0139577
941.175	0.0141001
941.253	0.0140562
941.331	0.0141632
941.410	0.0142231
941.488	0.0143268
941.566	0.0143706
941.644	0.0144212
941.722	0.0143204
941.800	0.0144167
941.878	0.0143224
941.956	0.0141853
942.035	0.0141955
942.113	0.0141668
942.191	0.0142668
942.269	0.0142099
942.347	0.0139632
942.425	0.0142050
942.503	0.0141167
942.581	0.0141190
942.660	0.0142649
942.738	0.0141866
942.816	0.0144065
942.894	0.0142911
942.972	0.0143042
943.050	0.0145290
943.128	0.0143651
943.206	0.0143723
943.285	0.0141802
943.363	0.0141129
943.441	0.0142393
943.519	0.0143029
943.597	0.0142000
943.675	0.0142587
943.753	0.0142753
943.831	0.0141877
943.910	0.0142639
943.988	0.0142955
944.066	0.0142153
944.144	0.0142449
944.222	0.0141524
944.300	0.0141817
944.378	0.0142545
944.456	0.0141804
944.535	0.0141570
944.613	0.0141602
944.691	0.0142358
944.769	0.0142233
944.847	0.0139921
944.925	0.0141830
945.003	0.0141543
945.081	0.0142071
945.160	0.0142640
945.238	0.0142506
945.316	0.0141608
945.394	0.0140901
945.472	0.0142207
945.550	0.0142747
945.628	0.0142466
945.706	0.0141390
945.785	0.0142085
945.863	0.0140828
945.941	0.0140931
946.019	0.0139159
946.097	0.0139383
946.175	0.0138490
946.253	0.0138032
946.331	0.0138182
946.410	0.0138152
946.488	0.0138571
946.566	0.0137972
946.644	0.0138897
946.722	0.0140394
946.800	0.0139941
946.878	0.0141049
946.956	0.0141476
947.035	0.0143983
947.113	0.0143637
947.191	0.0143926
947.269	0.0143423
947.347	0.0143267
947.425	0.0142199
947.503	0.0143259
947.581	0.0142134
947.660	0.0141221
947.738	0.0141219
947.816	0.0140495
947.894	0.0138859
947.972	0.0137442
948.050	0.0137168
948.128	0.0135010
948.206	0.0134838
948.285	0.0133488
948.363	0.0134340
948.441	0.0134175
948.519	0.0133910
948.597	0.0136654
948.675	0.0137305
948.753	0.0137737
948.831	0.0137925
948.910	0.0140816
948.988	0.0140517
949.066	0.0142750
949.144	0.0141973
949.222	0.0142336
949.300	0.0143567
949.378	0.0144019
949.456	0.0144667
949.535	0.0145118
949.613	0.0143181
949.691	0.0142966
949.769	0.0142811
949.847	0.0142772
949.925	0.0141765
950.003	0.0142014
950.081	0.0139153
950.160	0.0139036
950.238	0.0139693
950.316	0.0137267
950.394	0.0138929
950.472	0.0138648
950.550	0.0138029
950.628	0.0139805
950.706	0.0137955
950.785	0.0138320
950.863	0.0139986
950.941	0.0137465
951.019	0.0138227
951.097	0.0138513
951.175	0.0138854
951.253	0.0139352
951.331	0.0139140
951.410	0.0140994
951.488	0.0141691
951.566	0.0143750
951.644	0.0142550
951.722	0.0143037
951.800	0.0143155
951.878	0.0143120
951.956	0.0143034
952.035	0.0142455
952.113	0.0142448
952.191	0.0141100
952.269	0.0140092
952.347	0.0139388
952.425	0.0137689
952.503	0.0137031
952.581	0.0137003
952.660	0.0136234
952.738	0.0135124
952.816	0.0134620
952.894	0.0137175
952.972	0.0136438
953.050	0.0138853
953.128	0.0138268
953.206	0.0138204
953.285	0.0139626
953.363	0.0140011
953.441	0.0140740
953.519	0.0139843
953.597	0.0142352
953.675	0.0142110
953.753	0.0143342
953.831	0.0143488
953.910	0.0144008
953.988	0.0143411
954.066	0.0143306
954.144	0.0142646
954.222	0.0142809
954.300	0.0142567
954.378	0.0141821
954.456	0.0142240
954.535	0.0141469
954.613	0.0141335
954.691	0.0141250
954.769	0.0141025
954.847	0.0142126
954.925	0.0142195
955.003	0.0142273
955.081	0.0144468
955.160	0.0142818
955.238	0.0143118
955.316	0.0143808
955.394	0.0143224
955.472	0.0143093
955.550	0.0143703
955.628	0.0143320
955.706	0.0143001
955.785	0.0142275
955.863	0.0141061
955.941	0.0141072
956.019	0.0140373
956.097	0.0141116
956.175	0.0140326
956.253	0.0139449
956.331	0.0141627
956.410	0.0139663
956.488	0.0140638
956.566	0.0140021
956.644	0.0140870
956.722	0.0140469
956.800	0.0140825
956.878	0.0141335
956.956	0.0142683
957.035	0.0140754
957.113	0.0140742
957.191	0.0140705
957.269	0.0140760
957.347	0.0140836
957.425	0.0141244
957.503	0.0139510
957.581	0.0139008
957.660	0.0137669
957.738	0.0136506
957.816	0.0135582
957.894	0.0136719
957.972	0.0136912
958.050	0.0135908
958.128	0.0135776
958.206	0.0137095
958.285	0.0138108
958.363	0.0137823
958.441	0.0139143
958.519	0.0140282
958.597	0.0139068
958.675	0.0138320
958.753	0.0140246
958.831	0.0140792
958.910	0.0140559
958.988	0.0141343
959.066	0.0141032
959.144	0.0141622
959.222	0.0142078
959.300	0.0141953
959.378	0.0143048
959.456	0.0143493
959.535	0.0142279
959.613	0.0142208
959.691	0.0142150
959.769	0.0142585
959.847	0.0142069
959.925	0.0141677
960.003	0.0141924
960.081	0.0141795
960.160	0.0140214
960.238	0.0141783
960.316	0.0140916
960.394	0.0141038
960.472	0.0140901
960.550	0.0141070
960.628	0.0142100
960.706	0.0141009
960.785	0.0140300
960.863	0.0140436
960.941	0.0141061
961.019	0.0141239
961.097	0.0141280
961.175	0.0141077
961.253	0.0140580
961.331	0.0141354
961.410	0.0141530
961.488	0.0141680
961.566	0.0139526
961.644	0.0140160
961.722	0.0139064
961.800	0.0139780
961.878	0.0138344
961.956	0.0138918
962.035	0.0139339
962.113	0.0138721
962.191	0.0138377
962.269	0.0138424
962.347	0.0139220
962.425	0.0139926
962.503	0.0139324
962.581	0.0138204
962.660	0.0138265
962.738	0.0139143
962.816	0.0138647
962.894	0.0138557
962.972	0.0138281
963.050	0.0138972
963.128	0.0139111
963.206	0.0138705
963.285	0.0138386
963.363	0.0138128
963.441	0.0137680
963.519	0.0137231
963.597	0.0136918
963.675	0.0137540
963.753	0.0136652
963.831	0.0137701
963.910	0.0138899
963.988	0.0139449
964.066	0.0139420
964.144	0.0138376
964.222	0.0139913
964.300	0.0139980
964.378	0.0140331
964.456	0.0140161
964.535	0.0140391
964.613	0.0140076
964.691	0.0140957
964.769	0.0140359
964.847	0.0140635
964.925	0.0140646
965.003	0.0142419
965.081	0.0142027
965.160	0.0141739
965.238	0.0141829
965.316	0.0142405
965.394	0.0143095
965.472	0.0143585
965.550	0.0143001
965.628	0.0144278
965.706	0.0143809
965.785	0.0143063
965.863	0.0144016
965.941	0.0143700
966.019	0.0142673
966.097	0.0143821
966.175	0.0142845
966.253	0.0141608
966.331	0.0141132
966.410	0.0142455
966.488	0.0141019
966.566	0.0140664
966.644	0.0140272
966.722	0.0139423
966.800	0.0139533
966.878	0.0138943
966.956	0.0137647
967.035	0.0138052
967.113	0.0138196
967.191	0.0137003
967.269	0.0135731
967.347	0.0135808
967.425	0.0135060
967.503	0.0136335
967.581	0.0137556
967.660	0.0137249
967.738	0.0136571
967.816	0.0136569
967.894	0.0137259
967.972	0.0138496
968.050	0.0139468
968.128	0.0140182
968.206	0.0140758
968.285	0.0140955
968.363	0.0141914
968.441	0.0141178
968.519	0.0142046
968.597	0.0140830
968.675	0.0142995
968.753	0.0141850
968.831	0.0142073
968.910	0.0141033
968.988	0.0141246
969.066	0.0141314
969.144	0.0142359
969.222	0.0142422
969.300	0.0141689
969.378	0.0140247
969.456	0.0141248
969.535	0.0140990
969.613	0.0140720
969.691	0.0141042
969.769	0.0143122
969.847	0.0141624
969.925	0.0143513
970.003	0.0142386
970.081	0.0143548
970.160	0.0142506
970.238	0.0143797
970.316	0.0142329
970.394	0.0142985
970.472	0.0142703
970.550	0.0143651
970.628	0.0142992
970.706	0.0142168
970.785	0.0141552
970.863	0.0141898
970.941	0.0142465
971.019	0.0140678
971.097	0.0139761
971.175	0.0138236
971.253	0.0137525
971.331	0.0137220
971.410	0.0135567
971.488	0.0135500
971.566	0.0137897
971.644	0.0135951
971.722	0.0136224
971.800	0.0137263
971.878	0.0136736
971.956	0.0138609
972.035	0.0138367
972.113	0.0139885
972.191	0.0136823
972.269	0.0138050
972.347	0.0138728
972.425	0.0137896
972.503	0.0138264
972.581	0.0139146
972.660	0.0137940
972.738	0.0138384
972.816	0.0138182
972.894	0.0138701
972.972	0.0138233
973.050	0.0140004
973.128	0.0139065
973.206	0.0139693
973.285	0.0138679
973.363	0.0139141
973.441	0.0140833
973.519	0.0139075
973.597	0.0139240
973.675	0.0140659
973.753	0.0140385
973.831	0.0139700
973.910	0.0140662
973.988	0.0140147
974.066	0.0140826
974.144	0.0141339
974.222	0.0142037
974.300	0.0142983
974.378	0.0142247
974.456	0.0142444
974.535	0.0143800
974.613	0.0145927
974.691	0.0145291
974.769	0.0145255
974.847	0.0144835
974.925	0.0144935
975.003	0.0145887
975.081	0.0144905
975.160	0.0144722
975.238	0.0143559
975.316	0.0143662
975.394	0.0143996
975.472	0.0143309
975.550	0.0142697
975.628	0.0141943
975.706	0.0142398
975.785	0.0140711
975.863	0.0141237
975.941	0.0141330
976.019	0.0141099
976.097	0.0141230
976.175	0.0140600
976.253	0.0140571
976.331	0.0141169
976.410	0.0140733
976.488	0.0139051
976.566	0.0142366
976.644	0.0142984
976.722	0.0142857
976.800	0.0142175
976.878	0.0142762
976.956	0.0143784
977.035	0.0143703
977.113	0.0142753
977.191	0.0142046
977.269	0.0142352
977.347	0.0142362
977.425	0.0141907
977.503	0.0140395
977.581	0.0141090
977.660	0.0140762
977.738	0.0139521
977.816	0.0140480
977.894	0.0139824
977.972	0.0138327
978.050	0.0138744
978.128	0.0139182
978.206	0.0138921
978.285	0.0140040
978.363	0.0139868
978.441	0.0139799
978.519	0.0140539
978.597	0.0139819
978.675	0.0140789
978.753	0.0141044
978.831	0.0139412
978.910	0.0140492
978.988	0.0138316
979.066	0.0138921
979.144	0.0140758
979.222	0.0141066
979.300	0.0140645
979.378	0.0141122
979.456	0.0143050
979.535	0.0140955
979.613	0.0141505
979.691	0.0142041
979.769	0.0142453
979.847	0.0142463
979.925	0.0142489
