05/03/2022	20:16:46	Ver.	4.1	UNKNOWN
Optical Delay	660.003261	Delta X		0.078125	Sweeps	1	Scan Rate	0/0
Coordinates	Axis 1	NaN	Axis 2	NaN	Axis 3	NaN	Axis 4	NaN	Axis 5	NaN	Axis 6	0.000000
TX Power	0.000000	RX Power	0.000000

660.003	0.0145255
660.081	0.0145786
660.160	0.0146535
660.238	0.0145550
660.316	0.0143883
660.394	0.0144550
660.472	0.0145446
660.550	0.0145472
660.628	0.0145696
660.706	0.0146081
660.785	0.0145956
660.863	0.0146310
660.941	0.0145145
661.019	0.0145260
661.097	0.0143279
661.175	0.0145852
661.253	0.0145673
661.331	0.0145945
661.410	0.0145802
661.488	0.0145380
661.566	0.0143837
661.644	0.0145898
661.722	0.0146462
661.800	0.0144798
661.878	0.0145524
661.956	0.0146335
662.035	0.0145835
662.113	0.0146295
662.191	0.0144884
662.269	0.0145201
662.347	0.0145001
662.425	0.0146002
662.503	0.0146612
662.581	0.0146001
662.660	0.0145691
662.738	0.0145422
662.816	0.0146945
662.894	0.0147466
662.972	0.0145198
663.050	0.0145916
663.128	0.0145647
663.206	0.0145103
663.285	0.0145256
663.363	0.0146085
663.441	0.0145417
663.519	0.0146162
663.597	0.0145747
663.675	0.0146104
663.753	0.0146151
663.831	0.0145847
663.910	0.0145242
663.988	0.0146603
664.066	0.0145908
664.144	0.0144868
664.222	0.0146145
664.300	0.0147096
664.378	0.0145395
664.456	0.0145968
664.535	0.0146379
664.613	0.0144877
664.691	0.0145882
664.769	0.0145733
664.847	0.0146744
664.925	0.0144892
665.003	0.0146354
665.081	0.0145295
665.160	0.0145781
665.238	0.0146124
665.316	0.0146009
665.394	0.0145636
665.472	0.0146217
665.550	0.0145942
665.628	0.0146405
665.706	0.0144993
665.785	0.0145504
665.863	0.0145260
665.941	0.0144688
666.019	0.0146214
666.097	0.0145879
666.175	0.0145948
666.253	0.0144682
666.331	0.0145140
666.410	0.0147052
666.488	0.0144762
666.566	0.0143128
666.644	0.0144633
666.722	0.0146368
666.800	0.0145090
666.878	0.0145772
666.956	0.0146329
667.035	0.0146562
667.113	0.0146355
667.191	0.0146102
667.269	0.0145895
667.347	0.0146824
667.425	0.0144823
667.503	0.0144623
667.581	0.0147005
667.660	0.0145622
667.738	0.0145520
667.816	0.0145551
667.894	0.0146088
667.972	0.0146357
668.050	0.0145821
668.128	0.0145872
668.206	0.0146138
668.285	0.0146319
668.363	0.0144636
668.441	0.0147923
668.519	0.0146482
668.597	0.0145776
668.675	0.0145356
668.753	0.0145526
668.831	0.0145304
668.910	0.0145155
668.988	0.0145731
669.066	0.0147033
669.144	0.0144838
669.222	0.0145415
669.300	0.0144735
669.378	0.0143910
669.456	0.0145411
669.535	0.0146937
669.613	0.0145202
669.691	0.0145970
669.769	0.0146079
669.847	0.0145464
669.925	0.0145689
670.003	0.0145633
670.081	0.0145100
670.160	0.0145383
670.238	0.0144902
670.316	0.0143870
670.394	0.0145556
670.472	0.0147481
670.550	0.0145669
670.628	0.0145617
670.706	0.0146748
670.785	0.0146339
670.863	0.0146197
670.941	0.0145556
671.019	0.0146140
671.097	0.0145005
671.175	0.0145780
671.253	0.0145911
671.331	0.0146946
671.410	0.0146549
671.488	0.0146178
671.566	0.0145873
671.644	0.0145960
671.722	0.0146599
671.800	0.0144985
671.878	0.0145330
671.956	0.0144956
672.035	0.0145338
672.113	0.0145429
672.191	0.0144327
672.269	0.0146577
672.347	0.0145388
672.425	0.0145927
672.503	0.0146333
672.581	0.0144921
672.660	0.0145567
672.738	0.0145811
672.816	0.0146444
672.894	0.0144900
672.972	0.0144308
673.050	0.0145875
673.128	0.0145758
673.206	0.0145612
673.285	0.0146352
673.363	0.0147027
673.441	0.0146330
673.519	0.0145193
673.597	0.0146268
673.675	0.0147216
673.753	0.0145568
673.831	0.0145426
673.910	0.0146227
673.988	0.0146696
674.066	0.0146313
674.144	0.0145559
674.222	0.0145945
674.300	0.0146095
674.378	0.0146318
674.456	0.0146112
674.535	0.0145831
674.613	0.0145726
674.691	0.0145856
674.769	0.0145071
674.847	0.0145042
674.925	0.0146946
675.003	0.0146177
675.081	0.0146113
675.160	0.0145719
675.238	0.0146087
675.316	0.0145891
675.394	0.0145953
675.472	0.0145168
675.550	0.0145137
675.628	0.0145914
675.706	0.0147378
675.785	0.0146799
675.863	0.0144222
675.941	0.0144865
676.019	0.0145577
676.097	0.0145806
676.175	0.0145588
676.253	0.0146246
676.331	0.0145706
676.410	0.0145778
676.488	0.0145888
676.566	0.0145815
676.644	0.0146986
676.722	0.0145911
676.800	0.0146715
676.878	0.0145137
676.956	0.0146226
677.035	0.0145560
677.113	0.0144861
677.191	0.0145902
677.269	0.0146859
677.347	0.0145217
677.425	0.0145702
677.503	0.0146193
677.581	0.0145534
677.660	0.0145570
677.738	0.0145103
677.816	0.0145244
677.894	0.0144345
677.972	0.0146393
678.050	0.0145551
678.128	0.0145133
678.206	0.0144932
678.285	0.0146307
678.363	0.0145425
678.441	0.0146667
678.519	0.0145895
678.597	0.0146246
678.675	0.0145696
678.753	0.0146356
678.831	0.0146307
678.910	0.0145291
678.988	0.0145815
679.066	0.0145226
679.144	0.0145284
679.222	0.0147369
679.300	0.0145206
679.378	0.0144894
679.456	0.0145943
679.535	0.0145637
679.613	0.0145210
679.691	0.0145327
679.769	0.0145113
679.847	0.0146489
679.925	0.0146841
680.003	0.0144650
680.081	0.0145142
680.160	0.0145624
680.238	0.0144884
680.316	0.0146140
680.394	0.0145638
680.472	0.0146138
680.550	0.0146329
680.628	0.0146285
680.706	0.0145906
680.785	0.0145699
680.863	0.0144991
680.941	0.0144511
681.019	0.0145270
681.097	0.0147026
681.175	0.0145863
681.253	0.0146658
681.331	0.0144366
681.410	0.0146245
681.488	0.0145072
681.566	0.0145905
681.644	0.0147454
681.722	0.0145779
681.800	0.0146452
681.878	0.0145184
681.956	0.0146469
682.035	0.0145351
682.113	0.0146174
682.191	0.0146249
682.269	0.0146487
682.347	0.0144697
682.425	0.0145959
682.503	0.0147121
682.581	0.0147178
682.660	0.0147584
682.738	0.0146912
682.816	0.0146046
682.894	0.0146761
682.972	0.0146605
683.050	0.0145760
683.128	0.0145746
683.206	0.0145248
683.285	0.0147207
683.363	0.0146508
683.441	0.0145244
683.519	0.0146023
683.597	0.0144022
683.675	0.0144804
683.753	0.0144920
683.831	0.0146984
683.910	0.0146558
683.988	0.0145058
684.066	0.0145271
684.144	0.0145865
684.222	0.0147505
684.300	0.0146487
684.378	0.0146972
684.456	0.0145490
684.535	0.0145176
684.613	0.0145380
684.691	0.0145229
684.769	0.0145055
684.847	0.0146318
684.925	0.0147694
685.003	0.0145927
685.081	0.0145326
685.160	0.0146204
685.238	0.0147440
685.316	0.0145740
685.394	0.0144640
685.472	0.0146785
685.550	0.0146533
685.628	0.0146410
685.706	0.0147437
685.785	0.0146028
685.863	0.0145835
685.941	0.0144927
686.019	0.0145526
686.097	0.0145818
686.175	0.0145885
686.253	0.0146648
686.331	0.0144927
686.410	0.0145808
686.488	0.0145383
686.566	0.0147514
686.644	0.0145960
686.722	0.0145998
686.800	0.0145380
686.878	0.0144499
686.956	0.0146951
687.035	0.0145944
687.113	0.0146545
687.191	0.0145893
687.269	0.0145512
687.347	0.0147747
687.425	0.0145860
687.503	0.0145448
687.581	0.0145884
687.660	0.0145750
687.738	0.0146344
687.816	0.0145381
687.894	0.0146053
687.972	0.0146567
688.050	0.0144778
688.128	0.0145786
688.206	0.0144836
688.285	0.0144702
688.363	0.0145200
688.441	0.0146982
688.519	0.0147228
688.597	0.0147204
688.675	0.0145455
688.753	0.0144807
688.831	0.0146277
688.910	0.0145054
688.988	0.0145181
689.066	0.0146755
689.144	0.0145308
689.222	0.0145852
689.300	0.0146676
689.378	0.0145071
689.456	0.0145878
689.535	0.0146837
689.613	0.0145090
689.691	0.0145023
689.769	0.0147056
689.847	0.0146304
689.925	0.0146284
690.003	0.0145279
690.081	0.0144920
690.160	0.0146603
690.238	0.0145390
690.316	0.0147573
690.394	0.0145039
690.472	0.0146361
690.550	0.0144979
690.628	0.0145135
690.706	0.0146371
690.785	0.0146851
690.863	0.0146635
690.941	0.0146599
691.019	0.0147340
691.097	0.0146236
691.175	0.0146687
691.253	0.0145819
691.331	0.0146199
691.410	0.0147019
691.488	0.0146942
691.566	0.0146082
691.644	0.0145397
691.722	0.0145976
691.800	0.0145841
691.878	0.0145384
691.956	0.0146939
692.035	0.0146886
692.113	0.0147171
692.191	0.0144433
692.269	0.0144997
692.347	0.0145041
692.425	0.0146397
692.503	0.0145499
692.581	0.0145812
692.660	0.0145622
692.738	0.0146292
692.816	0.0145995
692.894	0.0144870
692.972	0.0146571
693.050	0.0145097
693.128	0.0146240
693.206	0.0146666
693.285	0.0145591
693.363	0.0146571
693.441	0.0144631
693.519	0.0146097
693.597	0.0147063
693.675	0.0145631
693.753	0.0145277
693.831	0.0147135
693.910	0.0146376
693.988	0.0146120
694.066	0.0145694
694.144	0.0146600
694.222	0.0146915
694.300	0.0146414
694.378	0.0145824
694.456	0.0145912
694.535	0.0145956
694.613	0.0146209
694.691	0.0145560
694.769	0.0146391
694.847	0.0145167
694.925	0.0146092
695.003	0.0145017
695.081	0.0145745
695.160	0.0144984
695.238	0.0145455
695.316	0.0146534
695.394	0.0147362
695.472	0.0146552
695.550	0.0145589
695.628	0.0146365
695.706	0.0146289
695.785	0.0146554
695.863	0.0146375
695.941	0.0145791
696.019	0.0147053
696.097	0.0144650
696.175	0.0147420
696.253	0.0146639
696.331	0.0145256
696.410	0.0145351
696.488	0.0145940
696.566	0.0145188
696.644	0.0145640
696.722	0.0146728
696.800	0.0146286
696.878	0.0145923
696.956	0.0146058
697.035	0.0145347
697.113	0.0145315
697.191	0.0145387
697.269	0.0145837
697.347	0.0145026
697.425	0.0146378
697.503	0.0146179
697.581	0.0145380
697.660	0.0145290
697.738	0.0145396
697.816	0.0145033
697.894	0.0145695
697.972	0.0144558
698.050	0.0145821
698.128	0.0145353
698.206	0.0145633
698.285	0.0146301
698.363	0.0145155
698.441	0.0146194
698.519	0.0146277
698.597	0.0146401
698.675	0.0147417
698.753	0.0147604
698.831	0.0145581
698.910	0.0145153
698.988	0.0145856
699.066	0.0147372
699.144	0.0144978
699.222	0.0146895
699.300	0.0147056
699.378	0.0146360
699.456	0.0146333
699.535	0.0146855
699.613	0.0146529
699.691	0.0145792
699.769	0.0147384
699.847	0.0147103
699.925	0.0146230
700.003	0.0144893
700.081	0.0145444
700.160	0.0145130
700.238	0.0145287
700.316	0.0143051
700.394	0.0143985
700.472	0.0144010
700.550	0.0143358
700.628	0.0143050
700.706	0.0143930
700.785	0.0146636
700.863	0.0146127
700.941	0.0148427
701.019	0.0150246
701.097	0.0151335
701.175	0.0150690
701.253	0.0149445
701.331	0.0148674
701.410	0.0146732
701.488	0.0143317
701.566	0.0139789
701.644	0.0137811
701.722	0.0136065
701.800	0.0133975
701.878	0.0132341
701.956	0.0132344
702.035	0.0133102
702.113	0.0135279
702.191	0.0136661
702.269	0.0139371
702.347	0.0144561
702.425	0.0150624
702.503	0.0155052
702.581	0.0159464
702.660	0.0165465
702.738	0.0171922
702.816	0.0176584
702.894	0.0179108
702.972	0.0180396
703.050	0.0181158
703.128	0.0180116
703.206	0.0176314
703.285	0.0171095
703.363	0.0163917
703.441	0.0156100
703.519	0.0144083
703.597	0.0134310
703.675	0.0120164
703.753	0.0106317
703.831	0.00955353
703.910	0.00834328
703.988	0.00761795
704.066	0.00748589
704.144	0.00764969
704.222	0.00830505
704.300	0.00940094
704.378	0.0105818
704.456	0.0120047
704.535	0.0135386
704.613	0.0148865
704.691	0.0160047
704.769	0.0169803
704.847	0.0179021
704.925	0.0185488
705.003	0.0190768
705.081	0.0195856
705.160	0.0201379
705.238	0.0206323
705.316	0.0211106
705.394	0.0214767
705.472	0.0216649
705.550	0.0218059
705.628	0.0215573
705.706	0.0208456
705.785	0.0199732
705.863	0.0187135
705.941	0.0174067
706.019	0.0158270
706.097	0.0140544
706.175	0.0124273
706.253	0.0109732
706.331	0.00947510
706.410	0.00810539
706.488	0.00685410
706.566	0.00617767
706.644	0.00565941
706.722	0.00529465
706.800	0.00542046
706.878	0.00575493
706.956	0.00635849
707.035	0.00717751
707.113	0.00814049
707.191	0.00917747
707.269	0.0103141
707.347	0.0114268
707.425	0.0125831
707.503	0.0139445
707.581	0.0150668
707.660	0.0163371
707.738	0.0176399
707.816	0.0188165
707.894	0.0197635
707.972	0.0209105
708.050	0.0219833
708.128	0.0227221
708.206	0.0236560
708.285	0.0244378
708.363	0.0249184
708.441	0.0251283
708.519	0.0250270
708.597	0.0249033
708.675	0.0242666
708.753	0.0231493
708.831	0.0217767
708.910	0.0202209
708.988	0.0185519
709.066	0.0166061
709.144	0.0147811
709.222	0.0125495
709.300	0.0104903
709.378	0.00859024
709.456	0.00695763
709.535	0.00552658
709.613	0.00427597
709.691	0.00364853
709.769	0.00331474
709.847	0.00342979
709.925	0.00386292
710.003	0.00440994
710.081	0.00546333
710.160	0.00647064
710.238	0.00758858
710.316	0.00874657
710.394	0.0100536
710.472	0.0109053
710.550	0.0118300
710.628	0.0128082
710.706	0.0135218
710.785	0.0143107
710.863	0.0150011
710.941	0.0160044
711.019	0.0168768
711.097	0.0180357
711.175	0.0191145
711.253	0.0204993
711.331	0.0219091
711.410	0.0228991
711.488	0.0241882
711.566	0.0248756
711.644	0.0253745
711.722	0.0255808
711.800	0.0254729
711.878	0.0248923
711.956	0.0240682
712.035	0.0229192
712.113	0.0216374
712.191	0.0198763
712.269	0.0180978
712.347	0.0164494
712.425	0.0146703
712.503	0.0130847
712.581	0.0114640
712.660	0.00998367
712.738	0.00904564
712.816	0.00819389
712.894	0.00775429
712.972	0.00730568
713.050	0.00701874
713.128	0.00701347
713.206	0.00734009
713.285	0.00759712
713.363	0.00791183
713.441	0.00830269
713.519	0.00888794
713.597	0.00912918
713.675	0.00969437
713.753	0.00998520
713.831	0.0105228
713.910	0.0106926
713.988	0.0111376
714.066	0.0115324
714.144	0.0119650
714.222	0.0124008
714.300	0.0129643
714.378	0.0136987
714.456	0.0146156
714.535	0.0156474
714.613	0.0165083
714.691	0.0177181
714.769	0.0189307
714.847	0.0199199
714.925	0.0209743
715.003	0.0218505
715.081	0.0221927
715.160	0.0224593
715.238	0.0224982
715.316	0.0218921
715.394	0.0213788
715.472	0.0204764
715.550	0.0197291
715.628	0.0189204
715.706	0.0182847
715.785	0.0176414
715.863	0.0169069
715.941	0.0166879
716.019	0.0161040
716.097	0.0156078
716.175	0.0153269
716.253	0.0146607
716.331	0.0140132
716.410	0.0133781
716.488	0.0125203
716.566	0.0117542
716.644	0.0109801
716.722	0.0103423
716.800	0.00966774
716.878	0.00904152
716.956	0.00867409
717.035	0.00843422
717.113	0.00846428
717.191	0.00862831
717.269	0.00873245
717.347	0.00883667
717.425	0.00932335
717.503	0.00995285
717.581	0.0104943
717.660	0.0110441
717.738	0.0115559
717.816	0.0122275
717.894	0.0127473
717.972	0.0131868
718.050	0.0139252
718.128	0.0145080
718.206	0.0150543
718.285	0.0157207
718.363	0.0165285
718.441	0.0171242
718.519	0.0175947
718.597	0.0182386
718.675	0.0187782
718.753	0.0195633
718.831	0.0197973
718.910	0.0198403
718.988	0.0197672
719.066	0.0197688
719.144	0.0196605
719.222	0.0195443
719.300	0.0191763
719.378	0.0188600
719.456	0.0186301
719.535	0.0182557
719.613	0.0179475
719.691	0.0173823
719.769	0.0168890
719.847	0.0164508
719.925	0.0157051
720.003	0.0150202
720.081	0.0145052
720.160	0.0139375
720.238	0.0133434
720.316	0.0129524
720.394	0.0124946
720.472	0.0121054
720.550	0.0118121
720.628	0.0115379
720.706	0.0111261
720.785	0.0110687
720.863	0.0109924
720.941	0.0109287
721.019	0.0108842
721.097	0.0107990
721.175	0.0109420
721.253	0.0108799
721.331	0.0109207
721.410	0.0109382
721.488	0.0110226
721.566	0.0112372
721.644	0.0113889
721.722	0.0117199
721.800	0.0120514
721.878	0.0124907
721.956	0.0127471
722.035	0.0132432
722.113	0.0136704
722.191	0.0141901
722.269	0.0147871
722.347	0.0154120
722.425	0.0159693
722.503	0.0164224
722.581	0.0169883
722.660	0.0173852
722.738	0.0178892
722.816	0.0182397
722.894	0.0185800
722.972	0.0187327
723.050	0.0188814
723.128	0.0187166
723.206	0.0185798
723.285	0.0183257
723.363	0.0178083
723.441	0.0175089
723.519	0.0172202
723.597	0.0167599
723.675	0.0164857
723.753	0.0162701
723.831	0.0161954
723.910	0.0159182
723.988	0.0156400
724.066	0.0155246
724.144	0.0154367
724.222	0.0152957
724.300	0.0149644
724.378	0.0147120
724.456	0.0144489
724.535	0.0141159
724.613	0.0139707
724.691	0.0137258
724.769	0.0132620
724.847	0.0130170
724.925	0.0127806
725.003	0.0125571
725.081	0.0121897
725.160	0.0120036
725.238	0.0119099
725.316	0.0119473
725.394	0.0118224
725.472	0.0118872
725.550	0.0118221
725.628	0.0119426
725.706	0.0121346
725.785	0.0120671
725.863	0.0120523
725.941	0.0120177
726.019	0.0122972
726.097	0.0123241
726.175	0.0123286
726.253	0.0125414
726.331	0.0126716
726.410	0.0128854
726.488	0.0132078
726.566	0.0135540
726.644	0.0140638
726.722	0.0144397
726.800	0.0148637
726.878	0.0152930
726.956	0.0158226
727.035	0.0161034
727.113	0.0165553
727.191	0.0171056
727.269	0.0173338
727.347	0.0175468
727.425	0.0177003
727.503	0.0179102
727.581	0.0179173
727.660	0.0177792
727.738	0.0177990
727.816	0.0177410
727.894	0.0176090
727.972	0.0174189
728.050	0.0171011
728.128	0.0169464
728.206	0.0167496
728.285	0.0163848
728.363	0.0161185
728.441	0.0157677
728.519	0.0156560
728.597	0.0153303
728.675	0.0150708
728.753	0.0148531
728.831	0.0146349
728.910	0.0144076
728.988	0.0142873
729.066	0.0141506
729.144	0.0140382
729.222	0.0139857
729.300	0.0137878
729.378	0.0136352
729.456	0.0135470
729.535	0.0133521
729.613	0.0131641
729.691	0.0129569
729.769	0.0127131
729.847	0.0126624
729.925	0.0124529
730.003	0.0122735
730.081	0.0121733
730.160	0.0120519
730.238	0.0118487
730.316	0.0117199
730.394	0.0117374
730.472	0.0115124
730.550	0.0115885
730.628	0.0117790
730.706	0.0120282
730.785	0.0121812
730.863	0.0125595
730.941	0.0127906
731.019	0.0132555
731.097	0.0135770
731.175	0.0141565
731.253	0.0147793
731.331	0.0151006
731.410	0.0156178
731.488	0.0160464
731.566	0.0162945
731.644	0.0165906
731.722	0.0166573
731.800	0.0166097
731.878	0.0168434
731.956	0.0168939
732.035	0.0167737
732.113	0.0167322
732.191	0.0167282
732.269	0.0165897
732.347	0.0164617
732.425	0.0165252
732.503	0.0164229
732.581	0.0164274
732.660	0.0162355
732.738	0.0163246
732.816	0.0164193
732.894	0.0164619
732.972	0.0165778
733.050	0.0165686
733.128	0.0166259
733.206	0.0165810
733.285	0.0164528
733.363	0.0161572
733.441	0.0158672
733.519	0.0156091
733.597	0.0153060
733.675	0.0147553
733.753	0.0144485
733.831	0.0140018
733.910	0.0135035
733.988	0.0132094
734.066	0.0128925
734.144	0.0125164
734.222	0.0123368
734.300	0.0121162
734.378	0.0120742
734.456	0.0120353
734.535	0.0120370
734.613	0.0122800
734.691	0.0123610
734.769	0.0123009
734.847	0.0125859
734.925	0.0126633
735.003	0.0128500
735.081	0.0129616
735.160	0.0129903
735.238	0.0130569
735.316	0.0131590
735.394	0.0132079
735.472	0.0130980
735.550	0.0131783
735.628	0.0132859
735.706	0.0134187
735.785	0.0136649
735.863	0.0136968
735.941	0.0138868
736.019	0.0142576
736.097	0.0146156
736.175	0.0146760
736.253	0.0149197
736.331	0.0151540
736.410	0.0154189
736.488	0.0155790
736.566	0.0158793
736.644	0.0160666
736.722	0.0160455
736.800	0.0161485
736.878	0.0162199
736.956	0.0162552
737.035	0.0164488
737.113	0.0165372
737.191	0.0165388
737.269	0.0166155
737.347	0.0166852
737.425	0.0167589
737.503	0.0166275
737.581	0.0165165
737.660	0.0165904
737.738	0.0165842
737.816	0.0164973
737.894	0.0162900
737.972	0.0162132
738.050	0.0160498
738.128	0.0159601
738.206	0.0158990
738.285	0.0155086
738.363	0.0152142
738.441	0.0151631
738.519	0.0149765
738.597	0.0146732
738.675	0.0144309
738.753	0.0142281
738.831	0.0140191
738.910	0.0136374
738.988	0.0135475
739.066	0.0133267
739.144	0.0131399
739.222	0.0131344
739.300	0.0129820
739.378	0.0129115
739.456	0.0129246
739.535	0.0128810
739.613	0.0128496
739.691	0.0127710
739.769	0.0127793
739.847	0.0126504
739.925	0.0125277
740.003	0.0124274
740.081	0.0124049
740.160	0.0123179
740.238	0.0121937
740.316	0.0123328
740.394	0.0123661
740.472	0.0124958
740.550	0.0126070
740.628	0.0128481
740.706	0.0131320
740.785	0.0134512
740.863	0.0137937
740.941	0.0141705
741.019	0.0144908
741.097	0.0147288
741.175	0.0149383
741.253	0.0150805
741.331	0.0152827
741.410	0.0156146
741.488	0.0157281
741.566	0.0158318
741.644	0.0161295
741.722	0.0162678
741.800	0.0163657
741.878	0.0163717
741.956	0.0166436
742.035	0.0169274
742.113	0.0171194
742.191	0.0171947
742.269	0.0171588
742.347	0.0172078
742.425	0.0170562
742.503	0.0171642
742.581	0.0169307
742.660	0.0168558
742.738	0.0166573
742.816	0.0164804
742.894	0.0162093
742.972	0.0160273
743.050	0.0158555
743.128	0.0155545
743.206	0.0153884
743.285	0.0152239
743.363	0.0148759
743.441	0.0146970
743.519	0.0145319
743.597	0.0141914
743.675	0.0139719
743.753	0.0137910
743.831	0.0135355
743.910	0.0131876
743.988	0.0130181
744.066	0.0127540
744.144	0.0125858
744.222	0.0124732
744.300	0.0125050
744.378	0.0124272
744.456	0.0123578
744.535	0.0124553
744.613	0.0122349
744.691	0.0123187
744.769	0.0123724
744.847	0.0123898
744.925	0.0125037
745.003	0.0127986
745.081	0.0128683
745.160	0.0131833
745.238	0.0133807
745.316	0.0136140
745.394	0.0138342
745.472	0.0140628
745.550	0.0142125
745.628	0.0143325
745.706	0.0145451
745.785	0.0147817
745.863	0.0148832
745.941	0.0150549
746.019	0.0153106
746.097	0.0155482
746.175	0.0157893
746.253	0.0159630
746.331	0.0159821
746.410	0.0160159
746.488	0.0160861
746.566	0.0162481
746.644	0.0161913
746.722	0.0161916
746.800	0.0161684
746.878	0.0160819
746.956	0.0160368
747.035	0.0160503
747.113	0.0158698
747.191	0.0157790
747.269	0.0155167
747.347	0.0155234
747.425	0.0152615
747.503	0.0150228
747.581	0.0149583
747.660	0.0149137
747.738	0.0147426
747.816	0.0146966
747.894	0.0145358
747.972	0.0145101
748.050	0.0145097
748.128	0.0144809
748.206	0.0143915
748.285	0.0142733
748.363	0.0141464
748.441	0.0139467
748.519	0.0139140
748.597	0.0140261
748.675	0.0138084
748.753	0.0137133
748.831	0.0137097
748.910	0.0137360
748.988	0.0138350
749.066	0.0137824
749.144	0.0138786
749.222	0.0138203
749.300	0.0139235
749.378	0.0140438
749.456	0.0141746
749.535	0.0141670
749.613	0.0143494
749.691	0.0144181
749.769	0.0146239
749.847	0.0147288
749.925	0.0145855
750.003	0.0146994
750.081	0.0148917
750.160	0.0148894
750.238	0.0149064
750.316	0.0149728
750.394	0.0150245
750.472	0.0151003
750.550	0.0150591
750.628	0.0151337
750.706	0.0150572
750.785	0.0151901
750.863	0.0149498
750.941	0.0149613
751.019	0.0149448
751.097	0.0149178
751.175	0.0147383
751.253	0.0149589
751.331	0.0148124
751.410	0.0146590
751.488	0.0146987
751.566	0.0146585
751.644	0.0144936
751.722	0.0143721
751.800	0.0142111
751.878	0.0141337
751.956	0.0140761
752.035	0.0139870
752.113	0.0138222
752.191	0.0138225
752.269	0.0137871
752.347	0.0138501
752.425	0.0137888
752.503	0.0139270
752.581	0.0139268
752.660	0.0139250
752.738	0.0140086
752.816	0.0139021
752.894	0.0139809
752.972	0.0139708
753.050	0.0141702
753.128	0.0140605
753.206	0.0140929
753.285	0.0141964
753.363	0.0144795
753.441	0.0145973
753.519	0.0148480
753.597	0.0150227
753.675	0.0150597
753.753	0.0154321
753.831	0.0155896
753.910	0.0157269
753.988	0.0157293
754.066	0.0158199
754.144	0.0159468
754.222	0.0158521
754.300	0.0157561
754.378	0.0156124
754.456	0.0154729
754.535	0.0154440
754.613	0.0150275
754.691	0.0149721
754.769	0.0148620
754.847	0.0147301
754.925	0.0144391
755.003	0.0143922
755.081	0.0143465
755.160	0.0141414
755.238	0.0140951
755.316	0.0141815
755.394	0.0141339
755.472	0.0141415
755.550	0.0143585
755.628	0.0143948
755.706	0.0143136
755.785	0.0142934
755.863	0.0145583
755.941	0.0144577
756.019	0.0144617
756.097	0.0146070
756.175	0.0144653
756.253	0.0144237
756.331	0.0144827
756.410	0.0144034
756.488	0.0142176
756.566	0.0141756
756.644	0.0140971
756.722	0.0140755
756.800	0.0139344
756.878	0.0139513
756.956	0.0141825
757.035	0.0141486
757.113	0.0141010
757.191	0.0143535
757.269	0.0143395
757.347	0.0144016
757.425	0.0144264
757.503	0.0146017
757.581	0.0147207
757.660	0.0147971
757.738	0.0149775
757.816	0.0149786
757.894	0.0150311
757.972	0.0150076
758.050	0.0152545
758.128	0.0153724
758.206	0.0152343
758.285	0.0152009
758.363	0.0154074
758.441	0.0152413
758.519	0.0152487
758.597	0.0152172
758.675	0.0152715
758.753	0.0151942
758.831	0.0152013
758.910	0.0151282
758.988	0.0150898
759.066	0.0147816
759.144	0.0146537
759.222	0.0147031
759.300	0.0145654
759.378	0.0143684
759.456	0.0143053
759.535	0.0142558
759.613	0.0140726
759.691	0.0139177
759.769	0.0137771
759.847	0.0136728
759.925	0.0136286
760.003	0.0136291
760.081	0.0135903
760.160	0.0136028
760.238	0.0136652
760.316	0.0138075
760.394	0.0135734
760.472	0.0136946
760.550	0.0139545
760.628	0.0139233
760.706	0.0140239
760.785	0.0142146
760.863	0.0143301
760.941	0.0145587
761.019	0.0146375
761.097	0.0148233
761.175	0.0148634
761.253	0.0150659
761.331	0.0151098
761.410	0.0152751
761.488	0.0152666
761.566	0.0152025
761.644	0.0151418
761.722	0.0151826
761.800	0.0153086
761.878	0.0150852
761.956	0.0148612
762.035	0.0149266
762.113	0.0148100
762.191	0.0146358
762.269	0.0147085
762.347	0.0147686
762.425	0.0145972
762.503	0.0146344
762.581	0.0146176
762.660	0.0146712
762.738	0.0146278
762.816	0.0148116
762.894	0.0149469
762.972	0.0149523
763.050	0.0150130
763.128	0.0150174
763.206	0.0152402
763.285	0.0152515
763.363	0.0151822
763.441	0.0151864
763.519	0.0152139
763.597	0.0151917
763.675	0.0150105
763.753	0.0151081
763.831	0.0150620
763.910	0.0148543
763.988	0.0147134
764.066	0.0146329
764.144	0.0144900
764.222	0.0144810
764.300	0.0143658
764.378	0.0140876
764.456	0.0141937
764.535	0.0139858
764.613	0.0140496
764.691	0.0139598
764.769	0.0140881
764.847	0.0141435
764.925	0.0140858
765.003	0.0139974
765.081	0.0139689
765.160	0.0139107
765.238	0.0139841
765.316	0.0138800
765.394	0.0138032
765.472	0.0137656
765.550	0.0140043
765.628	0.0139732
765.706	0.0139207
765.785	0.0140450
765.863	0.0140073
765.941	0.0141294
766.019	0.0141837
766.097	0.0143066
766.175	0.0144395
766.253	0.0145506
766.331	0.0147061
766.410	0.0147102
766.488	0.0147741
766.566	0.0149191
766.644	0.0149689
766.722	0.0152031
766.800	0.0151527
766.878	0.0151947
766.956	0.0149484
767.035	0.0149400
767.113	0.0151162
767.191	0.0150021
767.269	0.0148887
767.347	0.0148858
767.425	0.0147410
767.503	0.0147697
767.581	0.0148688
767.660	0.0148966
767.738	0.0148517
767.816	0.0147903
767.894	0.0147819
767.972	0.0146111
768.050	0.0146130
768.128	0.0144378
768.206	0.0144327
768.285	0.0144473
768.363	0.0145027
768.441	0.0144424
768.519	0.0143022
768.597	0.0143359
768.675	0.0142717
768.753	0.0142033
768.831	0.0141927
768.910	0.0141160
768.988	0.0141752
769.066	0.0141431
769.144	0.0142139
769.222	0.0141624
769.300	0.0141687
769.378	0.0142461
769.456	0.0142509
769.535	0.0142236
769.613	0.0143253
769.691	0.0143199
769.769	0.0144598
769.847	0.0147366
769.925	0.0148619
770.003	0.0148820
770.081	0.0150172
770.160	0.0150502
770.238	0.0152583
770.316	0.0152377
770.394	0.0153126
770.472	0.0152906
770.550	0.0154649
770.628	0.0154442
770.706	0.0154276
770.785	0.0154081
770.863	0.0152628
770.941	0.0153192
771.019	0.0152865
771.097	0.0151952
771.175	0.0151038
771.253	0.0150378
771.331	0.0149937
771.410	0.0150288
771.488	0.0149406
771.566	0.0146476
771.644	0.0146609
771.722	0.0145697
771.800	0.0145564
771.878	0.0144596
771.956	0.0142455
772.035	0.0140791
772.113	0.0142089
772.191	0.0140571
772.269	0.0139458
772.347	0.0138288
772.425	0.0138856
772.503	0.0136466
772.581	0.0137872
772.660	0.0137823
772.738	0.0137427
772.816	0.0139644
772.894	0.0139322
772.972	0.0139204
773.050	0.0140616
773.128	0.0141591
773.206	0.0140656
773.285	0.0139861
773.363	0.0140775
773.441	0.0141324
773.519	0.0142819
773.597	0.0144434
773.675	0.0146701
773.753	0.0145975
773.831	0.0147865
773.910	0.0148560
773.988	0.0149339
774.066	0.0149800
774.144	0.0151816
774.222	0.0151681
774.300	0.0150777
774.378	0.0151750
774.456	0.0151006
774.535	0.0151563
774.613	0.0149870
774.691	0.0149333
774.769	0.0148489
774.847	0.0149915
774.925	0.0149610
775.003	0.0148531
775.081	0.0148679
775.160	0.0148772
775.238	0.0147309
775.316	0.0149493
775.394	0.0147816
775.472	0.0147647
775.550	0.0147569
775.628	0.0148703
775.706	0.0148512
775.785	0.0149698
775.863	0.0146727
775.941	0.0146298
776.019	0.0146012
776.097	0.0144360
776.175	0.0143330
776.253	0.0143556
776.331	0.0144377
776.410	0.0142644
776.488	0.0142264
776.566	0.0141262
776.644	0.0141969
776.722	0.0142633
776.800	0.0142441
776.878	0.0142110
776.956	0.0141893
777.035	0.0141261
777.113	0.0143249
777.191	0.0142718
777.269	0.0143893
777.347	0.0143056
777.425	0.0144067
777.503	0.0144759
777.581	0.0144216
777.660	0.0143292
777.738	0.0144160
777.816	0.0144325
777.894	0.0145303
777.972	0.0145355
778.050	0.0144302
778.128	0.0143791
778.206	0.0145834
778.285	0.0147092
778.363	0.0146568
778.441	0.0147115
778.519	0.0147050
778.597	0.0148547
778.675	0.0148230
778.753	0.0148516
778.831	0.0151016
778.910	0.0149800
778.988	0.0149922
779.066	0.0150449
779.144	0.0151061
779.222	0.0150571
779.300	0.0150075
779.378	0.0151343
779.456	0.0150281
779.535	0.0149254
779.613	0.0147601
779.691	0.0146151
779.769	0.0147504
779.847	0.0145384
779.925	0.0144267
780.003	0.0143877
780.081	0.0143716
780.160	0.0142430
780.238	0.0141618
780.316	0.0141091
780.394	0.0141711
780.472	0.0141832
780.550	0.0142287
780.628	0.0140089
780.706	0.0139167
780.785	0.0141082
780.863	0.0139402
780.941	0.0139508
781.019	0.0138890
781.097	0.0140237
781.175	0.0139785
781.253	0.0140585
781.331	0.0140769
781.410	0.0140839
781.488	0.0140534
781.566	0.0142509
781.644	0.0145776
781.722	0.0144504
781.800	0.0144918
781.878	0.0146188
781.956	0.0149120
782.035	0.0149828
782.113	0.0150101
782.191	0.0150268
782.269	0.0151870
782.347	0.0152309
782.425	0.0152370
782.503	0.0152853
782.581	0.0152282
782.660	0.0152682
782.738	0.0153860
782.816	0.0152267
782.894	0.0150922
782.972	0.0151651
783.050	0.0150789
783.128	0.0151185
783.206	0.0149802
783.285	0.0149364
783.363	0.0148386
783.441	0.0148805
783.519	0.0148756
783.597	0.0147240
783.675	0.0146041
783.753	0.0146516
783.831	0.0145588
783.910	0.0145990
783.988	0.0145654
784.066	0.0145372
784.144	0.0144381
784.222	0.0146120
784.300	0.0144471
784.378	0.0145723
784.456	0.0145245
784.535	0.0145258
784.613	0.0144609
784.691	0.0143640
784.769	0.0144102
784.847	0.0143112
784.925	0.0143473
785.003	0.0141785
785.081	0.0143595
785.160	0.0143296
785.238	0.0141947
785.316	0.0141487
785.394	0.0142303
785.472	0.0141016
785.550	0.0140332
785.628	0.0141985
785.706	0.0141879
785.785	0.0142675
785.863	0.0143563
785.941	0.0144991
786.019	0.0144810
786.097	0.0145804
786.175	0.0147295
786.253	0.0147461
786.331	0.0146142
786.410	0.0148599
786.488	0.0147845
786.566	0.0148529
786.644	0.0149535
786.722	0.0148708
786.800	0.0150119
786.878	0.0149994
786.956	0.0149516
787.035	0.0148795
787.113	0.0150050
787.191	0.0149162
787.269	0.0148041
787.347	0.0149799
787.425	0.0146807
787.503	0.0148847
787.581	0.0146378
787.660	0.0146410
787.738	0.0146324
787.816	0.0145515
787.894	0.0145947
787.972	0.0146026
788.050	0.0146435
788.128	0.0145345
788.206	0.0143514
788.285	0.0144479
788.363	0.0144178
788.441	0.0143085
788.519	0.0144401
788.597	0.0142848
788.675	0.0143080
788.753	0.0143956
788.831	0.0141526
788.910	0.0140643
788.988	0.0141348
789.066	0.0141924
789.144	0.0142441
789.222	0.0142949
789.300	0.0142566
789.378	0.0143346
789.456	0.0144786
789.535	0.0143866
789.613	0.0145004
789.691	0.0145508
789.769	0.0147226
789.847	0.0147497
789.925	0.0146152
790.003	0.0148057
790.081	0.0149335
790.160	0.0148819
790.238	0.0147836
790.316	0.0148586
790.394	0.0148839
790.472	0.0149726
790.550	0.0147182
790.628	0.0147594
790.706	0.0149169
790.785	0.0149238
790.863	0.0148576
790.941	0.0149087
791.019	0.0148977
791.097	0.0149709
791.175	0.0149178
791.253	0.0150317
791.331	0.0149828
791.410	0.0151536
791.488	0.0151629
791.566	0.0149850
791.644	0.0148649
791.722	0.0149107
791.800	0.0147630
791.878	0.0148458
791.956	0.0149094
792.035	0.0146248
792.113	0.0145392
792.191	0.0145628
792.269	0.0144331
792.347	0.0144551
792.425	0.0143806
792.503	0.0142134
792.581	0.0142492
792.660	0.0143941
792.738	0.0142625
792.816	0.0143266
792.894	0.0142934
792.972	0.0143552
793.050	0.0141911
793.128	0.0141800
793.206	0.0143063
793.285	0.0142503
793.363	0.0142854
793.441	0.0143340
793.519	0.0143228
793.597	0.0143154
793.675	0.0143303
793.753	0.0145332
793.831	0.0142789
793.910	0.0143237
793.988	0.0145025
794.066	0.0145423
794.144	0.0145414
794.222	0.0146580
794.300	0.0146566
794.378	0.0145885
794.456	0.0147596
794.535	0.0148593
794.613	0.0148494
794.691	0.0147816
794.769	0.0149796
794.847	0.0148899
794.925	0.0149760
795.003	0.0149674
795.081	0.0150683
795.160	0.0150222
795.238	0.0148866
795.316	0.0149679
795.394	0.0149834
795.472	0.0150533
795.550	0.0148882
795.628	0.0148688
795.706	0.0146703
795.785	0.0147329
795.863	0.0146512
795.941	0.0145686
796.019	0.0145321
796.097	0.0145423
796.175	0.0142381
796.253	0.0143385
796.331	0.0142589
796.410	0.0143740
796.488	0.0142851
796.566	0.0141515
796.644	0.0142485
796.722	0.0142288
796.800	0.0142763
796.878	0.0142407
796.956	0.0142791
797.035	0.0141586
797.113	0.0142134
797.191	0.0141396
797.269	0.0142448
797.347	0.0141312
797.425	0.0141869
797.503	0.0138728
797.581	0.0140206
797.660	0.0142541
797.738	0.0140227
797.816	0.0140644
797.894	0.0141878
797.972	0.0141330
798.050	0.0142265
798.128	0.0143481
798.206	0.0145537
798.285	0.0144607
798.363	0.0145975
798.441	0.0149622
798.519	0.0150652
798.597	0.0151827
798.675	0.0152745
798.753	0.0153515
798.831	0.0154172
798.910	0.0155639
798.988	0.0156333
799.066	0.0155173
799.144	0.0154554
799.222	0.0153710
799.300	0.0152805
799.378	0.0151045
799.456	0.0150853
799.535	0.0147910
799.613	0.0145086
799.691	0.0145477
799.769	0.0144463
799.847	0.0141888
799.925	0.0140979
800.003	0.0141768
800.081	0.0141337
800.160	0.0141232
800.238	0.0140781
800.316	0.0140917
800.394	0.0141293
800.472	0.0142145
800.550	0.0144092
800.628	0.0143116
800.706	0.0144933
800.785	0.0145094
800.863	0.0145382
800.941	0.0147164
801.019	0.0146856
801.097	0.0148348
801.175	0.0148294
801.253	0.0148071
801.331	0.0149059
801.410	0.0149741
801.488	0.0149663
801.566	0.0149507
801.644	0.0149667
801.722	0.0148586
801.800	0.0146773
801.878	0.0146251
801.956	0.0146886
802.035	0.0143185
802.113	0.0142752
802.191	0.0140977
802.269	0.0142210
802.347	0.0139722
802.425	0.0140324
802.503	0.0140865
802.581	0.0140390
802.660	0.0139220
802.738	0.0141621
802.816	0.0141917
802.894	0.0141344
802.972	0.0141937
803.050	0.0143198
803.128	0.0143452
803.206	0.0144553
803.285	0.0146422
803.363	0.0146297
803.441	0.0145879
803.519	0.0146706
803.597	0.0148167
803.675	0.0148874
803.753	0.0150694
803.831	0.0151094
803.910	0.0150815
803.988	0.0151634
804.066	0.0152822
804.144	0.0154638
804.222	0.0153848
804.300	0.0153574
804.378	0.0157284
804.456	0.0157750
804.535	0.0157745
804.613	0.0155144
804.691	0.0155074
804.769	0.0154817
804.847	0.0151958
804.925	0.0150216
805.003	0.0148844
805.081	0.0147326
805.160	0.0144760
805.238	0.0142263
805.316	0.0138161
805.394	0.0136828
805.472	0.0135447
805.550	0.0133930
805.628	0.0134253
805.706	0.0133522
805.785	0.0132130
805.863	0.0132249
805.941	0.0134232
806.019	0.0133798
806.097	0.0135130
806.175	0.0137557
806.253	0.0137625
806.331	0.0139630
806.410	0.0140272
806.488	0.0141725
806.566	0.0142947
806.644	0.0144399
806.722	0.0145071
806.800	0.0146097
806.878	0.0146786
806.956	0.0148705
807.035	0.0148820
807.113	0.0152237
807.191	0.0152017
807.269	0.0154293
807.347	0.0155548
807.425	0.0159064
807.503	0.0157422
807.581	0.0157781
807.660	0.0159734
807.738	0.0159287
807.816	0.0160728
807.894	0.0159577
807.972	0.0158826
808.050	0.0157695
808.128	0.0156337
808.206	0.0154320
808.285	0.0155081
808.363	0.0151436
808.441	0.0149802
808.519	0.0148822
808.597	0.0145698
808.675	0.0144404
808.753	0.0142245
808.831	0.0140871
808.910	0.0140867
808.988	0.0138765
809.066	0.0138383
809.144	0.0137737
809.222	0.0137823
809.300	0.0136433
809.378	0.0136540
809.456	0.0135110
809.535	0.0134814
809.613	0.0132996
809.691	0.0134086
809.769	0.0134760
809.847	0.0134480
809.925	0.0134245
810.003	0.0135033
810.081	0.0135580
810.160	0.0136964
810.238	0.0135744
810.316	0.0139279
810.394	0.0138772
810.472	0.0141263
810.550	0.0142174
810.628	0.0144253
810.706	0.0146482
810.785	0.0148292
810.863	0.0149852
810.941	0.0152297
811.019	0.0154132
811.097	0.0155016
811.175	0.0156435
811.253	0.0159038
811.331	0.0159158
811.410	0.0160211
811.488	0.0160275
811.566	0.0160446
811.644	0.0160352
811.722	0.0159371
811.800	0.0158986
811.878	0.0158508
811.956	0.0157504
812.035	0.0154793
812.113	0.0154047
812.191	0.0150952
812.269	0.0151149
812.347	0.0149673
812.425	0.0148951
812.503	0.0146464
812.581	0.0146867
812.660	0.0144384
812.738	0.0141641
812.816	0.0141311
812.894	0.0139576
812.972	0.0139172
813.050	0.0139101
813.128	0.0137550
813.206	0.0136498
813.285	0.0137460
813.363	0.0137255
813.441	0.0136381
813.519	0.0136758
813.597	0.0139050
813.675	0.0137718
813.753	0.0138799
813.831	0.0139184
813.910	0.0140345
813.988	0.0140987
814.066	0.0142595
814.144	0.0141970
814.222	0.0143637
814.300	0.0143488
814.378	0.0143862
814.456	0.0145352
814.535	0.0145455
814.613	0.0145943
814.691	0.0146871
814.769	0.0147245
814.847	0.0146735
814.925	0.0147443
815.003	0.0147723
815.081	0.0149578
815.160	0.0149314
815.238	0.0147967
815.316	0.0149799
815.394	0.0148860
815.472	0.0149908
815.550	0.0150172
815.628	0.0148328
815.706	0.0150019
815.785	0.0149575
815.863	0.0148949
815.941	0.0149157
816.019	0.0149104
816.097	0.0149073
816.175	0.0149235
816.253	0.0150027
816.331	0.0149398
816.410	0.0145625
816.488	0.0148593
816.566	0.0148213
816.644	0.0147873
816.722	0.0148125
816.800	0.0148375
816.878	0.0148376
816.956	0.0147610
817.035	0.0146051
817.113	0.0145425
817.191	0.0147628
817.269	0.0147443
817.347	0.0145784
817.425	0.0145502
817.503	0.0146001
817.581	0.0145673
817.660	0.0144557
817.738	0.0144727
817.816	0.0142841
817.894	0.0142681
817.972	0.0144063
818.050	0.0143224
818.128	0.0144846
818.206	0.0143755
818.285	0.0143467
818.363	0.0144112
818.441	0.0144579
818.519	0.0144572
818.597	0.0144935
818.675	0.0145687
818.753	0.0144167
818.831	0.0145023
818.910	0.0145132
818.988	0.0144315
819.066	0.0145495
819.144	0.0145660
819.222	0.0144772
819.300	0.0145094
819.378	0.0144597
819.456	0.0143974
819.535	0.0146540
819.613	0.0145796
819.691	0.0146291
819.769	0.0144849
819.847	0.0144836
819.925	0.0146362
820.003	0.0146362
820.081	0.0146621
820.160	0.0147122
820.238	0.0145961
820.316	0.0147044
820.394	0.0146832
820.472	0.0147825
820.550	0.0146921
820.628	0.0147781
820.706	0.0145431
820.785	0.0146870
820.863	0.0146648
820.941	0.0145646
821.019	0.0144473
821.097	0.0144711
821.175	0.0145554
821.253	0.0143611
821.331	0.0143980
821.410	0.0143005
821.488	0.0144786
821.566	0.0144841
821.644	0.0144189
821.722	0.0143466
821.800	0.0142616
821.878	0.0143759
821.956	0.0144463
822.035	0.0144004
822.113	0.0143982
822.191	0.0145555
822.269	0.0143471
822.347	0.0144987
822.425	0.0144498
822.503	0.0145061
822.581	0.0146336
822.660	0.0146657
822.738	0.0146462
822.816	0.0145668
822.894	0.0146937
822.972	0.0146926
823.050	0.0147387
823.128	0.0147797
823.206	0.0148254
823.285	0.0147221
823.363	0.0150410
823.441	0.0149967
823.519	0.0149645
823.597	0.0150453
823.675	0.0149638
823.753	0.0149484
823.831	0.0148807
823.910	0.0148232
823.988	0.0148437
824.066	0.0149266
824.144	0.0147501
824.222	0.0146668
824.300	0.0145145
824.378	0.0145187
824.456	0.0144308
824.535	0.0143662
824.613	0.0143977
824.691	0.0143292
824.769	0.0143688
824.847	0.0143243
824.925	0.0144260
825.003	0.0143476
825.081	0.0143583
825.160	0.0143278
825.238	0.0145056
825.316	0.0144523
825.394	0.0144264
825.472	0.0144409
825.550	0.0144702
825.628	0.0144918
825.706	0.0145692
825.785	0.0145959
825.863	0.0145087
825.941	0.0143379
826.019	0.0142770
826.097	0.0144023
826.175	0.0143499
826.253	0.0143494
826.331	0.0144138
826.410	0.0145495
826.488	0.0144090
826.566	0.0145645
826.644	0.0145805
826.722	0.0147302
826.800	0.0148365
826.878	0.0149001
826.956	0.0149228
827.035	0.0150495
827.113	0.0151506
827.191	0.0150866
827.269	0.0151826
827.347	0.0151863
827.425	0.0152669
827.503	0.0153541
827.581	0.0151627
827.660	0.0150710
827.738	0.0150232
827.816	0.0149203
827.894	0.0147839
827.972	0.0145154
828.050	0.0145045
828.128	0.0144296
828.206	0.0142254
828.285	0.0140790
828.363	0.0138501
828.441	0.0139888
828.519	0.0140466
828.597	0.0138988
828.675	0.0139223
828.753	0.0138548
828.831	0.0137620
828.910	0.0138811
828.988	0.0139260
829.066	0.0137805
829.144	0.0139754
829.222	0.0141286
829.300	0.0141405
829.378	0.0142864
829.456	0.0144502
829.535	0.0144948
829.613	0.0146763
829.691	0.0148220
829.769	0.0147563
829.847	0.0149221
829.925	0.0148924
830.003	0.0151038
830.081	0.0151703
830.160	0.0151839
830.238	0.0152261
830.316	0.0152219
830.394	0.0151704
830.472	0.0151648
830.550	0.0153216
830.628	0.0153407
830.706	0.0152325
830.785	0.0152148
830.863	0.0151476
830.941	0.0149443
831.019	0.0149262
831.097	0.0150734
831.175	0.0147776
831.253	0.0147348
831.331	0.0145728
831.410	0.0143720
831.488	0.0144572
831.566	0.0140918
831.644	0.0140431
831.722	0.0141145
831.800	0.0138878
831.878	0.0138539
831.956	0.0139080
832.035	0.0139163
832.113	0.0138839
832.191	0.0138421
832.269	0.0138176
832.347	0.0139714
832.425	0.0141174
832.503	0.0140614
832.581	0.0143514
832.660	0.0143818
832.738	0.0143128
832.816	0.0142944
832.894	0.0146333
832.972	0.0147052
833.050	0.0147057
833.128	0.0148043
833.206	0.0148147
833.285	0.0147717
833.363	0.0147378
833.441	0.0148764
833.519	0.0147708
833.597	0.0148077
833.675	0.0146554
833.753	0.0147368
833.831	0.0147226
833.910	0.0147844
833.988	0.0147096
834.066	0.0146305
834.144	0.0146749
834.222	0.0147569
834.300	0.0147150
834.378	0.0146311
834.456	0.0145832
834.535	0.0147202
834.613	0.0146028
834.691	0.0147697
834.769	0.0146033
834.847	0.0146075
834.925	0.0146336
835.003	0.0146177
835.081	0.0146135
835.160	0.0145856
835.238	0.0145707
835.316	0.0145112
835.394	0.0145757
835.472	0.0146500
835.550	0.0147055
835.628	0.0147837
835.706	0.0147935
835.785	0.0148077
835.863	0.0148505
835.941	0.0148911
836.019	0.0148586
836.097	0.0147996
836.175	0.0149285
836.253	0.0148778
836.331	0.0147658
836.410	0.0147093
836.488	0.0148290
836.566	0.0146990
836.644	0.0144923
836.722	0.0146767
836.800	0.0145011
836.878	0.0145193
836.956	0.0144810
837.035	0.0143716
837.113	0.0143271
837.191	0.0142405
837.269	0.0142762
837.347	0.0142085
837.425	0.0142761
837.503	0.0143932
837.581	0.0143069
837.660	0.0143200
837.738	0.0145311
837.816	0.0145575
837.894	0.0144739
837.972	0.0145364
838.050	0.0146396
838.128	0.0144588
838.206	0.0145467
838.285	0.0145944
838.363	0.0147047
838.441	0.0147108
838.519	0.0146644
838.597	0.0146539
838.675	0.0147931
838.753	0.0146546
838.831	0.0147117
838.910	0.0147224
838.988	0.0147692
839.066	0.0146212
839.144	0.0145702
839.222	0.0147010
839.300	0.0146729
839.378	0.0145432
839.456	0.0146130
839.535	0.0143878
839.613	0.0144689
839.691	0.0142780
839.769	0.0144237
839.847	0.0145125
839.925	0.0144804
840.003	0.0145045
840.081	0.0145969
840.160	0.0145690
840.238	0.0146628
840.316	0.0147100
840.394	0.0147946
840.472	0.0148249
840.550	0.0146959
840.628	0.0149580
840.706	0.0148517
840.785	0.0145993
840.863	0.0146854
840.941	0.0147515
841.019	0.0146957
841.097	0.0146882
841.175	0.0146510
841.253	0.0148033
841.331	0.0147128
841.410	0.0146817
841.488	0.0146384
841.566	0.0145920
841.644	0.0147221
841.722	0.0146302
841.800	0.0146355
841.878	0.0145811
841.956	0.0143697
842.035	0.0143630
842.113	0.0144201
842.191	0.0142693
842.269	0.0143353
842.347	0.0141618
842.425	0.0142800
842.503	0.0143269
842.581	0.0143343
842.660	0.0143147
842.738	0.0142563
842.816	0.0143918
842.894	0.0144507
842.972	0.0143919
843.050	0.0145331
843.128	0.0146682
843.206	0.0145990
843.285	0.0146652
843.363	0.0149385
843.441	0.0149965
843.519	0.0150694
843.597	0.0150367
843.675	0.0151667
843.753	0.0151929
843.831	0.0153344
843.910	0.0152612
843.988	0.0151144
844.066	0.0152410
844.144	0.0152983
844.222	0.0151474
844.300	0.0150371
844.378	0.0150231
844.456	0.0150233
844.535	0.0150851
844.613	0.0148946
844.691	0.0146683
844.769	0.0147065
844.847	0.0143491
844.925	0.0142905
845.003	0.0143219
845.081	0.0142078
845.160	0.0142604
845.238	0.0141582
845.316	0.0140965
845.394	0.0141190
845.472	0.0141602
845.550	0.0141803
845.628	0.0142904
845.706	0.0141401
845.785	0.0141668
845.863	0.0143002
845.941	0.0141421
846.019	0.0141458
846.097	0.0143159
846.175	0.0144045
846.253	0.0142293
846.331	0.0142451
846.410	0.0142683
846.488	0.0144153
846.566	0.0145058
846.644	0.0144006
846.722	0.0143996
846.800	0.0146854
846.878	0.0145583
846.956	0.0144956
847.035	0.0145826
847.113	0.0146523
847.191	0.0146911
847.269	0.0148643
847.347	0.0146555
847.425	0.0147218
847.503	0.0147186
847.581	0.0147462
847.660	0.0146788
847.738	0.0147897
847.816	0.0147743
847.894	0.0147297
847.972	0.0146946
848.050	0.0147266
848.128	0.0148384
848.206	0.0147789
848.285	0.0145279
848.363	0.0146287
848.441	0.0146636
848.519	0.0146387
848.597	0.0147165
848.675	0.0146767
848.753	0.0146329
848.831	0.0146068
848.910	0.0146032
848.988	0.0145560
849.066	0.0145440
849.144	0.0146063
849.222	0.0145757
849.300	0.0145937
849.378	0.0145654
849.456	0.0145560
849.535	0.0144699
849.613	0.0145390
849.691	0.0144920
849.769	0.0146812
849.847	0.0146578
849.925	0.0145761
850.003	0.0147360
850.081	0.0147489
850.160	0.0147176
850.238	0.0147395
850.316	0.0147681
850.394	0.0148182
850.472	0.0148278
850.550	0.0147640
850.628	0.0147260
850.706	0.0147343
850.785	0.0147639
850.863	0.0147406
850.941	0.0147144
851.019	0.0147528
851.097	0.0147944
851.175	0.0147814
851.253	0.0146362
851.331	0.0147356
851.410	0.0146554
851.488	0.0147535
851.566	0.0145429
851.644	0.0144794
851.722	0.0144703
851.800	0.0144570
851.878	0.0144778
851.956	0.0144393
852.035	0.0144171
852.113	0.0143020
852.191	0.0142603
852.269	0.0143306
852.347	0.0144469
852.425	0.0142698
852.503	0.0141286
852.581	0.0142873
852.660	0.0144352
852.738	0.0144057
852.816	0.0144072
852.894	0.0144817
852.972	0.0145657
853.050	0.0143546
853.128	0.0143832
853.206	0.0146011
853.285	0.0144527
853.363	0.0142303
853.441	0.0145105
853.519	0.0143913
853.597	0.0141448
853.675	0.0143739
853.753	0.0144955
853.831	0.0144032
853.910	0.0145572
853.988	0.0144377
854.066	0.0145090
854.144	0.0145475
854.222	0.0147431
854.300	0.0146471
854.378	0.0146490
854.456	0.0147378
854.535	0.0148717
854.613	0.0147210
854.691	0.0149067
854.769	0.0150199
854.847	0.0146307
854.925	0.0148588
855.003	0.0149458
855.081	0.0148695
855.160	0.0147668
855.238	0.0148092
855.316	0.0148923
855.394	0.0147408
855.472	0.0146498
855.550	0.0147108
855.628	0.0146128
855.706	0.0146394
855.785	0.0146394
855.863	0.0145040
855.941	0.0144526
856.019	0.0145010
856.097	0.0146400
856.175	0.0146285
856.253	0.0144810
856.331	0.0143999
856.410	0.0143405
856.488	0.0143987
856.566	0.0143562
856.644	0.0143657
856.722	0.0145126
856.800	0.0144508
856.878	0.0143309
856.956	0.0143568
857.035	0.0142899
857.113	0.0145054
857.191	0.0144984
857.269	0.0145303
857.347	0.0145680
857.425	0.0145989
857.503	0.0144890
857.581	0.0145892
857.660	0.0145712
857.738	0.0145485
857.816	0.0145213
857.894	0.0145042
857.972	0.0145856
858.050	0.0147349
858.128	0.0146229
858.206	0.0146745
858.285	0.0146782
858.363	0.0146535
858.441	0.0146781
858.519	0.0146456
858.597	0.0148574
858.675	0.0146793
858.753	0.0147422
858.831	0.0146151
858.910	0.0146832
858.988	0.0145719
859.066	0.0147495
859.144	0.0147999
859.222	0.0146065
859.300	0.0146175
859.378	0.0147773
859.456	0.0147183
859.535	0.0148096
859.613	0.0147562
859.691	0.0147906
859.769	0.0147329
859.847	0.0147372
859.925	0.0147186
860.003	0.0146323
860.081	0.0146727
860.160	0.0147083
860.238	0.0146260
860.316	0.0147157
860.394	0.0146906
860.472	0.0145345
860.550	0.0147421
860.628	0.0148207
860.706	0.0146134
860.785	0.0147269
860.863	0.0146401
860.941	0.0144016
861.019	0.0144334
861.097	0.0144268
861.175	0.0143257
861.253	0.0143143
861.331	0.0141903
861.410	0.0141727
861.488	0.0141877
861.566	0.0142612
861.644	0.0141080
861.722	0.0141889
861.800	0.0142931
861.878	0.0141560
861.956	0.0142569
862.035	0.0142666
862.113	0.0143787
862.191	0.0143089
862.269	0.0144088
862.347	0.0144322
862.425	0.0146482
862.503	0.0145144
862.581	0.0146351
862.660	0.0145682
862.738	0.0145101
862.816	0.0146390
862.894	0.0147081
862.972	0.0147628
863.050	0.0147662
863.128	0.0147229
863.206	0.0146033
863.285	0.0147035
863.363	0.0147393
863.441	0.0147160
863.519	0.0148792
863.597	0.0149308
863.675	0.0149732
863.753	0.0147699
863.831	0.0147899
863.910	0.0148599
863.988	0.0147383
864.066	0.0148875
864.144	0.0148310
864.222	0.0148198
864.300	0.0149065
864.378	0.0148262
864.456	0.0146432
864.535	0.0147358
864.613	0.0147113
864.691	0.0146687
864.769	0.0147354
864.847	0.0147378
864.925	0.0145786
865.003	0.0145499
865.081	0.0145802
865.160	0.0145271
865.238	0.0144736
865.316	0.0143024
865.394	0.0142612
865.472	0.0144099
865.550	0.0144054
865.628	0.0143501
865.706	0.0143786
865.785	0.0143149
865.863	0.0143456
865.941	0.0144112
866.019	0.0141991
866.097	0.0141898
866.175	0.0142546
866.253	0.0142816
866.331	0.0141939
866.410	0.0142500
866.488	0.0142450
866.566	0.0143358
866.644	0.0141251
866.722	0.0142225
866.800	0.0143336
866.878	0.0143945
866.956	0.0145574
867.035	0.0144904
867.113	0.0145213
867.191	0.0144472
867.269	0.0144749
867.347	0.0146588
867.425	0.0146457
867.503	0.0146925
867.581	0.0147766
867.660	0.0149094
867.738	0.0148283
867.816	0.0148075
867.894	0.0147157
867.972	0.0148212
868.050	0.0149289
868.128	0.0148827
868.206	0.0147112
868.285	0.0147787
868.363	0.0147955
868.441	0.0148083
868.519	0.0147552
868.597	0.0148209
868.675	0.0147569
868.753	0.0147792
868.831	0.0146811
868.910	0.0146463
868.988	0.0144775
869.066	0.0145341
869.144	0.0143803
869.222	0.0144963
869.300	0.0143737
869.378	0.0145383
869.456	0.0143687
869.535	0.0143984
869.613	0.0142339
869.691	0.0142958
869.769	0.0143475
869.847	0.0142533
869.925	0.0142542
870.003	0.0143624
870.081	0.0144078
870.160	0.0142886
870.238	0.0144379
870.316	0.0144588
870.394	0.0144283
870.472	0.0145296
870.550	0.0145795
870.628	0.0146631
870.706	0.0147933
870.785	0.0148676
870.863	0.0147211
870.941	0.0149483
871.019	0.0148727
871.097	0.0150244
871.175	0.0149983
871.253	0.0150175
871.331	0.0149564
871.410	0.0149307
871.488	0.0149864
871.566	0.0151208
871.644	0.0150130
871.722	0.0149781
871.800	0.0150137
871.878	0.0148779
871.956	0.0149000
872.035	0.0148273
872.113	0.0147153
872.191	0.0147313
872.269	0.0146739
872.347	0.0145787
872.425	0.0145601
872.503	0.0144495
872.581	0.0143002
872.660	0.0143422
872.738	0.0143174
872.816	0.0141516
872.894	0.0140444
872.972	0.0140732
873.050	0.0141848
873.128	0.0142853
873.206	0.0141700
873.285	0.0142110
873.363	0.0142308
873.441	0.0142302
873.519	0.0144660
873.597	0.0143112
873.675	0.0143162
873.753	0.0144984
873.831	0.0144955
873.910	0.0144941
873.988	0.0144395
874.066	0.0144079
874.144	0.0145545
874.222	0.0145568
874.300	0.0145242
874.378	0.0145204
874.456	0.0145063
874.535	0.0145387
874.613	0.0144897
874.691	0.0144943
874.769	0.0145867
874.847	0.0146343
874.925	0.0145841
875.003	0.0145723
875.081	0.0144525
875.160	0.0145308
875.238	0.0144924
875.316	0.0146185
875.394	0.0146243
875.472	0.0146251
875.550	0.0146989
875.628	0.0148027
875.706	0.0146815
875.785	0.0148690
875.863	0.0148174
875.941	0.0147738
876.019	0.0148376
876.097	0.0148325
876.175	0.0147377
876.253	0.0148599
876.331	0.0148527
876.410	0.0148447
876.488	0.0149489
876.566	0.0147795
876.644	0.0148298
876.722	0.0148660
876.800	0.0147899
876.878	0.0148264
876.956	0.0147245
877.035	0.0146730
877.113	0.0145652
877.191	0.0145786
877.269	0.0145737
877.347	0.0144980
877.425	0.0144662
877.503	0.0144055
877.581	0.0144100
877.660	0.0144131
877.738	0.0143784
877.816	0.0143628
877.894	0.0143965
877.972	0.0143896
878.050	0.0143372
878.128	0.0142698
878.206	0.0143062
878.285	0.0143024
878.363	0.0144527
878.441	0.0144044
878.519	0.0143764
878.597	0.0144066
878.675	0.0144161
878.753	0.0143802
878.831	0.0144548
878.910	0.0143661
878.988	0.0144911
879.066	0.0145191
879.144	0.0144505
879.222	0.0146187
879.300	0.0146304
879.378	0.0145324
879.456	0.0145518
879.535	0.0145950
879.613	0.0145380
879.691	0.0146968
879.769	0.0146453
879.847	0.0147159
879.925	0.0147134
880.003	0.0147669
880.081	0.0148409
880.160	0.0148506
880.238	0.0148125
880.316	0.0146492
880.394	0.0146685
880.472	0.0147258
880.550	0.0147176
880.628	0.0147742
880.706	0.0148428
880.785	0.0148035
880.863	0.0146631
880.941	0.0146626
881.019	0.0146738
881.097	0.0146658
881.175	0.0146007
881.253	0.0147441
881.331	0.0146694
881.410	0.0146144
881.488	0.0146861
881.566	0.0145712
881.644	0.0146095
881.722	0.0145125
881.800	0.0145300
881.878	0.0146432
881.956	0.0145157
882.035	0.0144797
882.113	0.0145348
882.191	0.0145448
882.269	0.0143695
882.347	0.0143789
882.425	0.0144363
882.503	0.0143127
882.581	0.0142701
882.660	0.0143912
882.738	0.0142953
882.816	0.0144011
882.894	0.0144791
882.972	0.0143434
883.050	0.0142536
883.128	0.0143317
883.206	0.0144975
883.285	0.0144688
883.363	0.0144448
883.441	0.0144657
883.519	0.0143370
883.597	0.0145428
883.675	0.0145406
883.753	0.0145840
883.831	0.0146815
883.910	0.0146254
883.988	0.0146412
884.066	0.0147459
884.144	0.0148071
884.222	0.0149148
884.300	0.0149497
884.378	0.0148892
884.456	0.0149144
884.535	0.0149644
884.613	0.0148977
884.691	0.0148650
884.769	0.0150021
884.847	0.0149385
884.925	0.0148930
885.003	0.0149783
885.081	0.0147507
885.160	0.0146906
885.238	0.0147153
885.316	0.0146621
885.394	0.0146387
885.472	0.0145612
885.550	0.0145061
885.628	0.0143958
885.706	0.0142228
885.785	0.0141850
885.863	0.0142033
885.941	0.0142148
886.019	0.0142873
886.097	0.0141965
886.175	0.0141940
886.253	0.0142402
886.331	0.0143592
886.410	0.0142161
886.488	0.0144028
886.566	0.0144929
886.644	0.0142728
886.722	0.0144234
886.800	0.0144383
886.878	0.0143961
886.956	0.0144473
887.035	0.0145655
887.113	0.0145900
887.191	0.0146612
887.269	0.0146870
887.347	0.0146072
887.425	0.0146140
887.503	0.0146647
887.581	0.0146363
887.660	0.0147081
887.738	0.0149329
887.816	0.0147004
887.894	0.0146833
887.972	0.0147512
888.050	0.0146677
888.128	0.0148451
888.206	0.0148924
888.285	0.0147286
888.363	0.0147423
888.441	0.0148827
888.519	0.0148186
888.597	0.0148289
888.675	0.0148087
888.753	0.0146803
888.831	0.0147578
888.910	0.0146555
888.988	0.0147677
889.066	0.0147337
889.144	0.0146599
889.222	0.0147195
889.300	0.0147599
889.378	0.0145919
889.456	0.0145061
889.535	0.0144135
889.613	0.0144322
889.691	0.0144167
889.769	0.0143746
889.847	0.0142957
889.925	0.0142288
890.003	0.0143284
890.081	0.0143040
890.160	0.0143134
890.238	0.0142297
890.316	0.0141937
890.394	0.0142988
890.472	0.0142867
890.550	0.0143809
890.628	0.0143141
890.706	0.0143009
890.785	0.0145377
890.863	0.0145062
890.941	0.0144659
891.019	0.0145826
891.097	0.0145589
891.175	0.0144218
891.253	0.0145786
891.331	0.0146680
891.410	0.0146924
891.488	0.0146429
891.566	0.0145780
891.644	0.0147848
891.722	0.0146961
891.800	0.0146725
891.878	0.0147966
891.956	0.0146437
892.035	0.0146954
892.113	0.0146012
892.191	0.0147422
892.269	0.0148193
892.347	0.0147784
892.425	0.0148424
892.503	0.0148511
892.581	0.0147402
892.660	0.0148356
892.738	0.0147024
892.816	0.0147560
892.894	0.0148046
892.972	0.0146664
893.050	0.0146735
893.128	0.0145859
893.206	0.0146272
893.285	0.0145605
893.363	0.0145568
893.441	0.0145640
893.519	0.0143754
893.597	0.0144571
893.675	0.0146014
893.753	0.0145355
893.831	0.0145702
893.910	0.0146447
893.988	0.0145615
894.066	0.0146182
894.144	0.0146729
894.222	0.0145823
894.300	0.0147488
894.378	0.0146436
894.456	0.0145823
894.535	0.0146144
894.613	0.0145548
894.691	0.0145082
894.769	0.0143668
894.847	0.0142973
894.925	0.0144458
895.003	0.0144228
895.081	0.0142114
895.160	0.0143239
895.238	0.0142951
895.316	0.0142576
895.394	0.0142556
895.472	0.0142279
895.550	0.0142513
895.628	0.0143645
895.706	0.0145437
895.785	0.0146298
895.863	0.0147942
895.941	0.0148756
896.019	0.0150419
896.097	0.0151353
896.175	0.0151342
896.253	0.0150049
896.331	0.0152068
896.410	0.0151317
896.488	0.0149377
896.566	0.0151009
896.644	0.0149154
896.722	0.0148329
896.800	0.0147279
896.878	0.0145841
896.956	0.0145826
897.035	0.0144501
897.113	0.0144235
897.191	0.0144586
897.269	0.0143391
897.347	0.0143485
897.425	0.0141425
897.503	0.0140733
897.581	0.0140343
897.660	0.0139337
897.738	0.0139063
897.816	0.0138720
897.894	0.0138414
897.972	0.0139203
898.050	0.0140173
898.128	0.0141959
898.206	0.0142749
898.285	0.0144563
898.363	0.0146379
898.441	0.0147258
898.519	0.0147605
898.597	0.0150304
898.675	0.0150713
898.753	0.0151349
898.831	0.0151120
898.910	0.0151379
898.988	0.0151986
899.066	0.0152346
899.144	0.0151659
899.222	0.0150368
899.300	0.0149025
899.378	0.0149149
899.456	0.0149199
899.535	0.0147250
899.613	0.0147235
899.691	0.0147596
899.769	0.0146526
899.847	0.0144990
899.925	0.0145193
900.003	0.0144347
900.081	0.0144681
900.160	0.0143186
900.238	0.0142857
900.316	0.0140914
900.394	0.0139944
900.472	0.0139536
900.550	0.0138509
900.628	0.0136356
900.706	0.0138696
900.785	0.0138490
900.863	0.0137521
900.941	0.0138460
901.019	0.0139006
901.097	0.0140044
901.175	0.0143176
901.253	0.0145863
901.331	0.0146773
901.410	0.0148227
901.488	0.0151071
901.566	0.0150642
901.644	0.0154381
901.722	0.0154819
901.800	0.0155723
901.878	0.0154054
901.956	0.0154842
902.035	0.0153889
902.113	0.0153023
902.191	0.0152530
902.269	0.0149751
902.347	0.0149173
902.425	0.0146838
902.503	0.0145185
902.581	0.0145289
902.660	0.0145033
902.738	0.0144666
902.816	0.0146069
902.894	0.0145628
902.972	0.0146194
903.050	0.0146352
903.128	0.0147376
903.206	0.0147041
903.285	0.0147732
903.363	0.0148051
903.441	0.0146904
903.519	0.0144537
903.597	0.0143241
903.675	0.0143344
903.753	0.0139941
903.831	0.0138848
903.910	0.0137817
903.988	0.0137633
904.066	0.0137381
904.144	0.0137022
904.222	0.0137697
904.300	0.0139698
904.378	0.0140717
904.456	0.0140440
904.535	0.0142879
904.613	0.0145046
904.691	0.0145683
904.769	0.0147915
904.847	0.0146738
904.925	0.0148550
905.003	0.0149014
905.081	0.0149609
905.160	0.0149449
905.238	0.0149066
905.316	0.0148622
905.394	0.0148367
905.472	0.0149042
905.550	0.0148138
905.628	0.0148247
905.706	0.0148425
905.785	0.0148319
905.863	0.0147348
905.941	0.0146550
906.019	0.0147751
906.097	0.0147362
906.175	0.0148431
906.253	0.0150160
906.331	0.0150916
906.410	0.0149722
906.488	0.0150429
906.566	0.0151903
906.644	0.0152376
906.722	0.0151566
906.800	0.0148984
906.878	0.0148721
906.956	0.0147641
907.035	0.0146528
907.113	0.0143895
907.191	0.0141819
907.269	0.0140779
907.347	0.0138483
907.425	0.0138734
907.503	0.0137569
907.581	0.0137801
907.660	0.0137415
907.738	0.0137506
907.816	0.0140389
907.894	0.0139176
907.972	0.0139433
908.050	0.0140973
908.128	0.0140540
908.206	0.0142049
908.285	0.0143685
908.363	0.0144991
908.441	0.0146346
908.519	0.0145772
908.597	0.0147800
908.675	0.0148737
908.753	0.0149434
908.831	0.0148909
908.910	0.0150172
908.988	0.0153224
909.066	0.0152515
909.144	0.0152224
909.222	0.0152489
909.300	0.0151678
909.378	0.0150917
909.456	0.0150751
909.535	0.0150365
909.613	0.0149507
909.691	0.0148142
909.769	0.0148055
909.847	0.0146411
909.925	0.0145321
910.003	0.0144559
910.081	0.0144368
910.160	0.0145013
910.238	0.0145172
910.316	0.0145663
910.394	0.0145602
910.472	0.0145051
910.550	0.0146985
910.628	0.0147086
910.706	0.0147263
910.785	0.0145963
910.863	0.0147251
910.941	0.0146126
911.019	0.0147425
911.097	0.0148056
911.175	0.0147482
911.253	0.0145859
911.331	0.0145430
911.410	0.0144527
911.488	0.0144020
911.566	0.0143861
911.644	0.0144479
911.722	0.0145243
911.800	0.0144466
911.878	0.0145824
911.956	0.0144302
912.035	0.0144204
912.113	0.0145033
912.191	0.0143298
912.269	0.0144393
912.347	0.0143754
912.425	0.0144173
912.503	0.0143875
912.581	0.0145276
912.660	0.0144440
912.738	0.0142992
912.816	0.0142513
912.894	0.0145008
912.972	0.0144218
913.050	0.0144038
913.128	0.0145293
913.206	0.0143848
913.285	0.0142843
913.363	0.0143597
913.441	0.0145550
913.519	0.0144231
913.597	0.0144343
913.675	0.0145982
913.753	0.0146468
913.831	0.0145729
913.910	0.0146553
913.988	0.0148637
914.066	0.0148182
914.144	0.0149022
914.222	0.0149631
914.300	0.0147772
914.378	0.0149824
914.456	0.0150562
914.535	0.0151017
914.613	0.0153041
914.691	0.0151476
914.769	0.0149577
914.847	0.0150276
914.925	0.0150327
915.003	0.0149488
915.081	0.0148062
915.160	0.0148824
915.238	0.0148895
915.316	0.0147410
915.394	0.0148063
915.472	0.0147282
915.550	0.0147758
915.628	0.0146462
915.706	0.0145654
915.785	0.0146510
915.863	0.0145309
915.941	0.0144001
916.019	0.0144324
916.097	0.0143740
916.175	0.0143558
916.253	0.0143788
916.331	0.0142661
916.410	0.0141657
916.488	0.0141976
916.566	0.0143602
916.644	0.0144212
916.722	0.0143562
916.800	0.0144014
916.878	0.0144788
916.956	0.0145552
917.035	0.0144817
917.113	0.0146362
917.191	0.0147002
917.269	0.0146171
917.347	0.0145881
917.425	0.0146497
917.503	0.0145778
917.581	0.0146716
917.660	0.0145594
917.738	0.0145754
917.816	0.0145516
917.894	0.0145252
917.972	0.0144881
918.050	0.0145176
918.128	0.0144852
918.206	0.0143128
918.285	0.0145091
918.363	0.0146262
918.441	0.0146520
918.519	0.0145723
918.597	0.0146179
918.675	0.0145325
918.753	0.0145830
918.831	0.0147650
918.910	0.0146368
918.988	0.0146985
919.066	0.0145972
919.144	0.0146957
919.222	0.0146496
919.300	0.0146766
919.378	0.0146348
919.456	0.0146307
919.535	0.0146609
919.613	0.0147304
919.691	0.0146326
919.769	0.0147336
919.847	0.0147130
919.925	0.0148390
920.003	0.0146237
920.081	0.0145422
920.160	0.0146311
920.238	0.0146835
920.316	0.0147562
920.394	0.0147474
920.472	0.0147454
920.550	0.0147409
920.628	0.0147827
920.706	0.0146494
920.785	0.0146514
920.863	0.0146757
920.941	0.0146418
921.019	0.0146589
921.097	0.0146812
921.175	0.0145461
921.253	0.0145702
921.331	0.0143807
921.410	0.0143130
921.488	0.0143822
921.566	0.0144597
921.644	0.0144591
921.722	0.0144981
921.800	0.0144511
921.878	0.0143365
921.956	0.0143890
922.035	0.0143341
922.113	0.0144116
922.191	0.0144046
922.269	0.0144783
922.347	0.0144784
922.425	0.0144542
922.503	0.0144020
922.581	0.0145849
922.660	0.0145962
922.738	0.0146552
922.816	0.0145882
922.894	0.0147047
922.972	0.0147499
923.050	0.0147822
923.128	0.0148586
923.206	0.0147060
923.285	0.0147433
923.363	0.0148634
923.441	0.0147472
923.519	0.0145332
923.597	0.0147097
923.675	0.0147196
923.753	0.0146198
923.831	0.0145505
923.910	0.0145630
923.988	0.0145557
924.066	0.0143764
924.144	0.0144663
924.222	0.0145206
924.300	0.0143414
924.378	0.0144403
924.456	0.0144537
924.535	0.0143590
924.613	0.0144267
924.691	0.0143738
924.769	0.0144665
924.847	0.0143433
924.925	0.0143694
925.003	0.0144488
925.081	0.0143952
925.160	0.0145666
925.238	0.0144485
925.316	0.0145822
925.394	0.0145081
925.472	0.0145333
925.550	0.0145634
925.628	0.0145776
925.706	0.0145873
925.785	0.0145937
925.863	0.0146354
925.941	0.0146910
926.019	0.0146650
926.097	0.0147170
926.175	0.0146893
926.253	0.0145419
926.331	0.0145354
926.410	0.0145393
926.488	0.0144962
926.566	0.0145271
926.644	0.0144484
926.722	0.0143222
926.800	0.0143725
926.878	0.0143542
926.956	0.0142404
927.035	0.0143228
927.113	0.0143064
927.191	0.0143034
927.269	0.0142690
927.347	0.0144128
927.425	0.0144622
927.503	0.0143828
927.581	0.0142535
927.660	0.0141693
927.738	0.0143710
927.816	0.0143512
927.894	0.0144260
927.972	0.0144038
928.050	0.0144105
928.128	0.0145005
928.206	0.0144431
928.285	0.0145593
928.363	0.0147118
928.441	0.0145112
928.519	0.0147417
928.597	0.0146801
928.675	0.0148423
928.753	0.0149592
928.831	0.0149176
928.910	0.0149311
928.988	0.0149426
929.066	0.0148669
929.144	0.0148568
929.222	0.0149333
929.300	0.0150323
929.378	0.0147720
929.456	0.0148486
929.535	0.0147656
929.613	0.0147562
929.691	0.0147926
929.769	0.0146900
929.847	0.0145747
929.925	0.0146442
930.003	0.0145412
930.081	0.0145396
930.160	0.0146925
930.238	0.0146675
930.316	0.0144994
930.394	0.0145679
930.472	0.0143784
930.550	0.0142384
930.628	0.0143793
930.706	0.0143241
930.785	0.0143012
930.863	0.0142722
930.941	0.0142797
931.019	0.0143580
931.097	0.0143501
931.175	0.0143195
931.253	0.0143753
931.331	0.0145007
931.410	0.0145399
931.488	0.0145409
931.566	0.0146529
931.644	0.0147503
931.722	0.0146304
931.800	0.0146583
931.878	0.0147266
931.956	0.0148740
932.035	0.0146733
932.113	0.0146803
932.191	0.0146781
932.269	0.0148979
932.347	0.0149294
932.425	0.0149287
932.503	0.0149393
932.581	0.0149648
932.660	0.0146940
932.738	0.0147103
932.816	0.0147496
932.894	0.0147755
932.972	0.0146275
933.050	0.0145645
933.128	0.0144790
933.206	0.0146042
933.285	0.0146294
933.363	0.0144751
933.441	0.0145342
933.519	0.0144726
933.597	0.0143457
933.675	0.0144512
933.753	0.0144292
933.831	0.0143984
933.910	0.0143960
933.988	0.0144552
934.066	0.0144853
934.144	0.0145274
934.222	0.0144542
934.300	0.0144678
934.378	0.0143681
934.456	0.0144312
934.535	0.0145982
934.613	0.0144735
934.691	0.0145613
934.769	0.0146667
934.847	0.0145649
934.925	0.0146322
935.003	0.0146018
935.081	0.0146607
935.160	0.0146967
935.238	0.0147032
935.316	0.0147161
935.394	0.0147892
935.472	0.0148407
935.550	0.0148402
935.628	0.0147399
935.706	0.0146464
935.785	0.0147625
935.863	0.0146437
935.941	0.0147417
936.019	0.0147317
936.097	0.0146732
936.175	0.0146801
936.253	0.0146338
936.331	0.0146377
936.410	0.0145144
936.488	0.0145412
936.566	0.0147466
936.644	0.0144727
936.722	0.0145291
936.800	0.0146992
936.878	0.0145494
936.956	0.0144907
937.035	0.0144631
937.113	0.0145692
937.191	0.0146244
937.269	0.0145322
937.347	0.0144714
937.425	0.0144857
937.503	0.0144691
937.581	0.0144638
937.660	0.0145539
937.738	0.0146682
937.816	0.0146553
937.894	0.0146849
937.972	0.0147922
938.050	0.0146953
938.128	0.0147107
938.206	0.0147569
938.285	0.0147182
938.363	0.0146339
938.441	0.0145868
938.519	0.0147720
938.597	0.0146046
938.675	0.0145695
938.753	0.0144027
938.831	0.0142334
938.910	0.0144413
938.988	0.0144850
939.066	0.0142953
939.144	0.0141592
939.222	0.0142796
939.300	0.0141794
939.378	0.0141158
939.456	0.0139823
939.535	0.0143404
939.613	0.0143130
939.691	0.0141417
939.769	0.0143502
939.847	0.0142773
939.925	0.0143690
940.003	0.0145217
940.081	0.0145353
940.160	0.0145777
940.238	0.0147543
940.316	0.0147129
940.394	0.0148067
940.472	0.0148763
940.550	0.0147373
940.628	0.0147428
940.706	0.0147940
940.785	0.0147702
940.863	0.0148068
940.941	0.0147366
941.019	0.0148191
941.097	0.0148555
941.175	0.0148249
941.253	0.0147670
941.331	0.0148155
941.410	0.0146390
941.488	0.0146911
941.566	0.0145752
941.644	0.0146520
941.722	0.0146696
941.800	0.0147501
941.878	0.0146992
941.956	0.0145995
942.035	0.0146573
942.113	0.0145268
942.191	0.0145656
942.269	0.0146373
942.347	0.0144724
942.425	0.0143714
942.503	0.0145161
942.581	0.0145213
942.660	0.0145214
942.738	0.0146287
942.816	0.0145715
942.894	0.0144681
942.972	0.0144299
943.050	0.0144756
943.128	0.0143101
943.206	0.0144962
943.285	0.0142515
943.363	0.0143864
943.441	0.0143133
943.519	0.0143182
943.597	0.0143486
943.675	0.0141611
943.753	0.0141494
943.831	0.0142751
943.910	0.0141550
943.988	0.0142502
944.066	0.0144599
944.144	0.0142704
944.222	0.0142984
944.300	0.0141615
944.378	0.0142464
944.456	0.0142957
944.535	0.0144932
944.613	0.0144491
944.691	0.0145055
944.769	0.0144927
944.847	0.0145732
944.925	0.0145855
945.003	0.0146159
945.081	0.0147860
945.160	0.0147577
945.238	0.0147350
945.316	0.0148186
945.394	0.0149448
945.472	0.0148622
945.550	0.0148395
945.628	0.0148804
945.706	0.0151086
945.785	0.0148089
945.863	0.0148101
945.941	0.0148687
946.019	0.0147258
946.097	0.0147216
946.175	0.0149007
946.253	0.0148137
946.331	0.0147605
946.410	0.0146455
946.488	0.0145277
946.566	0.0146185
946.644	0.0146748
946.722	0.0145753
946.800	0.0146164
946.878	0.0146415
946.956	0.0145636
947.035	0.0145053
947.113	0.0144639
947.191	0.0144859
947.269	0.0145224
947.347	0.0143266
947.425	0.0142690
947.503	0.0143128
947.581	0.0142968
947.660	0.0143725
947.738	0.0141848
947.816	0.0142712
947.894	0.0142614
947.972	0.0143034
948.050	0.0143166
948.128	0.0142885
948.206	0.0144691
948.285	0.0142725
948.363	0.0143420
948.441	0.0144827
948.519	0.0145045
948.597	0.0144337
948.675	0.0144682
948.753	0.0144402
948.831	0.0143945
948.910	0.0145157
948.988	0.0144319
949.066	0.0143517
949.144	0.0144294
949.222	0.0143380
949.300	0.0143861
949.378	0.0143286
949.456	0.0143531
949.535	0.0142669
949.613	0.0143999
949.691	0.0143549
949.769	0.0143977
949.847	0.0144677
949.925	0.0146616
950.003	0.0145222
950.081	0.0144498
950.160	0.0144950
950.238	0.0148198
950.316	0.0145702
950.394	0.0146236
950.472	0.0146107
950.550	0.0146542
950.628	0.0148265
950.706	0.0148454
950.785	0.0147479
950.863	0.0147055
950.941	0.0146961
951.019	0.0146861
951.097	0.0147510
951.175	0.0145836
951.253	0.0145518
951.331	0.0145463
951.410	0.0146146
951.488	0.0147631
951.566	0.0145158
951.644	0.0143967
951.722	0.0145107
951.800	0.0143864
951.878	0.0144616
951.956	0.0143262
952.035	0.0143811
952.113	0.0143635
952.191	0.0145448
952.269	0.0144393
952.347	0.0142570
952.425	0.0145155
952.503	0.0145669
952.581	0.0145592
952.660	0.0148450
952.738	0.0147192
952.816	0.0146714
952.894	0.0147593
952.972	0.0148596
953.050	0.0148964
953.128	0.0148647
953.206	0.0147906
953.285	0.0149899
953.363	0.0149513
953.441	0.0147921
953.519	0.0147562
953.597	0.0147759
953.675	0.0147002
953.753	0.0146998
953.831	0.0145378
953.910	0.0144717
953.988	0.0143567
954.066	0.0142218
954.144	0.0143959
954.222	0.0141509
954.300	0.0141576
954.378	0.0141676
954.456	0.0142693
954.535	0.0141946
954.613	0.0139906
954.691	0.0140892
954.769	0.0142078
954.847	0.0140380
954.925	0.0139751
955.003	0.0140609
955.081	0.0141686
955.160	0.0141795
955.238	0.0142537
955.316	0.0140897
955.394	0.0142130
955.472	0.0142554
955.550	0.0143083
955.628	0.0143764
955.706	0.0144368
955.785	0.0143752
955.863	0.0145226
955.941	0.0144627
956.019	0.0145658
956.097	0.0145795
956.175	0.0146568
956.253	0.0146328
956.331	0.0146609
956.410	0.0146393
956.488	0.0147823
956.566	0.0146436
956.644	0.0147473
956.722	0.0149287
956.800	0.0146728
956.878	0.0146302
956.956	0.0146928
957.035	0.0146199
957.113	0.0148158
957.191	0.0146271
957.269	0.0146935
957.347	0.0147066
957.425	0.0147028
957.503	0.0147532
957.581	0.0146291
957.660	0.0146184
957.738	0.0145755
957.816	0.0146189
957.894	0.0147533
957.972	0.0148154
958.050	0.0146338
958.128	0.0148212
958.206	0.0148383
958.285	0.0148435
958.363	0.0148244
958.441	0.0148363
958.519	0.0148755
958.597	0.0148856
958.675	0.0148222
958.753	0.0146732
958.831	0.0147657
958.910	0.0146113
958.988	0.0146230
959.066	0.0145347
959.144	0.0146572
959.222	0.0145193
959.300	0.0144672
959.378	0.0141837
959.456	0.0143684
959.535	0.0141897
959.613	0.0141885
959.691	0.0141930
959.769	0.0141708
959.847	0.0140340
959.925	0.0141215
960.003	0.0141216
960.081	0.0140311
960.160	0.0139316
960.238	0.0141384
960.316	0.0142615
960.394	0.0141263
960.472	0.0142992
960.550	0.0143259
960.628	0.0145095
960.706	0.0145689
960.785	0.0145174
960.863	0.0146889
960.941	0.0147218
961.019	0.0148725
961.097	0.0148318
961.175	0.0148286
961.253	0.0149432
961.331	0.0149310
961.410	0.0149609
961.488	0.0150185
961.566	0.0150497
961.644	0.0150314
961.722	0.0151346
961.800	0.0151087
961.878	0.0151239
961.956	0.0150603
962.035	0.0151501
962.113	0.0150098
962.191	0.0149463
962.269	0.0149634
962.347	0.0148587
962.425	0.0148046
962.503	0.0147345
962.581	0.0148573
962.660	0.0146873
962.738	0.0147614
962.816	0.0146518
962.894	0.0145280
962.972	0.0144446
963.050	0.0144135
963.128	0.0143368
963.206	0.0143613
963.285	0.0145059
963.363	0.0144176
963.441	0.0142341
963.519	0.0142805
963.597	0.0143459
963.675	0.0143177
963.753	0.0142367
963.831	0.0143288
963.910	0.0144337
963.988	0.0144762
964.066	0.0143856
964.144	0.0143797
964.222	0.0144625
964.300	0.0144788
964.378	0.0146569
964.456	0.0145193
964.535	0.0144543
964.613	0.0144796
964.691	0.0144522
964.769	0.0145126
964.847	0.0146362
964.925	0.0145569
965.003	0.0144627
965.081	0.0145163
965.160	0.0144917
965.238	0.0146253
965.316	0.0146397
965.394	0.0146473
965.472	0.0144986
965.550	0.0145907
965.628	0.0145871
965.706	0.0146129
965.785	0.0145828
965.863	0.0145364
965.941	0.0145284
966.019	0.0145976
966.097	0.0145494
966.175	0.0146835
966.253	0.0146761
966.331	0.0145972
966.410	0.0144437
966.488	0.0145031
966.566	0.0146159
966.644	0.0146474
966.722	0.0147968
966.800	0.0147576
966.878	0.0148283
966.956	0.0148054
967.035	0.0146722
967.113	0.0149837
967.191	0.0147224
967.269	0.0148678
967.347	0.0148134
967.425	0.0147958
967.503	0.0149250
967.581	0.0146405
967.660	0.0145806
967.738	0.0146178
967.816	0.0145234
967.894	0.0144403
967.972	0.0144283
968.050	0.0143419
968.128	0.0144220
968.206	0.0144191
968.285	0.0143086
968.363	0.0142566
968.441	0.0144248
968.519	0.0143999
968.597	0.0144094
968.675	0.0144351
968.753	0.0146052
968.831	0.0144804
968.910	0.0144601
968.988	0.0146255
969.066	0.0144539
969.144	0.0144875
969.222	0.0146144
969.300	0.0145112
969.378	0.0146357
969.456	0.0145102
969.535	0.0145426
969.613	0.0146602
969.691	0.0144923
969.769	0.0144667
969.847	0.0143771
969.925	0.0143685
970.003	0.0143725
970.081	0.0142544
970.160	0.0142691
970.238	0.0143714
970.316	0.0142427
970.394	0.0142757
970.472	0.0141949
970.550	0.0143412
970.628	0.0142107
970.706	0.0143860
970.785	0.0143485
970.863	0.0142841
970.941	0.0142947
971.019	0.0142562
971.097	0.0144051
971.175	0.0143668
971.253	0.0144342
971.331	0.0144932
971.410	0.0145175
971.488	0.0146489
971.566	0.0146552
971.644	0.0145771
971.722	0.0147018
971.800	0.0147434
971.878	0.0148197
971.956	0.0148715
972.035	0.0149332
972.113	0.0148499
972.191	0.0147794
972.269	0.0149266
972.347	0.0147884
972.425	0.0148758
972.503	0.0148154
972.581	0.0148344
972.660	0.0148632
972.738	0.0148769
972.816	0.0146573
972.894	0.0147339
972.972	0.0147031
973.050	0.0148243
973.128	0.0149084
973.206	0.0147734
973.285	0.0146492
973.363	0.0146397
973.441	0.0145844
973.519	0.0146179
973.597	0.0145034
973.675	0.0145452
973.753	0.0144485
973.831	0.0144423
973.910	0.0144407
973.988	0.0143547
974.066	0.0142921
974.144	0.0144516
974.222	0.0143625
974.300	0.0140712
974.378	0.0142341
974.456	0.0143829
974.535	0.0144870
974.613	0.0145667
974.691	0.0146157
974.769	0.0144614
974.847	0.0143903
974.925	0.0144697
975.003	0.0145555
975.081	0.0145666
975.160	0.0145500
975.238	0.0144544
975.316	0.0145745
975.394	0.0145404
975.472	0.0146266
975.550	0.0146005
975.628	0.0146349
975.706	0.0146783
975.785	0.0146026
975.863	0.0145033
975.941	0.0145896
976.019	0.0145786
976.097	0.0146289
976.175	0.0144173
976.253	0.0145110
976.331	0.0145340
976.410	0.0144279
976.488	0.0143423
976.566	0.0145653
976.644	0.0144336
976.722	0.0144150
976.800	0.0144382
976.878	0.0145733
976.956	0.0146018
977.035	0.0146039
977.113	0.0146085
977.191	0.0146294
977.269	0.0147092
977.347	0.0147866
977.425	0.0147607
977.503	0.0148677
977.581	0.0148747
977.660	0.0148740
977.738	0.0149693
977.816	0.0149363
977.894	0.0149201
977.972	0.0149398
978.050	0.0148706
978.128	0.0148694
978.206	0.0148396
978.285	0.0148310
978.363	0.0147490
978.441	0.0145536
978.519	0.0145744
978.597	0.0145337
978.675	0.0144093
978.753	0.0143466
978.831	0.0144692
978.910	0.0143217
978.988	0.0143279
979.066	0.0143180
979.144	0.0142956
979.222	0.0142833
979.300	0.0142574
979.378	0.0142883
979.456	0.0141852
979.535	0.0142133
979.613	0.0141666
979.691	0.0142265
979.769	0.0142970
979.847	0.0142072
979.925	0.0143499
