05/03/2022	20:20:02	Ver.	4.1	UNKNOWN
Optical Delay	660.003261	Delta X		0.078125	Sweeps	1	Scan Rate	0/0
Coordinates	Axis 1	NaN	Axis 2	NaN	Axis 3	NaN	Axis 4	NaN	Axis 5	NaN	Axis 6	0.000000
TX Power	0.000000	RX Power	0.000000

660.003	0.0146236
660.081	0.0145286
660.160	0.0146355
660.238	0.0146478
660.316	0.0146574
660.394	0.0147068
660.472	0.0146913
660.550	0.0146437
660.628	0.0146157
660.706	0.0146382
660.785	0.0145487
660.863	0.0147329
660.941	0.0146343
661.019	0.0145605
661.097	0.0147251
661.175	0.0146290
661.253	0.0147588
661.331	0.0145491
661.410	0.0146653
661.488	0.0146281
661.566	0.0144635
661.644	0.0147134
661.722	0.0146090
661.800	0.0146441
661.878	0.0147121
661.956	0.0145647
662.035	0.0145811
662.113	0.0146362
662.191	0.0145874
662.269	0.0146712
662.347	0.0145893
662.425	0.0145718
662.503	0.0145726
662.581	0.0147739
662.660	0.0147151
662.738	0.0146275
662.816	0.0145768
662.894	0.0144608
662.972	0.0146773
663.050	0.0146249
663.128	0.0145512
663.206	0.0144572
663.285	0.0145650
663.363	0.0146646
663.441	0.0146197
663.519	0.0146398
663.597	0.0147671
663.675	0.0145720
663.753	0.0146099
663.831	0.0146220
663.910	0.0145274
663.988	0.0144795
664.066	0.0146970
664.144	0.0146878
664.222	0.0146922
664.300	0.0146777
664.378	0.0145649
664.456	0.0145435
664.535	0.0144336
664.613	0.0146755
664.691	0.0147275
664.769	0.0145609
664.847	0.0145805
664.925	0.0145551
665.003	0.0146597
665.081	0.0145441
665.160	0.0145757
665.238	0.0146469
665.316	0.0146172
665.394	0.0145692
665.472	0.0147147
665.550	0.0145745
665.628	0.0145593
665.706	0.0145415
665.785	0.0146068
665.863	0.0146548
665.941	0.0145770
666.019	0.0145458
666.097	0.0145131
666.175	0.0146063
666.253	0.0146851
666.331	0.0146300
666.410	0.0145421
666.488	0.0144720
666.566	0.0146507
666.644	0.0146888
666.722	0.0145728
666.800	0.0147355
666.878	0.0145126
666.956	0.0146083
667.035	0.0147170
667.113	0.0144864
667.191	0.0145924
667.269	0.0146137
667.347	0.0146388
667.425	0.0146342
667.503	0.0145244
667.581	0.0146096
667.660	0.0146356
667.738	0.0146740
667.816	0.0146352
667.894	0.0146770
667.972	0.0145569
668.050	0.0145684
668.128	0.0146111
668.206	0.0145982
668.285	0.0146313
668.363	0.0145888
668.441	0.0145783
668.519	0.0145324
668.597	0.0145863
668.675	0.0146873
668.753	0.0145440
668.831	0.0145663
668.910	0.0144978
668.988	0.0147220
669.066	0.0148046
669.144	0.0145934
669.222	0.0146268
669.300	0.0146352
669.378	0.0146609
669.456	0.0147595
669.535	0.0145604
669.613	0.0144772
669.691	0.0146445
669.769	0.0146504
669.847	0.0145076
669.925	0.0145775
670.003	0.0146656
670.081	0.0146698
670.160	0.0146866
670.238	0.0146423
670.316	0.0145056
670.394	0.0144942
670.472	0.0146263
670.550	0.0145984
670.628	0.0145894
670.706	0.0147418
670.785	0.0145744
670.863	0.0145478
670.941	0.0145548
671.019	0.0145233
671.097	0.0146127
671.175	0.0145450
671.253	0.0144621
671.331	0.0145218
671.410	0.0145907
671.488	0.0145612
671.566	0.0146294
671.644	0.0145583
671.722	0.0145812
671.800	0.0147341
671.878	0.0145361
671.956	0.0145776
672.035	0.0146818
672.113	0.0144836
672.191	0.0145541
672.269	0.0146403
672.347	0.0146327
672.425	0.0145988
672.503	0.0146809
672.581	0.0144899
672.660	0.0143624
672.738	0.0147128
672.816	0.0147197
672.894	0.0146288
672.972	0.0146194
673.050	0.0145797
673.128	0.0145795
673.206	0.0145779
673.285	0.0145591
673.363	0.0145874
673.441	0.0146843
673.519	0.0145676
673.597	0.0146571
673.675	0.0146161
673.753	0.0146713
673.831	0.0145691
673.910	0.0146144
673.988	0.0146589
674.066	0.0145178
674.144	0.0146255
674.222	0.0145855
674.300	0.0146088
674.378	0.0145389
674.456	0.0146129
674.535	0.0147508
674.613	0.0146744
674.691	0.0145940
674.769	0.0145882
674.847	0.0144276
674.925	0.0146213
675.003	0.0145363
675.081	0.0147368
675.160	0.0146513
675.238	0.0145956
675.316	0.0145858
675.394	0.0146679
675.472	0.0146172
675.550	0.0146658
675.628	0.0147542
675.706	0.0145615
675.785	0.0146023
675.863	0.0145649
675.941	0.0145377
676.019	0.0146733
676.097	0.0146291
676.175	0.0146422
676.253	0.0146180
676.331	0.0145442
676.410	0.0146754
676.488	0.0147412
676.566	0.0147366
676.644	0.0147124
676.722	0.0145692
676.800	0.0145572
676.878	0.0147075
676.956	0.0145767
677.035	0.0145863
677.113	0.0147181
677.191	0.0146291
677.269	0.0145854
677.347	0.0146339
677.425	0.0146497
677.503	0.0146816
677.581	0.0147456
677.660	0.0146236
677.738	0.0146358
677.816	0.0147813
677.894	0.0146480
677.972	0.0147425
678.050	0.0146150
678.128	0.0145185
678.206	0.0146178
678.285	0.0147638
678.363	0.0147077
678.441	0.0144592
678.519	0.0144865
678.597	0.0147129
678.675	0.0147544
678.753	0.0146158
678.831	0.0147470
678.910	0.0146607
678.988	0.0146669
679.066	0.0147594
679.144	0.0147365
679.222	0.0145860
679.300	0.0147257
679.378	0.0146536
679.456	0.0146592
679.535	0.0146534
679.613	0.0146809
679.691	0.0145818
679.769	0.0147009
679.847	0.0146725
679.925	0.0145795
680.003	0.0146088
680.081	0.0146580
680.160	0.0146185
680.238	0.0146590
680.316	0.0146945
680.394	0.0145311
680.472	0.0146886
680.550	0.0147240
680.628	0.0145719
680.706	0.0146203
680.785	0.0147016
680.863	0.0146581
680.941	0.0146200
681.019	0.0147012
681.097	0.0146451
681.175	0.0146412
681.253	0.0146001
681.331	0.0146142
681.410	0.0145844
681.488	0.0146404
681.566	0.0146496
681.644	0.0146331
681.722	0.0146281
681.800	0.0145343
681.878	0.0146733
681.956	0.0147620
682.035	0.0146236
682.113	0.0145406
682.191	0.0146548
682.269	0.0145409
682.347	0.0145829
682.425	0.0146788
682.503	0.0146429
682.581	0.0146539
682.660	0.0146759
682.738	0.0146007
682.816	0.0144668
682.894	0.0145701
682.972	0.0146018
683.050	0.0146538
683.128	0.0146172
683.206	0.0145792
683.285	0.0145809
683.363	0.0145896
683.441	0.0145842
683.519	0.0146774
683.597	0.0145052
683.675	0.0145212
683.753	0.0146153
683.831	0.0145859
683.910	0.0145040
683.988	0.0146176
684.066	0.0145794
684.144	0.0145450
684.222	0.0146291
684.300	0.0146037
684.378	0.0146508
684.456	0.0146701
684.535	0.0144176
684.613	0.0145908
684.691	0.0145313
684.769	0.0145734
684.847	0.0145946
684.925	0.0147160
685.003	0.0146377
685.081	0.0146250
685.160	0.0145326
685.238	0.0144230
685.316	0.0146114
685.394	0.0147581
685.472	0.0145153
685.550	0.0144663
685.628	0.0144906
685.706	0.0145334
685.785	0.0144131
685.863	0.0146555
685.941	0.0146559
686.019	0.0146169
686.097	0.0147922
686.175	0.0146244
686.253	0.0146022
686.331	0.0144688
686.410	0.0146423
686.488	0.0145950
686.566	0.0147443
686.644	0.0145637
686.722	0.0146355
686.800	0.0146681
686.878	0.0146434
686.956	0.0144987
687.035	0.0146316
687.113	0.0147212
687.191	0.0146681
687.269	0.0146118
687.347	0.0146899
687.425	0.0145393
687.503	0.0146529
687.581	0.0147657
687.660	0.0145850
687.738	0.0145917
687.816	0.0147030
687.894	0.0147885
687.972	0.0147156
688.050	0.0146357
688.128	0.0145793
688.206	0.0144604
688.285	0.0146347
688.363	0.0145935
688.441	0.0148325
688.519	0.0146959
688.597	0.0146165
688.675	0.0145971
688.753	0.0146973
688.831	0.0146816
688.910	0.0146785
688.988	0.0146545
689.066	0.0147269
689.144	0.0146674
689.222	0.0146664
689.300	0.0146963
689.378	0.0147450
689.456	0.0146740
689.535	0.0145638
689.613	0.0145885
689.691	0.0146233
689.769	0.0146855
689.847	0.0145986
689.925	0.0147549
690.003	0.0146896
690.081	0.0145845
690.160	0.0146326
690.238	0.0146632
690.316	0.0146509
690.394	0.0145766
690.472	0.0146455
690.550	0.0145480
690.628	0.0146017
690.706	0.0146652
690.785	0.0146248
690.863	0.0146106
690.941	0.0146925
691.019	0.0146771
691.097	0.0146606
691.175	0.0144956
691.253	0.0144685
691.331	0.0148042
691.410	0.0149239
691.488	0.0146721
691.566	0.0146754
691.644	0.0146495
691.722	0.0147012
691.800	0.0146074
691.878	0.0146878
691.956	0.0146142
692.035	0.0145841
692.113	0.0145329
692.191	0.0145774
692.269	0.0147231
692.347	0.0146695
692.425	0.0145645
692.503	0.0145200
692.581	0.0144487
692.660	0.0145731
692.738	0.0146072
692.816	0.0146587
692.894	0.0145627
692.972	0.0145963
693.050	0.0145389
693.128	0.0146636
693.206	0.0144900
693.285	0.0145940
693.363	0.0145433
693.441	0.0146008
693.519	0.0145881
693.597	0.0145177
693.675	0.0146494
693.753	0.0145226
693.831	0.0146528
693.910	0.0145988
693.988	0.0145174
694.066	0.0145799
694.144	0.0145338
694.222	0.0146226
694.300	0.0146291
694.378	0.0146153
694.456	0.0146637
694.535	0.0146413
694.613	0.0146908
694.691	0.0147861
694.769	0.0145517
694.847	0.0144905
694.925	0.0146653
695.003	0.0145901
695.081	0.0145750
695.160	0.0145066
695.238	0.0146690
695.316	0.0145634
695.394	0.0144709
695.472	0.0145727
695.550	0.0145563
695.628	0.0145921
695.706	0.0146976
695.785	0.0146331
695.863	0.0145718
695.941	0.0146973
696.019	0.0146024
696.097	0.0145521
696.175	0.0146581
696.253	0.0147614
696.331	0.0146455
696.410	0.0145827
696.488	0.0145229
696.566	0.0146021
696.644	0.0146809
696.722	0.0146491
696.800	0.0145757
696.878	0.0144736
696.956	0.0145233
697.035	0.0145390
697.113	0.0146033
697.191	0.0144839
697.269	0.0145802
697.347	0.0145099
697.425	0.0145710
697.503	0.0146090
697.581	0.0145802
697.660	0.0145778
697.738	0.0146178
697.816	0.0145450
697.894	0.0146688
697.972	0.0146770
698.050	0.0147370
698.128	0.0147598
698.206	0.0150301
698.285	0.0149286
698.363	0.0148562
698.441	0.0149747
698.519	0.0148497
698.597	0.0148952
698.675	0.0146759
698.753	0.0145141
698.831	0.0144700
698.910	0.0142902
698.988	0.0141734
699.066	0.0140009
699.144	0.0141048
699.222	0.0141214
699.300	0.0141797
699.378	0.0141183
699.456	0.0142899
699.535	0.0144925
699.613	0.0146074
699.691	0.0147865
699.769	0.0151847
699.847	0.0151602
699.925	0.0154061
700.003	0.0155874
700.081	0.0157033
700.160	0.0157496
700.238	0.0157593
700.316	0.0158215
700.394	0.0157246
700.472	0.0156291
700.550	0.0155232
700.628	0.0153275
700.706	0.0150527
700.785	0.0147685
700.863	0.0144935
700.941	0.0141060
701.019	0.0138863
701.097	0.0136343
701.175	0.0132038
701.253	0.0130672
701.331	0.0127317
701.410	0.0124527
701.488	0.0123663
701.566	0.0123157
701.644	0.0123075
701.722	0.0125584
701.800	0.0126843
701.878	0.0131796
701.956	0.0136096
702.035	0.0140985
702.113	0.0147478
702.191	0.0152374
702.269	0.0157687
702.347	0.0160638
702.425	0.0165936
702.503	0.0169881
702.581	0.0172225
702.660	0.0174802
702.738	0.0176591
702.816	0.0176479
702.894	0.0179882
702.972	0.0178857
703.050	0.0176023
703.128	0.0176286
703.206	0.0172702
703.285	0.0168077
703.363	0.0162753
703.441	0.0156702
703.519	0.0147450
703.597	0.0143174
703.675	0.0136839
703.753	0.0131637
703.831	0.0125860
703.910	0.0122945
703.988	0.0117615
704.066	0.0113774
704.144	0.0113303
704.222	0.0111154
704.300	0.0108730
704.378	0.0108700
704.456	0.0109875
704.535	0.0111968
704.613	0.0115126
704.691	0.0118846
704.769	0.0124974
704.847	0.0129237
704.925	0.0133037
705.003	0.0136849
705.081	0.0140617
705.160	0.0144884
705.238	0.0147595
705.316	0.0150674
705.394	0.0153265
705.472	0.0154481
705.550	0.0156869
705.628	0.0159694
705.706	0.0163151
705.785	0.0167761
705.863	0.0170251
705.941	0.0175532
706.019	0.0181855
706.097	0.0187140
706.175	0.0193201
706.253	0.0199104
706.331	0.0204615
706.410	0.0206033
706.488	0.0205652
706.566	0.0202319
706.644	0.0197060
706.722	0.0188659
706.800	0.0177494
706.878	0.0167115
706.956	0.0153688
707.035	0.0140073
707.113	0.0127442
707.191	0.0117843
707.269	0.0108441
707.347	0.0100150
707.425	0.00961250
707.503	0.00910217
707.581	0.00882751
707.660	0.00891243
707.738	0.00893646
707.816	0.00901428
707.894	0.00932930
707.972	0.00973877
708.050	0.00997459
708.128	0.0103359
708.206	0.0107768
708.285	0.0111662
708.363	0.0115937
708.441	0.0121459
708.519	0.0127219
708.597	0.0133437
708.675	0.0137908
708.753	0.0142595
708.831	0.0147932
708.910	0.0152496
708.988	0.0157790
709.066	0.0160485
709.144	0.0163019
709.222	0.0167285
709.300	0.0171815
709.378	0.0176352
709.456	0.0182933
709.535	0.0186604
709.613	0.0191867
709.691	0.0197852
709.769	0.0203952
709.847	0.0206561
709.925	0.0208174
710.003	0.0210628
710.081	0.0208674
710.160	0.0206697
710.238	0.0201388
710.316	0.0195643
710.394	0.0187890
710.472	0.0179548
710.550	0.0172387
710.628	0.0163309
710.706	0.0152795
710.785	0.0142807
710.863	0.0132334
710.941	0.0124899
711.019	0.0116908
711.097	0.0107851
711.175	0.0100814
711.253	0.00938354
711.331	0.00894615
711.410	0.00865936
711.488	0.00826012
711.566	0.00809341
711.644	0.00830246
711.722	0.00853012
711.800	0.00884773
711.878	0.00914589
711.956	0.00962296
712.035	0.0101633
712.113	0.0107848
712.191	0.0112953
712.269	0.0117452
712.347	0.0121783
712.425	0.0125588
712.503	0.0130757
712.581	0.0135729
712.660	0.0139581
712.738	0.0144823
712.816	0.0149165
712.894	0.0154349
712.972	0.0159897
713.050	0.0165967
713.128	0.0174498
713.206	0.0180392
713.285	0.0186267
713.363	0.0194301
713.441	0.0203497
713.519	0.0207161
713.597	0.0211652
713.675	0.0214879
713.753	0.0214769
713.831	0.0212526
713.910	0.0207784
713.988	0.0202457
714.066	0.0193740
714.144	0.0185754
714.222	0.0177682
714.300	0.0169012
714.378	0.0162508
714.456	0.0157199
714.535	0.0148460
714.613	0.0142265
714.691	0.0137009
714.769	0.0133620
714.847	0.0128555
714.925	0.0124277
715.003	0.0118848
715.081	0.0117416
715.160	0.0114516
715.238	0.0109008
715.316	0.0107967
715.394	0.0103909
715.472	0.0103020
715.550	0.0101347
715.628	0.0101066
715.706	0.0101543
715.785	0.0102792
715.863	0.0104871
715.941	0.0107603
716.019	0.0110180
716.097	0.0113704
716.175	0.0116125
716.253	0.0120982
716.331	0.0123188
716.410	0.0126368
716.488	0.0131261
716.566	0.0133135
716.644	0.0136185
716.722	0.0140113
716.800	0.0143924
716.878	0.0146559
716.956	0.0149279
717.035	0.0152978
717.113	0.0157477
717.191	0.0161687
717.269	0.0164731
717.347	0.0171194
717.425	0.0177093
717.503	0.0182796
717.581	0.0187022
717.660	0.0190881
717.738	0.0194386
717.816	0.0195319
717.894	0.0196905
717.972	0.0196751
718.050	0.0192695
718.128	0.0189851
718.206	0.0183627
718.285	0.0177554
718.363	0.0173433
718.441	0.0166446
718.519	0.0159606
718.597	0.0154723
718.675	0.0150224
718.753	0.0148550
718.831	0.0144692
718.910	0.0141058
718.988	0.0138624
719.066	0.0135615
719.144	0.0132163
719.222	0.0129913
719.300	0.0126465
719.378	0.0121146
719.456	0.0117720
719.535	0.0117338
719.613	0.0114383
719.691	0.0112624
719.769	0.0112213
719.847	0.0111797
719.925	0.0112901
720.003	0.0116019
720.081	0.0116686
720.160	0.0118977
720.238	0.0122617
720.316	0.0126664
720.394	0.0128831
720.472	0.0130911
720.550	0.0133313
720.628	0.0133325
720.706	0.0133462
720.785	0.0133946
720.863	0.0134163
720.941	0.0132804
721.019	0.0132751
721.097	0.0133734
721.175	0.0134859
721.253	0.0137979
721.331	0.0139830
721.410	0.0143820
721.488	0.0148647
721.566	0.0153594
721.644	0.0158820
721.722	0.0163754
721.800	0.0170377
721.878	0.0174722
721.956	0.0177903
722.035	0.0182624
722.113	0.0185880
722.191	0.0186211
722.269	0.0187112
722.347	0.0186401
722.425	0.0182834
722.503	0.0182134
722.581	0.0178101
722.660	0.0174138
722.738	0.0169324
722.816	0.0166743
722.894	0.0163098
722.972	0.0161147
723.050	0.0159068
723.128	0.0156873
723.206	0.0154893
723.285	0.0152218
723.363	0.0149445
723.441	0.0148787
723.519	0.0144131
723.597	0.0141656
723.675	0.0138652
723.753	0.0137765
723.831	0.0135545
723.910	0.0132787
723.988	0.0129488
724.066	0.0127316
724.144	0.0126182
724.222	0.0123166
724.300	0.0121363
724.378	0.0120647
724.456	0.0119700
724.535	0.0117030
724.613	0.0117756
724.691	0.0117655
724.769	0.0116199
724.847	0.0116469
724.925	0.0117406
725.003	0.0117966
725.081	0.0120374
725.160	0.0120409
725.238	0.0123042
725.316	0.0125769
725.394	0.0129321
725.472	0.0131635
725.550	0.0131942
725.628	0.0136352
725.706	0.0140794
725.785	0.0143040
725.863	0.0146684
725.941	0.0149313
726.019	0.0150787
726.097	0.0152480
726.175	0.0154225
726.253	0.0158562
726.331	0.0160728
726.410	0.0161274
726.488	0.0164835
726.566	0.0168712
726.644	0.0170774
726.722	0.0173108
726.800	0.0175749
726.878	0.0177198
726.956	0.0179278
727.035	0.0178410
727.113	0.0179795
727.191	0.0181010
727.269	0.0179485
727.347	0.0179289
727.425	0.0180191
727.503	0.0178508
727.581	0.0176083
727.660	0.0172446
727.738	0.0171792
727.816	0.0169805
727.894	0.0166284
727.972	0.0164520
728.050	0.0161120
728.128	0.0154980
728.206	0.0150913
728.285	0.0148790
728.363	0.0143344
728.441	0.0140359
728.519	0.0136295
728.597	0.0131488
728.675	0.0129888
728.753	0.0125230
728.831	0.0122196
728.910	0.0121358
728.988	0.0119401
729.066	0.0117491
729.144	0.0116540
729.222	0.0115761
729.300	0.0116108
729.378	0.0116943
729.456	0.0117421
729.535	0.0116010
729.613	0.0116462
729.691	0.0116094
729.769	0.0116881
729.847	0.0116689
729.925	0.0118259
730.003	0.0120721
730.081	0.0120841
730.160	0.0122654
730.238	0.0123141
730.316	0.0124007
730.394	0.0125513
730.472	0.0127779
730.550	0.0130194
730.628	0.0131480
730.706	0.0135078
730.785	0.0141003
730.863	0.0144234
730.941	0.0147531
731.019	0.0153416
731.097	0.0157372
731.175	0.0161366
731.253	0.0166551
731.331	0.0170195
731.410	0.0172140
731.488	0.0174358
731.566	0.0178822
731.644	0.0179074
731.722	0.0179105
731.800	0.0180248
731.878	0.0182011
731.956	0.0181895
732.035	0.0181285
732.113	0.0179804
732.191	0.0179700
732.269	0.0180180
732.347	0.0178164
732.425	0.0176096
732.503	0.0174419
732.581	0.0173104
732.660	0.0170920
732.738	0.0167175
732.816	0.0164611
732.894	0.0162797
732.972	0.0160372
733.050	0.0156474
733.128	0.0153608
733.206	0.0149994
733.285	0.0147403
733.363	0.0144049
733.441	0.0140657
733.519	0.0136879
733.597	0.0133151
733.675	0.0129855
733.753	0.0125709
733.831	0.0122176
733.910	0.0120505
733.988	0.0119022
734.066	0.0114131
734.144	0.0113870
734.222	0.0112938
734.300	0.0112017
734.378	0.0111033
734.456	0.0110352
734.535	0.0110447
734.613	0.0109016
734.691	0.0110546
734.769	0.0111255
734.847	0.0110853
734.925	0.0111998
735.003	0.0114139
735.081	0.0116115
735.160	0.0117699
735.238	0.0121683
735.316	0.0124654
735.394	0.0129392
735.472	0.0134657
735.550	0.0138974
735.628	0.0142870
735.706	0.0146672
735.785	0.0150183
735.863	0.0154610
735.941	0.0157341
736.019	0.0162144
736.097	0.0164182
736.175	0.0167538
736.253	0.0169398
736.331	0.0171752
736.410	0.0176119
736.488	0.0177348
736.566	0.0178024
736.644	0.0180109
736.722	0.0179923
736.800	0.0181533
736.878	0.0183001
736.956	0.0183051
737.035	0.0182231
737.113	0.0183143
737.191	0.0180204
737.269	0.0178418
737.347	0.0177120
737.425	0.0174908
737.503	0.0171746
737.581	0.0168262
737.660	0.0167465
737.738	0.0163545
737.816	0.0160270
737.894	0.0156911
737.972	0.0154430
738.050	0.0149684
738.128	0.0147906
738.206	0.0144823
738.285	0.0141831
738.363	0.0137117
738.441	0.0133656
738.519	0.0130230
738.597	0.0127668
738.675	0.0125095
738.753	0.0123460
738.831	0.0119366
738.910	0.0117718
738.988	0.0116707
739.066	0.0116692
739.144	0.0116560
739.222	0.0115706
739.300	0.0116370
739.378	0.0114542
739.456	0.0115269
739.535	0.0117408
739.613	0.0117856
739.691	0.0119585
739.769	0.0119760
739.847	0.0121366
739.925	0.0123672
740.003	0.0124785
740.081	0.0127129
740.160	0.0128186
740.238	0.0131604
740.316	0.0132818
740.394	0.0133884
740.472	0.0136855
740.550	0.0140810
740.628	0.0145378
740.706	0.0147552
740.785	0.0150185
740.863	0.0154444
740.941	0.0157684
741.019	0.0159570
741.097	0.0162404
741.175	0.0164474
741.253	0.0165663
741.331	0.0167947
741.410	0.0169537
741.488	0.0170282
741.566	0.0172619
741.644	0.0172036
741.722	0.0173405
741.800	0.0171220
741.878	0.0171416
741.956	0.0171295
742.035	0.0169270
742.113	0.0167973
742.191	0.0168195
742.269	0.0164774
742.347	0.0163534
742.425	0.0163094
742.503	0.0161739
742.581	0.0160054
742.660	0.0158321
742.738	0.0156818
742.816	0.0155862
742.894	0.0153723
742.972	0.0152747
743.050	0.0151402
743.128	0.0149345
743.206	0.0147803
743.285	0.0145379
743.363	0.0142830
743.441	0.0140285
743.519	0.0138417
743.597	0.0135598
743.675	0.0136308
743.753	0.0134357
743.831	0.0131291
743.910	0.0130422
743.988	0.0130106
744.066	0.0128424
744.144	0.0129298
744.222	0.0128196
744.300	0.0128686
744.378	0.0128851
744.456	0.0131264
744.535	0.0131853
744.613	0.0132162
744.691	0.0132973
744.769	0.0135038
744.847	0.0134994
744.925	0.0134303
745.003	0.0135233
745.081	0.0135073
745.160	0.0135307
745.238	0.0136543
745.316	0.0133363
745.394	0.0133698
745.472	0.0135613
745.550	0.0134869
745.628	0.0136469
745.706	0.0138094
745.785	0.0138582
745.863	0.0140713
745.941	0.0142965
746.019	0.0145732
746.097	0.0146947
746.175	0.0149187
746.253	0.0150561
746.331	0.0152177
746.410	0.0151943
746.488	0.0153531
746.566	0.0154335
746.644	0.0155846
746.722	0.0157225
746.800	0.0157745
746.878	0.0158072
746.956	0.0159966
747.035	0.0159640
747.113	0.0160017
747.191	0.0159807
747.269	0.0161302
747.347	0.0159798
747.425	0.0160484
747.503	0.0161593
747.581	0.0159920
747.660	0.0158527
747.738	0.0160393
747.816	0.0158708
747.894	0.0159315
747.972	0.0158453
748.050	0.0157297
748.128	0.0158859
748.206	0.0157909
748.285	0.0159238
748.363	0.0160529
748.441	0.0159230
748.519	0.0158107
748.597	0.0157996
748.675	0.0158633
748.753	0.0156906
748.831	0.0156185
748.910	0.0153928
748.988	0.0152115
749.066	0.0149472
749.144	0.0145901
749.222	0.0143436
749.300	0.0141456
749.378	0.0136444
749.456	0.0134518
749.535	0.0132313
749.613	0.0129180
749.691	0.0127097
749.769	0.0124922
749.847	0.0124129
749.925	0.0124471
750.003	0.0123808
750.081	0.0123000
750.160	0.0123654
750.238	0.0124984
750.316	0.0127834
750.394	0.0127709
750.472	0.0128231
750.550	0.0129535
750.628	0.0130476
750.706	0.0132255
750.785	0.0133907
750.863	0.0135412
750.941	0.0136652
751.019	0.0137730
751.097	0.0139513
751.175	0.0139073
751.253	0.0139159
751.331	0.0140678
751.410	0.0141270
751.488	0.0143404
751.566	0.0143240
751.644	0.0145764
751.722	0.0149053
751.800	0.0150224
751.878	0.0152547
751.956	0.0153999
752.035	0.0154913
752.113	0.0155334
752.191	0.0156171
752.269	0.0157027
752.347	0.0159695
752.425	0.0160155
752.503	0.0161161
752.581	0.0163361
752.660	0.0163403
752.738	0.0164045
752.816	0.0165792
752.894	0.0165115
752.972	0.0164631
753.050	0.0164657
753.128	0.0164677
753.206	0.0164581
753.285	0.0164236
753.363	0.0161992
753.441	0.0161228
753.519	0.0161293
753.597	0.0160938
753.675	0.0160144
753.753	0.0159615
753.831	0.0155400
753.910	0.0154577
753.988	0.0152314
754.066	0.0147799
754.144	0.0146632
754.222	0.0143360
754.300	0.0141679
754.378	0.0139468
754.456	0.0139872
754.535	0.0136475
754.613	0.0136889
754.691	0.0135651
754.769	0.0135567
754.847	0.0133808
754.925	0.0132878
755.003	0.0131264
755.081	0.0131538
755.160	0.0129814
755.238	0.0132755
755.316	0.0131533
755.394	0.0130986
755.472	0.0133474
755.550	0.0132188
755.628	0.0133199
755.706	0.0134483
755.785	0.0136317
755.863	0.0137582
755.941	0.0139456
756.019	0.0141302
756.097	0.0142863
756.175	0.0143745
756.253	0.0143000
756.331	0.0143169
756.410	0.0146328
756.488	0.0144757
756.566	0.0145225
756.644	0.0144629
756.722	0.0143500
756.800	0.0144469
756.878	0.0145310
756.956	0.0143539
757.035	0.0146164
757.113	0.0147084
757.191	0.0145966
757.269	0.0146964
757.347	0.0147312
757.425	0.0149274
757.503	0.0148862
757.581	0.0149275
757.660	0.0150168
757.738	0.0152145
757.816	0.0152330
757.894	0.0151987
757.972	0.0152613
758.050	0.0153667
758.128	0.0152161
758.206	0.0153413
758.285	0.0153181
758.363	0.0153317
758.441	0.0154421
758.519	0.0153307
758.597	0.0152770
758.675	0.0153671
758.753	0.0152060
758.831	0.0151809
758.910	0.0150176
758.988	0.0151157
759.066	0.0148006
759.144	0.0149356
759.222	0.0148563
759.300	0.0148409
759.378	0.0147457
759.456	0.0146297
759.535	0.0146160
759.613	0.0145922
759.691	0.0144201
759.769	0.0144311
759.847	0.0143927
759.925	0.0143591
760.003	0.0143373
760.081	0.0142332
760.160	0.0143109
760.238	0.0141719
760.316	0.0142611
760.394	0.0144164
760.472	0.0142441
760.550	0.0143005
760.628	0.0144054
760.706	0.0143307
760.785	0.0145470
760.863	0.0147042
760.941	0.0145957
761.019	0.0146607
761.097	0.0146083
761.175	0.0147296
761.253	0.0148087
761.331	0.0148269
761.410	0.0148085
761.488	0.0147295
761.566	0.0144574
761.644	0.0146117
761.722	0.0145535
761.800	0.0143868
761.878	0.0142950
761.956	0.0142355
762.035	0.0142486
762.113	0.0143102
762.191	0.0142780
762.269	0.0140932
762.347	0.0142493
762.425	0.0141717
762.503	0.0140721
762.581	0.0141824
762.660	0.0142439
762.738	0.0142158
762.816	0.0143499
762.894	0.0142890
762.972	0.0145348
763.050	0.0144283
763.128	0.0145608
763.206	0.0146053
763.285	0.0146484
763.363	0.0144747
763.441	0.0146220
763.519	0.0147379
763.597	0.0147409
763.675	0.0147164
763.753	0.0148693
763.831	0.0149255
763.910	0.0149172
763.988	0.0150157
764.066	0.0151290
764.144	0.0150134
764.222	0.0150725
764.300	0.0153018
764.378	0.0150552
764.456	0.0149799
764.535	0.0150497
764.613	0.0151003
764.691	0.0151669
764.769	0.0150763
764.847	0.0148695
764.925	0.0147283
765.003	0.0148146
765.081	0.0148402
765.160	0.0148213
765.238	0.0146939
765.316	0.0147488
765.394	0.0148127
765.472	0.0147616
765.550	0.0147193
765.628	0.0146997
765.706	0.0147557
765.785	0.0147765
765.863	0.0149354
765.941	0.0146895
766.019	0.0146989
766.097	0.0146891
766.175	0.0145776
766.253	0.0143893
766.331	0.0145814
766.410	0.0143171
766.488	0.0142019
766.566	0.0141988
766.644	0.0140820
766.722	0.0140183
766.800	0.0139271
766.878	0.0138390
766.956	0.0137022
767.035	0.0137347
767.113	0.0136864
767.191	0.0138775
767.269	0.0137479
767.347	0.0137785
767.425	0.0137755
767.503	0.0138757
767.581	0.0139603
767.660	0.0140882
767.738	0.0141115
767.816	0.0141663
767.894	0.0142455
767.972	0.0143235
768.050	0.0144962
768.128	0.0145429
768.206	0.0145512
768.285	0.0148666
768.363	0.0149432
768.441	0.0151653
768.519	0.0152236
768.597	0.0154311
768.675	0.0156483
768.753	0.0155905
768.831	0.0157057
768.910	0.0155579
768.988	0.0157522
769.066	0.0157581
769.144	0.0155589
769.222	0.0153689
769.300	0.0154447
769.378	0.0153391
769.456	0.0152677
769.535	0.0152599
769.613	0.0150179
769.691	0.0150048
769.769	0.0148664
769.847	0.0148839
769.925	0.0148466
770.003	0.0147829
770.081	0.0147801
770.160	0.0147924
770.238	0.0147849
770.316	0.0148174
770.394	0.0146519
770.472	0.0147489
770.550	0.0147520
770.628	0.0146649
770.706	0.0145645
770.785	0.0146733
770.863	0.0146634
770.941	0.0144936
771.019	0.0144247
771.097	0.0144062
771.175	0.0143929
771.253	0.0143961
771.331	0.0142438
771.410	0.0141673
771.488	0.0142622
771.566	0.0141012
771.644	0.0140965
771.722	0.0143610
771.800	0.0142418
771.878	0.0142351
771.956	0.0142522
772.035	0.0142757
772.113	0.0143205
772.191	0.0143339
772.269	0.0144480
772.347	0.0145443
772.425	0.0144075
772.503	0.0144788
772.581	0.0144318
772.660	0.0144020
772.738	0.0144028
772.816	0.0145686
772.894	0.0146075
772.972	0.0146027
773.050	0.0145880
773.128	0.0146100
773.206	0.0145963
773.285	0.0147050
773.363	0.0148551
773.441	0.0149382
773.519	0.0149770
773.597	0.0150391
773.675	0.0150456
773.753	0.0149784
773.831	0.0149872
773.910	0.0150725
773.988	0.0151215
774.066	0.0149828
774.144	0.0148859
774.222	0.0149417
774.300	0.0148798
774.378	0.0148342
774.456	0.0148525
774.535	0.0149300
774.613	0.0148021
774.691	0.0147433
774.769	0.0146677
774.847	0.0146099
774.925	0.0144901
775.003	0.0145436
775.081	0.0145235
775.160	0.0146127
775.238	0.0145857
775.316	0.0145222
775.394	0.0147131
775.472	0.0145400
775.550	0.0145577
775.628	0.0143909
775.706	0.0143957
775.785	0.0144891
775.863	0.0143738
775.941	0.0145255
776.019	0.0145678
776.097	0.0145871
776.175	0.0146373
776.253	0.0146325
776.331	0.0148572
776.410	0.0149612
776.488	0.0150294
776.566	0.0149208
776.644	0.0150490
776.722	0.0150287
776.800	0.0151262
776.878	0.0150518
776.956	0.0151388
777.035	0.0150976
777.113	0.0149833
777.191	0.0150410
777.269	0.0148373
777.347	0.0147993
777.425	0.0148036
777.503	0.0147685
777.581	0.0146120
777.660	0.0146108
777.738	0.0145794
777.816	0.0145198
777.894	0.0145201
777.972	0.0144418
778.050	0.0145047
778.128	0.0145119
778.206	0.0144674
778.285	0.0144338
778.363	0.0142333
778.441	0.0143522
778.519	0.0142848
778.597	0.0143204
778.675	0.0143308
778.753	0.0140912
778.831	0.0139534
778.910	0.0141099
778.988	0.0142876
779.066	0.0141651
779.144	0.0142336
779.222	0.0141435
779.300	0.0141283
779.378	0.0142519
779.456	0.0141793
779.535	0.0142012
779.613	0.0144531
779.691	0.0143478
779.769	0.0144718
779.847	0.0145443
779.925	0.0145029
780.003	0.0145779
780.081	0.0146380
780.160	0.0146954
780.238	0.0146752
780.316	0.0147652
780.394	0.0149068
780.472	0.0148671
780.550	0.0148631
780.628	0.0150617
780.706	0.0150033
780.785	0.0149720
780.863	0.0150040
780.941	0.0150057
781.019	0.0150960
781.097	0.0150079
781.175	0.0149665
781.253	0.0149932
781.331	0.0151195
781.410	0.0152193
781.488	0.0149412
781.566	0.0151549
781.644	0.0151492
781.722	0.0151652
781.800	0.0150602
781.878	0.0151382
781.956	0.0149801
782.035	0.0149261
782.113	0.0150500
782.191	0.0147147
782.269	0.0148069
782.347	0.0148632
782.425	0.0146458
782.503	0.0146696
782.581	0.0146241
782.660	0.0145662
782.738	0.0145320
782.816	0.0143766
782.894	0.0142911
782.972	0.0144057
783.050	0.0143306
783.128	0.0142036
783.206	0.0141777
783.285	0.0141766
783.363	0.0141112
783.441	0.0141019
783.519	0.0142654
783.597	0.0141633
783.675	0.0143330
783.753	0.0143322
783.831	0.0144436
783.910	0.0144665
783.988	0.0145853
784.066	0.0145974
784.144	0.0145786
784.222	0.0148178
784.300	0.0148717
784.378	0.0147620
784.456	0.0149188
784.535	0.0149149
784.613	0.0150043
784.691	0.0150337
784.769	0.0148743
784.847	0.0147923
784.925	0.0148396
785.003	0.0145428
785.081	0.0147250
785.160	0.0146008
785.238	0.0146136
785.316	0.0145428
785.394	0.0145455
785.472	0.0145364
785.550	0.0145714
785.628	0.0146720
785.706	0.0146630
785.785	0.0147212
785.863	0.0147898
785.941	0.0146753
786.019	0.0147287
786.097	0.0147969
786.175	0.0147180
786.253	0.0145752
786.331	0.0145922
786.410	0.0146184
786.488	0.0145508
786.566	0.0144930
786.644	0.0145116
786.722	0.0143922
786.800	0.0143094
786.878	0.0142416
786.956	0.0142530
787.035	0.0143192
787.113	0.0142790
787.191	0.0143098
787.269	0.0142564
787.347	0.0143353
787.425	0.0144041
787.503	0.0144049
787.581	0.0142783
787.660	0.0143743
787.738	0.0145074
787.816	0.0146499
787.894	0.0146793
787.972	0.0145205
788.050	0.0147048
788.128	0.0147182
788.206	0.0147717
788.285	0.0147666
788.363	0.0147041
788.441	0.0146830
788.519	0.0147853
788.597	0.0148560
788.675	0.0149567
788.753	0.0148203
788.831	0.0148635
788.910	0.0149728
788.988	0.0149464
789.066	0.0149029
789.144	0.0149560
789.222	0.0151028
789.300	0.0150298
789.378	0.0152928
789.456	0.0150544
789.535	0.0149317
789.613	0.0150102
789.691	0.0148968
789.769	0.0149299
789.847	0.0148924
789.925	0.0148076
790.003	0.0146613
790.081	0.0146681
790.160	0.0147927
790.238	0.0145585
790.316	0.0145551
790.394	0.0144927
790.472	0.0143864
790.550	0.0144418
790.628	0.0142473
790.706	0.0142341
790.785	0.0143681
790.863	0.0141729
790.941	0.0140833
791.019	0.0142082
791.097	0.0141867
791.175	0.0141000
791.253	0.0142189
791.331	0.0142438
791.410	0.0142746
791.488	0.0141909
791.566	0.0143201
791.644	0.0142332
791.722	0.0144062
791.800	0.0144234
791.878	0.0145688
791.956	0.0145384
792.035	0.0145261
792.113	0.0147247
792.191	0.0146375
792.269	0.0145055
792.347	0.0146773
792.425	0.0145091
792.503	0.0145757
792.581	0.0145316
792.660	0.0145866
792.738	0.0147709
792.816	0.0146927
792.894	0.0146076
792.972	0.0146953
793.050	0.0147557
793.128	0.0148952
793.206	0.0147906
793.285	0.0148527
793.363	0.0149313
793.441	0.0149747
793.519	0.0147987
793.597	0.0149625
793.675	0.0149538
793.753	0.0150186
793.831	0.0150627
793.910	0.0149574
793.988	0.0150477
794.066	0.0150550
794.144	0.0149774
794.222	0.0151027
794.300	0.0148452
794.378	0.0148441
794.456	0.0148461
794.535	0.0146124
794.613	0.0146664
794.691	0.0145937
794.769	0.0146231
794.847	0.0145734
794.925	0.0143171
795.003	0.0144125
795.081	0.0143697
795.160	0.0143656
795.238	0.0143699
795.316	0.0143683
795.394	0.0143058
795.472	0.0142678
795.550	0.0142313
795.628	0.0143718
795.706	0.0141521
795.785	0.0143805
795.863	0.0144314
795.941	0.0143748
796.019	0.0143868
796.097	0.0146019
796.175	0.0145613
796.253	0.0144904
796.331	0.0145160
796.410	0.0146690
796.488	0.0145308
796.566	0.0145557
796.644	0.0145623
796.722	0.0147997
796.800	0.0147743
796.878	0.0146336
796.956	0.0147518
797.035	0.0146707
797.113	0.0145422
797.191	0.0147134
797.269	0.0146558
797.347	0.0146243
797.425	0.0146808
797.503	0.0145521
797.581	0.0145590
797.660	0.0145145
797.738	0.0144798
797.816	0.0145297
797.894	0.0145831
797.972	0.0144925
798.050	0.0145193
798.128	0.0146135
798.206	0.0146797
798.285	0.0145718
798.363	0.0146994
798.441	0.0148444
798.519	0.0149295
798.597	0.0149356
798.675	0.0148523
798.753	0.0146972
798.831	0.0149213
798.910	0.0148978
798.988	0.0147774
799.066	0.0146399
799.144	0.0145564
799.222	0.0147475
799.300	0.0145993
799.378	0.0144269
799.456	0.0143858
799.535	0.0145937
799.613	0.0145136
799.691	0.0143089
799.769	0.0142529
799.847	0.0141764
799.925	0.0141297
800.003	0.0142214
800.081	0.0142157
800.160	0.0142320
800.238	0.0143526
800.316	0.0143091
800.394	0.0142885
800.472	0.0144534
800.550	0.0143797
800.628	0.0145142
800.706	0.0146298
800.785	0.0148023
800.863	0.0145401
800.941	0.0147820
801.019	0.0147630
801.097	0.0148949
801.175	0.0149371
801.253	0.0150200
801.331	0.0148860
801.410	0.0149657
801.488	0.0150009
801.566	0.0151397
801.644	0.0150659
801.722	0.0149606
801.800	0.0151201
801.878	0.0151621
801.956	0.0153107
802.035	0.0152541
802.113	0.0152327
802.191	0.0152285
802.269	0.0153320
802.347	0.0151717
802.425	0.0151064
802.503	0.0150823
802.581	0.0148595
802.660	0.0148079
802.738	0.0148012
802.816	0.0147066
802.894	0.0145490
802.972	0.0143493
803.050	0.0143179
803.128	0.0141076
803.206	0.0138360
803.285	0.0139105
803.363	0.0139809
803.441	0.0136876
803.519	0.0135891
803.597	0.0137544
803.675	0.0138123
803.753	0.0138729
803.831	0.0137167
803.910	0.0138946
803.988	0.0138016
804.066	0.0138097
804.144	0.0140389
804.222	0.0141781
804.300	0.0142422
804.378	0.0142386
804.456	0.0145329
804.535	0.0144975
804.613	0.0144994
804.691	0.0145377
804.769	0.0146191
804.847	0.0147002
804.925	0.0146439
805.003	0.0148530
805.081	0.0147674
805.160	0.0147308
805.238	0.0148795
805.316	0.0149020
805.394	0.0150394
805.472	0.0149910
805.550	0.0150288
805.628	0.0151705
805.706	0.0154153
805.785	0.0154740
805.863	0.0155981
805.941	0.0156050
806.019	0.0156226
806.097	0.0155096
806.175	0.0155557
806.253	0.0154596
806.331	0.0155106
806.410	0.0153248
806.488	0.0151453
806.566	0.0151244
806.644	0.0149718
806.722	0.0147870
806.800	0.0146387
806.878	0.0144183
806.956	0.0144364
807.035	0.0141095
807.113	0.0140894
807.191	0.0139280
807.269	0.0139555
807.347	0.0138330
807.425	0.0136190
807.503	0.0135706
807.581	0.0136801
807.660	0.0137742
807.738	0.0137371
807.816	0.0136518
807.894	0.0137973
807.972	0.0138626
808.050	0.0139272
808.128	0.0138924
808.206	0.0139527
808.285	0.0140890
808.363	0.0141083
808.441	0.0142207
808.519	0.0144001
808.597	0.0144359
808.675	0.0144145
808.753	0.0146668
808.831	0.0146378
808.910	0.0148717
808.988	0.0149415
809.066	0.0150324
809.144	0.0150395
809.222	0.0150276
809.300	0.0150171
809.378	0.0151340
809.456	0.0151013
809.535	0.0151389
809.613	0.0152800
809.691	0.0154410
809.769	0.0154057
809.847	0.0155155
809.925	0.0154247
810.003	0.0154163
810.081	0.0154996
810.160	0.0153810
810.238	0.0153876
810.316	0.0153023
810.394	0.0152006
810.472	0.0151595
810.550	0.0149796
810.628	0.0148655
810.706	0.0149177
810.785	0.0146474
810.863	0.0146913
810.941	0.0144702
811.019	0.0143050
811.097	0.0142783
811.175	0.0141586
811.253	0.0140234
811.331	0.0141267
811.410	0.0139095
811.488	0.0139324
811.566	0.0140074
811.644	0.0139948
811.722	0.0138436
811.800	0.0140869
811.878	0.0139024
811.956	0.0139385
812.035	0.0139924
812.113	0.0140250
812.191	0.0141037
812.269	0.0140967
812.347	0.0141805
812.425	0.0142224
812.503	0.0141512
812.581	0.0143671
812.660	0.0144913
812.738	0.0144090
812.816	0.0146488
812.894	0.0146554
812.972	0.0146052
813.050	0.0146220
813.128	0.0146976
813.206	0.0146720
813.285	0.0146740
813.363	0.0147889
813.441	0.0147878
813.519	0.0148203
813.597	0.0148863
813.675	0.0148676
813.753	0.0150355
813.831	0.0150755
813.910	0.0151260
813.988	0.0150330
814.066	0.0149451
814.144	0.0150512
814.222	0.0150644
814.300	0.0151430
814.378	0.0150826
814.456	0.0150485
814.535	0.0150694
814.613	0.0151146
814.691	0.0151105
814.769	0.0149753
814.847	0.0150000
814.925	0.0149438
815.003	0.0146552
815.081	0.0146116
815.160	0.0145622
815.238	0.0146172
815.316	0.0146909
815.394	0.0146517
815.472	0.0143788
815.550	0.0144858
815.628	0.0144061
815.706	0.0143749
815.785	0.0143627
815.863	0.0143758
815.941	0.0144881
816.019	0.0144484
816.097	0.0143375
816.175	0.0143233
816.253	0.0144436
816.331	0.0144261
816.410	0.0145000
816.488	0.0145309
816.566	0.0145085
816.644	0.0145206
816.722	0.0144723
816.800	0.0146002
816.878	0.0144707
816.956	0.0145167
817.035	0.0144877
817.113	0.0144720
817.191	0.0144767
817.269	0.0145322
817.347	0.0144827
817.425	0.0144229
817.503	0.0144544
817.581	0.0144935
817.660	0.0146253
817.738	0.0146236
817.816	0.0145848
817.894	0.0146552
817.972	0.0145229
818.050	0.0146139
818.128	0.0147289
818.206	0.0145065
818.285	0.0145636
818.363	0.0146700
818.441	0.0145982
818.519	0.0143967
818.597	0.0143967
818.675	0.0144939
818.753	0.0144442
818.831	0.0143303
818.910	0.0142807
818.988	0.0144147
819.066	0.0143046
819.144	0.0143777
819.222	0.0142527
819.300	0.0144981
819.378	0.0144440
819.456	0.0145684
819.535	0.0146616
819.613	0.0145879
819.691	0.0146569
819.769	0.0146590
819.847	0.0147429
819.925	0.0148260
820.003	0.0148985
820.081	0.0148892
820.160	0.0149240
820.238	0.0149082
820.316	0.0148069
820.394	0.0149251
820.472	0.0149039
820.550	0.0148563
820.628	0.0149066
820.706	0.0147165
820.785	0.0147035
820.863	0.0149413
820.941	0.0147314
821.019	0.0148206
821.097	0.0147124
821.175	0.0145325
821.253	0.0146657
821.331	0.0146265
821.410	0.0146609
821.488	0.0144570
821.566	0.0145605
821.644	0.0147865
821.722	0.0146373
821.800	0.0145706
821.878	0.0145422
821.956	0.0145707
822.035	0.0144817
822.113	0.0147051
822.191	0.0145662
822.269	0.0143546
822.347	0.0144756
822.425	0.0144781
822.503	0.0143106
822.581	0.0142782
822.660	0.0142780
822.738	0.0143900
822.816	0.0144258
822.894	0.0144141
822.972	0.0142574
823.050	0.0142307
823.128	0.0142530
823.206	0.0142587
823.285	0.0145776
823.363	0.0144707
823.441	0.0142355
823.519	0.0144663
823.597	0.0144749
823.675	0.0144089
823.753	0.0145925
823.831	0.0146127
823.910	0.0145797
823.988	0.0146785
824.066	0.0146698
824.144	0.0147118
824.222	0.0147668
824.300	0.0147858
824.378	0.0148342
824.456	0.0148873
824.535	0.0149664
824.613	0.0150211
824.691	0.0149614
824.769	0.0150061
824.847	0.0150442
824.925	0.0150793
825.003	0.0150619
825.081	0.0152196
825.160	0.0151153
825.238	0.0153348
825.316	0.0151578
825.394	0.0151089
825.472	0.0153214
825.550	0.0152873
825.628	0.0149598
825.706	0.0149339
825.785	0.0150401
825.863	0.0149218
825.941	0.0148792
826.019	0.0149039
826.097	0.0145858
826.175	0.0145187
826.253	0.0144848
826.331	0.0143183
826.410	0.0141130
826.488	0.0140829
826.566	0.0141154
826.644	0.0138830
826.722	0.0138788
826.800	0.0139225
826.878	0.0137956
826.956	0.0138568
827.035	0.0138009
827.113	0.0138487
827.191	0.0139230
827.269	0.0138908
827.347	0.0139378
827.425	0.0141669
827.503	0.0142989
827.581	0.0142995
827.660	0.0143993
827.738	0.0143743
827.816	0.0144214
827.894	0.0146741
827.972	0.0145286
828.050	0.0145712
828.128	0.0150110
828.206	0.0148576
828.285	0.0147099
828.363	0.0149098
828.441	0.0148389
828.519	0.0149785
828.597	0.0149335
828.675	0.0148548
828.753	0.0149037
828.831	0.0149461
828.910	0.0150962
828.988	0.0149643
829.066	0.0147521
829.144	0.0149875
829.222	0.0149315
829.300	0.0149113
829.378	0.0148890
829.456	0.0147353
829.535	0.0147338
829.613	0.0147839
829.691	0.0145225
829.769	0.0145605
829.847	0.0145625
829.925	0.0145098
830.003	0.0144069
830.081	0.0145870
830.160	0.0145807
830.238	0.0146313
830.316	0.0147241
830.394	0.0145340
830.472	0.0145020
830.550	0.0144102
830.628	0.0145290
830.706	0.0146922
830.785	0.0147016
830.863	0.0146395
830.941	0.0146143
831.019	0.0146423
831.097	0.0146019
831.175	0.0145703
831.253	0.0146725
831.331	0.0146722
831.410	0.0147903
831.488	0.0147928
831.566	0.0147449
831.644	0.0145926
831.722	0.0146426
831.800	0.0145642
831.878	0.0144716
831.956	0.0143201
832.035	0.0142838
832.113	0.0142712
832.191	0.0142654
832.269	0.0142177
832.347	0.0142565
832.425	0.0143432
832.503	0.0143291
832.581	0.0142649
832.660	0.0143073
832.738	0.0143203
832.816	0.0144328
832.894	0.0145527
832.972	0.0146802
833.050	0.0143902
833.128	0.0144571
833.206	0.0145788
833.285	0.0146512
833.363	0.0148528
833.441	0.0147504
833.519	0.0147969
833.597	0.0148740
833.675	0.0148602
833.753	0.0147697
833.831	0.0148317
833.910	0.0149347
833.988	0.0148474
834.066	0.0148711
834.144	0.0149635
834.222	0.0147885
834.300	0.0149113
834.378	0.0149020
834.456	0.0148982
834.535	0.0148908
834.613	0.0149632
834.691	0.0147998
834.769	0.0147775
834.847	0.0149670
834.925	0.0149692
835.003	0.0149458
835.081	0.0148231
835.160	0.0148830
835.238	0.0149731
835.316	0.0150044
835.394	0.0149328
835.472	0.0150449
835.550	0.0150196
835.628	0.0149940
835.706	0.0148767
835.785	0.0149027
835.863	0.0147678
835.941	0.0147076
836.019	0.0148684
836.097	0.0145490
836.175	0.0145827
836.253	0.0145610
836.331	0.0143234
836.410	0.0144097
836.488	0.0143143
836.566	0.0141863
836.644	0.0140994
836.722	0.0140792
836.800	0.0140868
836.878	0.0140444
836.956	0.0139503
837.035	0.0140035
837.113	0.0138433
837.191	0.0137921
837.269	0.0140099
837.347	0.0138821
837.425	0.0139317
837.503	0.0138942
837.581	0.0138919
837.660	0.0139771
837.738	0.0140732
837.816	0.0141850
837.894	0.0143750
837.972	0.0143361
838.050	0.0145365
838.128	0.0146775
838.206	0.0147768
838.285	0.0149653
838.363	0.0150077
838.441	0.0151247
838.519	0.0151826
838.597	0.0153348
838.675	0.0152375
838.753	0.0152441
838.831	0.0152856
838.910	0.0153427
838.988	0.0153257
839.066	0.0152488
839.144	0.0152011
839.222	0.0151939
839.300	0.0151876
839.378	0.0152329
839.456	0.0150616
839.535	0.0150653
839.613	0.0150566
839.691	0.0149961
839.769	0.0149862
839.847	0.0149028
839.925	0.0148609
840.003	0.0147866
840.081	0.0148969
840.160	0.0148325
840.238	0.0147558
840.316	0.0147340
840.394	0.0145987
840.472	0.0147339
840.550	0.0148766
840.628	0.0146004
840.706	0.0145310
840.785	0.0146078
840.863	0.0146361
840.941	0.0144764
841.019	0.0143793
841.097	0.0143613
841.175	0.0142649
841.253	0.0143565
841.331	0.0142938
841.410	0.0142960
841.488	0.0141349
841.566	0.0143332
841.644	0.0142317
841.722	0.0141450
841.800	0.0142337
841.878	0.0140998
841.956	0.0141686
842.035	0.0141524
842.113	0.0141225
842.191	0.0142883
842.269	0.0141995
842.347	0.0142696
842.425	0.0142377
842.503	0.0143552
842.581	0.0143317
842.660	0.0144637
842.738	0.0144286
842.816	0.0143854
842.894	0.0143132
842.972	0.0143673
843.050	0.0144798
843.128	0.0143683
843.206	0.0146380
843.285	0.0146542
843.363	0.0147221
843.441	0.0148972
843.519	0.0148841
843.597	0.0147733
843.675	0.0148247
843.753	0.0149658
843.831	0.0148272
843.910	0.0148968
843.988	0.0150054
844.066	0.0149141
844.144	0.0148846
844.222	0.0148052
844.300	0.0148975
844.378	0.0149563
844.456	0.0149080
844.535	0.0148498
844.613	0.0149624
844.691	0.0149118
844.769	0.0148802
844.847	0.0149648
844.925	0.0149918
845.003	0.0149925
845.081	0.0148726
845.160	0.0148718
845.238	0.0149122
845.316	0.0147932
845.394	0.0148593
845.472	0.0147840
845.550	0.0146464
845.628	0.0145379
845.706	0.0146284
845.785	0.0147583
845.863	0.0146476
845.941	0.0145931
846.019	0.0145385
846.097	0.0145006
846.175	0.0145271
846.253	0.0145813
846.331	0.0143903
846.410	0.0145313
846.488	0.0144965
846.566	0.0143125
846.644	0.0143554
846.722	0.0142982
846.800	0.0144328
846.878	0.0142999
846.956	0.0143018
847.035	0.0144490
847.113	0.0143243
847.191	0.0143910
847.269	0.0144908
847.347	0.0144152
847.425	0.0145502
847.503	0.0146522
847.581	0.0145766
847.660	0.0146017
847.738	0.0147861
847.816	0.0147475
847.894	0.0147986
847.972	0.0149178
848.050	0.0148049
848.128	0.0147424
848.206	0.0148699
848.285	0.0147246
848.363	0.0147671
848.441	0.0147436
848.519	0.0146772
848.597	0.0147191
848.675	0.0145514
848.753	0.0146214
848.831	0.0146558
848.910	0.0146076
848.988	0.0146451
849.066	0.0147989
849.144	0.0147115
849.222	0.0147096
849.300	0.0148013
849.378	0.0147755
849.456	0.0148328
849.535	0.0147786
849.613	0.0147747
849.691	0.0147816
849.769	0.0148445
849.847	0.0147914
849.925	0.0149190
850.003	0.0149297
850.081	0.0147787
850.160	0.0146061
850.238	0.0145624
850.316	0.0146848
850.394	0.0146634
850.472	0.0146700
850.550	0.0147578
850.628	0.0146300
850.706	0.0145910
850.785	0.0146157
850.863	0.0146234
850.941	0.0146195
851.019	0.0145646
851.097	0.0146808
851.175	0.0146971
851.253	0.0147006
851.331	0.0146026
851.410	0.0145029
851.488	0.0147160
851.566	0.0145503
851.644	0.0146323
851.722	0.0146706
851.800	0.0147083
851.878	0.0146060
851.956	0.0145242
852.035	0.0144989
852.113	0.0145894
852.191	0.0145493
852.269	0.0145791
852.347	0.0145181
852.425	0.0143743
852.503	0.0145387
852.581	0.0145617
852.660	0.0146277
852.738	0.0146964
852.816	0.0145457
852.894	0.0146510
852.972	0.0147508
853.050	0.0146040
853.128	0.0146602
853.206	0.0146545
853.285	0.0145557
853.363	0.0146845
853.441	0.0146901
853.519	0.0145951
853.597	0.0145232
853.675	0.0146426
853.753	0.0147235
853.831	0.0146539
853.910	0.0145632
853.988	0.0146554
854.066	0.0146796
854.144	0.0146463
854.222	0.0147279
854.300	0.0148074
854.378	0.0147623
854.456	0.0148392
854.535	0.0147174
854.613	0.0147368
854.691	0.0145779
854.769	0.0146272
854.847	0.0146024
854.925	0.0145715
855.003	0.0147147
855.081	0.0147771
855.160	0.0147468
855.238	0.0149316
855.316	0.0147653
855.394	0.0147989
855.472	0.0147759
855.550	0.0147825
855.628	0.0146861
855.706	0.0146999
855.785	0.0146584
855.863	0.0146146
855.941	0.0146977
856.019	0.0145229
856.097	0.0145036
856.175	0.0144756
856.253	0.0144567
856.331	0.0145931
856.410	0.0145131
856.488	0.0144994
856.566	0.0145341
856.644	0.0144270
856.722	0.0143844
856.800	0.0145935
856.878	0.0144096
856.956	0.0144653
857.035	0.0145000
857.113	0.0146764
857.191	0.0146922
857.269	0.0146740
857.347	0.0146105
857.425	0.0147729
857.503	0.0147113
857.581	0.0145591
857.660	0.0146963
857.738	0.0147074
857.816	0.0146967
857.894	0.0146943
857.972	0.0147066
858.050	0.0146754
858.128	0.0146163
858.206	0.0146700
858.285	0.0145879
858.363	0.0145766
858.441	0.0146910
858.519	0.0145911
858.597	0.0146407
858.675	0.0146212
858.753	0.0147068
858.831	0.0148153
858.910	0.0146247
858.988	0.0145791
859.066	0.0145906
859.144	0.0145194
859.222	0.0145639
859.300	0.0145507
859.378	0.0145001
859.456	0.0145472
859.535	0.0145116
859.613	0.0144505
859.691	0.0144572
859.769	0.0144511
859.847	0.0145518
859.925	0.0144966
860.003	0.0146195
860.081	0.0143758
860.160	0.0146444
860.238	0.0145500
860.316	0.0147655
860.394	0.0148042
860.472	0.0147564
860.550	0.0148503
860.628	0.0147636
860.706	0.0146964
860.785	0.0147512
860.863	0.0148132
860.941	0.0148654
861.019	0.0147198
861.097	0.0146450
861.175	0.0146564
861.253	0.0146100
861.331	0.0148322
861.410	0.0146188
861.488	0.0147626
861.566	0.0146620
861.644	0.0145950
861.722	0.0145997
861.800	0.0146909
861.878	0.0146973
861.956	0.0147106
862.035	0.0146604
862.113	0.0146866
862.191	0.0147842
862.269	0.0147387
862.347	0.0146757
862.425	0.0147645
862.503	0.0146385
862.581	0.0149113
862.660	0.0147692
862.738	0.0146746
862.816	0.0145883
862.894	0.0146880
862.972	0.0146690
863.050	0.0145841
863.128	0.0145330
863.206	0.0144786
863.285	0.0144823
863.363	0.0145869
863.441	0.0144398
863.519	0.0143246
863.597	0.0144696
863.675	0.0145184
863.753	0.0143837
863.831	0.0143063
863.910	0.0143063
863.988	0.0143421
864.066	0.0146249
864.144	0.0144805
864.222	0.0144271
864.300	0.0144019
864.378	0.0143177
864.456	0.0144848
864.535	0.0144947
864.613	0.0144265
864.691	0.0144862
864.769	0.0143657
864.847	0.0145353
864.925	0.0144833
865.003	0.0142935
865.081	0.0144076
865.160	0.0145269
865.238	0.0145548
865.316	0.0145823
865.394	0.0144733
865.472	0.0145419
865.550	0.0145880
865.628	0.0147085
865.706	0.0146967
865.785	0.0147480
865.863	0.0147250
865.941	0.0149356
866.019	0.0148136
866.097	0.0148803
866.175	0.0150143
866.253	0.0149981
866.331	0.0149002
866.410	0.0148352
866.488	0.0148342
866.566	0.0149207
866.644	0.0148100
866.722	0.0147578
866.800	0.0147986
866.878	0.0148721
866.956	0.0146765
867.035	0.0146896
867.113	0.0147810
867.191	0.0145559
867.269	0.0145741
867.347	0.0145869
867.425	0.0145386
867.503	0.0144424
867.581	0.0145230
867.660	0.0144283
867.738	0.0146173
867.816	0.0145290
867.894	0.0143166
867.972	0.0144920
868.050	0.0144641
868.128	0.0145226
868.206	0.0144692
868.285	0.0145351
868.363	0.0144544
868.441	0.0146047
868.519	0.0146490
868.597	0.0146177
868.675	0.0144749
868.753	0.0146059
868.831	0.0145250
868.910	0.0147144
868.988	0.0146444
869.066	0.0145982
869.144	0.0146019
869.222	0.0147485
869.300	0.0146744
869.378	0.0148104
869.456	0.0147871
869.535	0.0147736
869.613	0.0148653
869.691	0.0147652
869.769	0.0148397
869.847	0.0147842
869.925	0.0148313
870.003	0.0148315
870.081	0.0148175
870.160	0.0148199
870.238	0.0147857
870.316	0.0147156
870.394	0.0148008
870.472	0.0148873
870.550	0.0146989
870.628	0.0145872
870.706	0.0147027
870.785	0.0146864
870.863	0.0144660
870.941	0.0146074
871.019	0.0146004
871.097	0.0145157
871.175	0.0144736
871.253	0.0145522
871.331	0.0144225
871.410	0.0144426
871.488	0.0144906
871.566	0.0143336
871.644	0.0143403
871.722	0.0143604
871.800	0.0143110
871.878	0.0143820
871.956	0.0143324
872.035	0.0143548
872.113	0.0143735
872.191	0.0143385
872.269	0.0143818
872.347	0.0145334
872.425	0.0144792
872.503	0.0143304
872.581	0.0143907
872.660	0.0144591
872.738	0.0144060
872.816	0.0143507
872.894	0.0146177
872.972	0.0146057
873.050	0.0146496
873.128	0.0145747
873.206	0.0146902
873.285	0.0146272
873.363	0.0146563
873.441	0.0147379
873.519	0.0148517
873.597	0.0148320
873.675	0.0148750
873.753	0.0148790
873.831	0.0148439
873.910	0.0148885
873.988	0.0147765
874.066	0.0148948
874.144	0.0149570
874.222	0.0149192
874.300	0.0147743
874.378	0.0148599
874.456	0.0148534
874.535	0.0147850
874.613	0.0147828
874.691	0.0148335
874.769	0.0145968
874.847	0.0146053
874.925	0.0148008
875.003	0.0146897
875.081	0.0146306
875.160	0.0147605
875.238	0.0146210
875.316	0.0145583
875.394	0.0146175
875.472	0.0146711
875.550	0.0146413
875.628	0.0144504
875.706	0.0147002
875.785	0.0145767
875.863	0.0146133
875.941	0.0145864
876.019	0.0144754
876.097	0.0143735
876.175	0.0144492
876.253	0.0145342
876.331	0.0144903
876.410	0.0145423
876.488	0.0143749
876.566	0.0145267
876.644	0.0145447
876.722	0.0145625
876.800	0.0144221
876.878	0.0145345
876.956	0.0145988
877.035	0.0144426
877.113	0.0145012
877.191	0.0146613
877.269	0.0145464
877.347	0.0146817
877.425	0.0146420
877.503	0.0145921
877.581	0.0144954
877.660	0.0144962
877.738	0.0144874
877.816	0.0146099
877.894	0.0146348
877.972	0.0145188
878.050	0.0145840
878.128	0.0144852
878.206	0.0145576
878.285	0.0146525
878.363	0.0147707
878.441	0.0146788
878.519	0.0147301
878.597	0.0146379
878.675	0.0148270
878.753	0.0147604
878.831	0.0148383
878.910	0.0149622
878.988	0.0148112
879.066	0.0148558
879.144	0.0148633
879.222	0.0148830
879.300	0.0149388
879.378	0.0148425
879.456	0.0147285
879.535	0.0148114
879.613	0.0148689
879.691	0.0149119
879.769	0.0148127
879.847	0.0148209
879.925	0.0149093
880.003	0.0147438
880.081	0.0146839
880.160	0.0147401
880.238	0.0147044
880.316	0.0146508
880.394	0.0146794
880.472	0.0147590
880.550	0.0146927
880.628	0.0147095
880.706	0.0146297
880.785	0.0145887
880.863	0.0146764
880.941	0.0147204
881.019	0.0147962
881.097	0.0146497
881.175	0.0146972
881.253	0.0146731
881.331	0.0147683
881.410	0.0146699
881.488	0.0145552
881.566	0.0146546
881.644	0.0145055
881.722	0.0147145
881.800	0.0147192
881.878	0.0146938
881.956	0.0147143
882.035	0.0146721
882.113	0.0145395
882.191	0.0145751
882.269	0.0144933
882.347	0.0146078
882.425	0.0145913
882.503	0.0144444
882.581	0.0145110
882.660	0.0144244
882.738	0.0144138
882.816	0.0143916
882.894	0.0144211
882.972	0.0143066
883.050	0.0143224
883.128	0.0143512
883.206	0.0144466
883.285	0.0143678
883.363	0.0142393
883.441	0.0143101
883.519	0.0144059
883.597	0.0144208
883.675	0.0143383
883.753	0.0144497
883.831	0.0144926
883.910	0.0145795
883.988	0.0145177
884.066	0.0146021
884.144	0.0147722
884.222	0.0147485
884.300	0.0146476
884.378	0.0147127
884.456	0.0148098
884.535	0.0147438
884.613	0.0148168
884.691	0.0148801
884.769	0.0149593
884.847	0.0149795
884.925	0.0149063
885.003	0.0147948
885.081	0.0149508
885.160	0.0148540
885.238	0.0149492
885.316	0.0149725
885.394	0.0148696
885.472	0.0148833
885.550	0.0148411
885.628	0.0148156
885.706	0.0148088
885.785	0.0147289
885.863	0.0147106
885.941	0.0147672
886.019	0.0146494
886.097	0.0146496
886.175	0.0146796
886.253	0.0147231
886.331	0.0146357
886.410	0.0146429
886.488	0.0145294
886.566	0.0145706
886.644	0.0147064
886.722	0.0146560
886.800	0.0147581
886.878	0.0147273
886.956	0.0147796
887.035	0.0147455
887.113	0.0147041
887.191	0.0145964
887.269	0.0146955
887.347	0.0146021
887.425	0.0145971
887.503	0.0145788
887.581	0.0145123
887.660	0.0144160
887.738	0.0145371
887.816	0.0144780
887.894	0.0143614
887.972	0.0143800
888.050	0.0143650
888.128	0.0143534
888.206	0.0143328
888.285	0.0143751
888.363	0.0143555
888.441	0.0143052
888.519	0.0142257
888.597	0.0143480
888.675	0.0143690
888.753	0.0143594
888.831	0.0141971
888.910	0.0142924
888.988	0.0145161
889.066	0.0144334
889.144	0.0144552
889.222	0.0145409
889.300	0.0144958
889.378	0.0146873
889.456	0.0145317
889.535	0.0147179
889.613	0.0147844
889.691	0.0147454
889.769	0.0147171
889.847	0.0147185
889.925	0.0146184
890.003	0.0146995
890.081	0.0147659
890.160	0.0146962
890.238	0.0147423
890.316	0.0148505
890.394	0.0148331
890.472	0.0147706
890.550	0.0148803
890.628	0.0148463
890.706	0.0148451
890.785	0.0147915
890.863	0.0147851
890.941	0.0148312
891.019	0.0147965
891.097	0.0147577
891.175	0.0149200
891.253	0.0148479
891.331	0.0148550
891.410	0.0147600
891.488	0.0147549
891.566	0.0148109
891.644	0.0148332
891.722	0.0146491
891.800	0.0147652
891.878	0.0147378
891.956	0.0147294
892.035	0.0147192
892.113	0.0147877
892.191	0.0145731
892.269	0.0146181
892.347	0.0146324
892.425	0.0146046
892.503	0.0145639
892.581	0.0146971
892.660	0.0145433
892.738	0.0145866
892.816	0.0145119
892.894	0.0143924
892.972	0.0144476
893.050	0.0145631
893.128	0.0145334
893.206	0.0145463
893.285	0.0144490
893.363	0.0144272
893.441	0.0145981
893.519	0.0145574
893.597	0.0146978
893.675	0.0146201
893.753	0.0145461
893.831	0.0146639
893.910	0.0146056
893.988	0.0146333
894.066	0.0146806
894.144	0.0146355
894.222	0.0146014
894.300	0.0145630
894.378	0.0145300
894.456	0.0145235
894.535	0.0145908
894.613	0.0144780
894.691	0.0145476
894.769	0.0145162
894.847	0.0144666
894.925	0.0144727
895.003	0.0143789
895.081	0.0144038
895.160	0.0144994
895.238	0.0143643
895.316	0.0145183
895.394	0.0146413
895.472	0.0146966
895.550	0.0147579
895.628	0.0148068
895.706	0.0149577
895.785	0.0149464
895.863	0.0150917
895.941	0.0150809
896.019	0.0150019
896.097	0.0151604
896.175	0.0149892
896.253	0.0152592
896.331	0.0152072
896.410	0.0150460
896.488	0.0151385
896.566	0.0151926
896.644	0.0151499
896.722	0.0151146
896.800	0.0149664
896.878	0.0149715
896.956	0.0148400
897.035	0.0148663
897.113	0.0148875
897.191	0.0146158
897.269	0.0145662
897.347	0.0142632
897.425	0.0143923
897.503	0.0144605
897.581	0.0144322
897.660	0.0144786
897.738	0.0143980
897.816	0.0143762
897.894	0.0143574
897.972	0.0143864
898.050	0.0143969
898.128	0.0144347
898.206	0.0143823
898.285	0.0143130
898.363	0.0144456
898.441	0.0143115
898.519	0.0142801
898.597	0.0143282
898.675	0.0142988
898.753	0.0143914
898.831	0.0143633
898.910	0.0145113
898.988	0.0146529
899.066	0.0148047
899.144	0.0149792
899.222	0.0151131
899.300	0.0152364
899.378	0.0152866
899.456	0.0151763
899.535	0.0152596
899.613	0.0152962
899.691	0.0150009
899.769	0.0149616
899.847	0.0151520
899.925	0.0150101
900.003	0.0148096
900.081	0.0147534
900.160	0.0146751
900.238	0.0145165
900.316	0.0145571
900.394	0.0144642
900.472	0.0145338
900.550	0.0144437
900.628	0.0144005
900.706	0.0145350
900.785	0.0142028
900.863	0.0142734
900.941	0.0143554
901.019	0.0144190
901.097	0.0143831
901.175	0.0143710
901.253	0.0144907
901.331	0.0146334
901.410	0.0146207
901.488	0.0144605
901.566	0.0144711
901.644	0.0144930
901.722	0.0144704
901.800	0.0143755
901.878	0.0143835
901.956	0.0144211
902.035	0.0143682
902.113	0.0143304
902.191	0.0144022
902.269	0.0143918
902.347	0.0143477
902.425	0.0142393
902.503	0.0143785
902.581	0.0144518
902.660	0.0145903
902.738	0.0146848
902.816	0.0148650
902.894	0.0148566
902.972	0.0149353
903.050	0.0149899
903.128	0.0152257
903.206	0.0151462
903.285	0.0152298
903.363	0.0152200
903.441	0.0152758
903.519	0.0153788
903.597	0.0152187
903.675	0.0153622
903.753	0.0152735
903.831	0.0152972
903.910	0.0153013
903.988	0.0152182
904.066	0.0152776
904.144	0.0150845
904.222	0.0149564
904.300	0.0149426
904.378	0.0148907
904.456	0.0147016
904.535	0.0148282
904.613	0.0147568
904.691	0.0146461
904.769	0.0146157
904.847	0.0145963
904.925	0.0145745
905.003	0.0146791
905.081	0.0145072
905.160	0.0145187
905.238	0.0145981
905.316	0.0144980
905.394	0.0144771
905.472	0.0143991
905.550	0.0143584
905.628	0.0142656
905.706	0.0141296
905.785	0.0139832
905.863	0.0139074
905.941	0.0139207
906.019	0.0139177
906.097	0.0140797
906.175	0.0140308
906.253	0.0141485
906.331	0.0143234
906.410	0.0143506
906.488	0.0145447
906.566	0.0148054
906.644	0.0146921
906.722	0.0149501
906.800	0.0150224
906.878	0.0149200
906.956	0.0150420
907.035	0.0150506
907.113	0.0150221
907.191	0.0149877
907.269	0.0148979
907.347	0.0150349
907.425	0.0148895
907.503	0.0148351
907.581	0.0147594
907.660	0.0148348
907.738	0.0148198
907.816	0.0146371
907.894	0.0147018
907.972	0.0147929
908.050	0.0146449
908.128	0.0145673
908.206	0.0145538
908.285	0.0146702
908.363	0.0146294
908.441	0.0146174
908.519	0.0145564
908.597	0.0146199
908.675	0.0144965
908.753	0.0147832
908.831	0.0148416
908.910	0.0146803
908.988	0.0148560
909.066	0.0148772
909.144	0.0150253
909.222	0.0150185
909.300	0.0151274
909.378	0.0151556
909.456	0.0151618
909.535	0.0150864
909.613	0.0150584
909.691	0.0150999
909.769	0.0150022
909.847	0.0147280
909.925	0.0145272
910.003	0.0145099
910.081	0.0143840
910.160	0.0142096
910.238	0.0143649
910.316	0.0142924
910.394	0.0142149
910.472	0.0140977
910.550	0.0142297
910.628	0.0141859
910.706	0.0142810
910.785	0.0143054
910.863	0.0143152
910.941	0.0143329
911.019	0.0144566
911.097	0.0143404
911.175	0.0144553
911.253	0.0145419
911.331	0.0143781
911.410	0.0144683
911.488	0.0145858
911.566	0.0146590
911.644	0.0147149
911.722	0.0147435
911.800	0.0146199
911.878	0.0146697
911.956	0.0148605
912.035	0.0146731
912.113	0.0147523
912.191	0.0147096
912.269	0.0146834
912.347	0.0146269
912.425	0.0147104
912.503	0.0146808
912.581	0.0145007
912.660	0.0146593
912.738	0.0145274
912.816	0.0146819
912.894	0.0146800
912.972	0.0144661
913.050	0.0146712
913.128	0.0146581
913.206	0.0147202
913.285	0.0149100
913.363	0.0149003
913.441	0.0148357
913.519	0.0148674
913.597	0.0148103
913.675	0.0149371
913.753	0.0149513
913.831	0.0148850
913.910	0.0149316
913.988	0.0149590
914.066	0.0148567
914.144	0.0147363
914.222	0.0147035
914.300	0.0147882
914.378	0.0148132
914.456	0.0146681
914.535	0.0146811
914.613	0.0146243
914.691	0.0145592
914.769	0.0145897
914.847	0.0146754
914.925	0.0145464
915.003	0.0146543
915.081	0.0146207
915.160	0.0147248
915.238	0.0148750
915.316	0.0146393
915.394	0.0144335
915.472	0.0145091
915.550	0.0145830
915.628	0.0144932
915.706	0.0146021
915.785	0.0144861
915.863	0.0144151
915.941	0.0143484
916.019	0.0144558
916.097	0.0144558
916.175	0.0143040
916.253	0.0144106
916.331	0.0144043
916.410	0.0143715
916.488	0.0143222
916.566	0.0144789
916.644	0.0143530
916.722	0.0144392
916.800	0.0146024
916.878	0.0145724
916.956	0.0146033
917.035	0.0146777
917.113	0.0146103
917.191	0.0145848
917.269	0.0147974
917.347	0.0146866
917.425	0.0147662
917.503	0.0150077
917.581	0.0149101
917.660	0.0149409
917.738	0.0149124
917.816	0.0149693
917.894	0.0148978
917.972	0.0149544
918.050	0.0150267
918.128	0.0151009
918.206	0.0149007
918.285	0.0150043
918.363	0.0152097
918.441	0.0150027
918.519	0.0149671
918.597	0.0154040
918.675	0.0153705
918.753	0.0151639
918.831	0.0150763
918.910	0.0151863
918.988	0.0151345
919.066	0.0150224
919.144	0.0150128
919.222	0.0150056
919.300	0.0150024
919.378	0.0148574
919.456	0.0147688
919.535	0.0148378
919.613	0.0147063
919.691	0.0147150
919.769	0.0146140
919.847	0.0144553
919.925	0.0146219
920.003	0.0145638
920.081	0.0144621
920.160	0.0143826
920.238	0.0143250
920.316	0.0143246
920.394	0.0143476
920.472	0.0144136
920.550	0.0142613
920.628	0.0143083
920.706	0.0143711
920.785	0.0143029
920.863	0.0143869
920.941	0.0143378
921.019	0.0143907
921.097	0.0144082
921.175	0.0143137
921.253	0.0143419
921.331	0.0144018
921.410	0.0142672
921.488	0.0143745
921.566	0.0143857
921.644	0.0143813
921.722	0.0145094
921.800	0.0144462
921.878	0.0143887
921.956	0.0145129
922.035	0.0146462
922.113	0.0145895
922.191	0.0145242
922.269	0.0144872
922.347	0.0145667
922.425	0.0146860
922.503	0.0146896
922.581	0.0146506
922.660	0.0146975
922.738	0.0146875
922.816	0.0146795
922.894	0.0148313
922.972	0.0148286
923.050	0.0148917
923.128	0.0148524
923.206	0.0150260
923.285	0.0150597
923.363	0.0150568
923.441	0.0152106
923.519	0.0153197
923.597	0.0153006
923.675	0.0153542
923.753	0.0152847
923.831	0.0153262
923.910	0.0150688
923.988	0.0150233
924.066	0.0151933
924.144	0.0151342
924.222	0.0149998
924.300	0.0149448
924.378	0.0149232
924.456	0.0148650
924.535	0.0149227
924.613	0.0148118
924.691	0.0145962
924.769	0.0145005
924.847	0.0145885
924.925	0.0143752
925.003	0.0142165
925.081	0.0143897
925.160	0.0142336
925.238	0.0141273
925.316	0.0140791
925.394	0.0140283
925.472	0.0139789
925.550	0.0140072
925.628	0.0138834
925.706	0.0139384
925.785	0.0139382
925.863	0.0139579
925.941	0.0139526
926.019	0.0140060
926.097	0.0139899
926.175	0.0139432
926.253	0.0142999
926.331	0.0144186
926.410	0.0142624
926.488	0.0143999
926.566	0.0145130
926.644	0.0146380
926.722	0.0148042
926.800	0.0147251
926.878	0.0148386
926.956	0.0149091
927.035	0.0147820
927.113	0.0149799
927.191	0.0151115
927.269	0.0149228
927.347	0.0149727
927.425	0.0148479
927.503	0.0148515
927.581	0.0150034
927.660	0.0151685
927.738	0.0150013
927.816	0.0149374
927.894	0.0148168
927.972	0.0149129
928.050	0.0149478
928.128	0.0149447
928.206	0.0148010
928.285	0.0146732
928.363	0.0148615
928.441	0.0148131
928.519	0.0148238
928.597	0.0147503
928.675	0.0146500
928.753	0.0146791
928.831	0.0145948
928.910	0.0144719
928.988	0.0146065
929.066	0.0145818
929.144	0.0144186
929.222	0.0143114
929.300	0.0144109
929.378	0.0143806
929.456	0.0142759
929.535	0.0141777
929.613	0.0142709
929.691	0.0142295
929.769	0.0143259
929.847	0.0142406
929.925	0.0142852
930.003	0.0143069
930.081	0.0143398
930.160	0.0142783
930.238	0.0144072
930.316	0.0142329
930.394	0.0143441
930.472	0.0143288
930.550	0.0144556
930.628	0.0144255
930.706	0.0143017
930.785	0.0143777
930.863	0.0144064
930.941	0.0143237
931.019	0.0142106
931.097	0.0143200
931.175	0.0143879
931.253	0.0146226
931.331	0.0145767
931.410	0.0144469
931.488	0.0145103
931.566	0.0144453
931.644	0.0147691
931.722	0.0147711
931.800	0.0146660
931.878	0.0148041
931.956	0.0148843
932.035	0.0149024
932.113	0.0149656
932.191	0.0148473
932.269	0.0148658
932.347	0.0149207
932.425	0.0150535
932.503	0.0150138
932.581	0.0149453
932.660	0.0148031
932.738	0.0148650
932.816	0.0148267
932.894	0.0147834
932.972	0.0148029
933.050	0.0149288
933.128	0.0147161
933.206	0.0146500
933.285	0.0146380
933.363	0.0146484
933.441	0.0147100
933.519	0.0147112
933.597	0.0145735
933.675	0.0145244
933.753	0.0143961
933.831	0.0144714
933.910	0.0145244
933.988	0.0144093
934.066	0.0143449
934.144	0.0145274
934.222	0.0143852
934.300	0.0143462
934.378	0.0143742
934.456	0.0143801
934.535	0.0145329
934.613	0.0144379
934.691	0.0144173
934.769	0.0145508
934.847	0.0145863
934.925	0.0146219
935.003	0.0145894
935.081	0.0146623
935.160	0.0147578
935.238	0.0145724
935.316	0.0145535
935.394	0.0144543
935.472	0.0145766
935.550	0.0146177
935.628	0.0147586
935.706	0.0147186
935.785	0.0147395
935.863	0.0146396
935.941	0.0147079
936.019	0.0147760
936.097	0.0146843
936.175	0.0147440
936.253	0.0145963
936.331	0.0146278
936.410	0.0146194
936.488	0.0145736
936.566	0.0145678
936.644	0.0146044
936.722	0.0145755
936.800	0.0144940
936.878	0.0143867
936.956	0.0144109
937.035	0.0144912
937.113	0.0143430
937.191	0.0145805
937.269	0.0145227
937.347	0.0146864
937.425	0.0145992
937.503	0.0144862
937.581	0.0146169
937.660	0.0146600
937.738	0.0146556
937.816	0.0146369
937.894	0.0147338
937.972	0.0147224
938.050	0.0148289
938.128	0.0147415
938.206	0.0146088
938.285	0.0146847
938.363	0.0146539
938.441	0.0147424
938.519	0.0147906
938.597	0.0147083
938.675	0.0146760
938.753	0.0148606
938.831	0.0148914
938.910	0.0148270
938.988	0.0146946
939.066	0.0148283
939.144	0.0149533
939.222	0.0148544
939.300	0.0149203
939.378	0.0148204
939.456	0.0148416
939.535	0.0148174
939.613	0.0148512
939.691	0.0149361
939.769	0.0148948
939.847	0.0148032
939.925	0.0148009
940.003	0.0148129
940.081	0.0149084
940.160	0.0149310
940.238	0.0148259
940.316	0.0147176
940.394	0.0146995
940.472	0.0145111
940.550	0.0145543
940.628	0.0146210
940.706	0.0145309
940.785	0.0145159
940.863	0.0145125
940.941	0.0143992
941.019	0.0144136
941.097	0.0144765
941.175	0.0144790
941.253	0.0143626
941.331	0.0144689
941.410	0.0143481
941.488	0.0143604
941.566	0.0144129
941.644	0.0145708
941.722	0.0144152
941.800	0.0145121
941.878	0.0145521
941.956	0.0145850
942.035	0.0145748
942.113	0.0146121
942.191	0.0146190
942.269	0.0146822
942.347	0.0147182
942.425	0.0146071
942.503	0.0146863
942.581	0.0147061
942.660	0.0147443
942.738	0.0148396
942.816	0.0146395
942.894	0.0149676
942.972	0.0149157
943.050	0.0148871
943.128	0.0148801
943.206	0.0148252
943.285	0.0148478
943.363	0.0149103
943.441	0.0150611
943.519	0.0148756
943.597	0.0148915
943.675	0.0149553
943.753	0.0148275
943.831	0.0146615
943.910	0.0146600
943.988	0.0148524
944.066	0.0146665
944.144	0.0146069
944.222	0.0146548
944.300	0.0145538
944.378	0.0144836
944.456	0.0144235
944.535	0.0143732
944.613	0.0144144
944.691	0.0144790
944.769	0.0143707
944.847	0.0143965
944.925	0.0144175
945.003	0.0144763
945.081	0.0144862
945.160	0.0144756
945.238	0.0145284
945.316	0.0146340
945.394	0.0145859
945.472	0.0145268
945.550	0.0145223
945.628	0.0145935
945.706	0.0146979
945.785	0.0145190
945.863	0.0145830
945.941	0.0144583
946.019	0.0145956
946.097	0.0145847
946.175	0.0145371
946.253	0.0145314
946.331	0.0145415
946.410	0.0145943
946.488	0.0146817
946.566	0.0145919
946.644	0.0145763
946.722	0.0146651
946.800	0.0145396
946.878	0.0145848
946.956	0.0144861
947.035	0.0145355
947.113	0.0143896
947.191	0.0145580
947.269	0.0144641
947.347	0.0144069
947.425	0.0145279
947.503	0.0144717
947.581	0.0143568
947.660	0.0143575
947.738	0.0144144
947.816	0.0145773
947.894	0.0144997
947.972	0.0145100
948.050	0.0145106
948.128	0.0145827
948.206	0.0145672
948.285	0.0146770
948.363	0.0147166
948.441	0.0145396
948.519	0.0146835
948.597	0.0147226
948.675	0.0147920
948.753	0.0148441
948.831	0.0148200
948.910	0.0148105
948.988	0.0149116
949.066	0.0147929
949.144	0.0146350
949.222	0.0147860
949.300	0.0146094
949.378	0.0147106
949.456	0.0146586
949.535	0.0146296
949.613	0.0147072
949.691	0.0146370
949.769	0.0147171
949.847	0.0145237
949.925	0.0146349
950.003	0.0144980
950.081	0.0147779
950.160	0.0147940
950.238	0.0145454
950.316	0.0145644
950.394	0.0145519
950.472	0.0146008
950.550	0.0146177
950.628	0.0146500
950.706	0.0145464
950.785	0.0145554
950.863	0.0146170
950.941	0.0146416
951.019	0.0145297
951.097	0.0146449
951.175	0.0146723
951.253	0.0147220
951.331	0.0146668
951.410	0.0147118
951.488	0.0146764
951.566	0.0147456
951.644	0.0147581
951.722	0.0147766
951.800	0.0147120
951.878	0.0145896
951.956	0.0145553
952.035	0.0145869
952.113	0.0145070
952.191	0.0145187
952.269	0.0144509
952.347	0.0142893
952.425	0.0144285
952.503	0.0143645
952.581	0.0141741
952.660	0.0141728
952.738	0.0141206
952.816	0.0140812
952.894	0.0141409
952.972	0.0140015
953.050	0.0142169
953.128	0.0141698
953.206	0.0141879
953.285	0.0142300
953.363	0.0142612
953.441	0.0142769
953.519	0.0143705
953.597	0.0145186
953.675	0.0144508
953.753	0.0144749
953.831	0.0145269
953.910	0.0144280
953.988	0.0146709
954.066	0.0144762
954.144	0.0145614
954.222	0.0144837
954.300	0.0147035
954.378	0.0147391
954.456	0.0147588
954.535	0.0147738
954.613	0.0148337
954.691	0.0149213
954.769	0.0148759
954.847	0.0148026
954.925	0.0147726
955.003	0.0149417
955.081	0.0150121
955.160	0.0150901
955.238	0.0150420
955.316	0.0151542
955.394	0.0150433
955.472	0.0150630
955.550	0.0150384
955.628	0.0149899
955.706	0.0150703
955.785	0.0151000
955.863	0.0148873
955.941	0.0148906
956.019	0.0147942
956.097	0.0148284
956.175	0.0147559
956.253	0.0145657
956.331	0.0145309
956.410	0.0144225
956.488	0.0144724
956.566	0.0144054
956.644	0.0143755
956.722	0.0143096
956.800	0.0141597
956.878	0.0142186
956.956	0.0141528
957.035	0.0141285
957.113	0.0140847
957.191	0.0141720
957.269	0.0142689
957.347	0.0140950
957.425	0.0142085
957.503	0.0141566
957.581	0.0143013
957.660	0.0143552
957.738	0.0143140
957.816	0.0143060
957.894	0.0144334
957.972	0.0144585
958.050	0.0144291
958.128	0.0145088
958.206	0.0145809
958.285	0.0145696
958.363	0.0145721
958.441	0.0145280
958.519	0.0147594
958.597	0.0147880
958.675	0.0147542
958.753	0.0148708
958.831	0.0148216
958.910	0.0149385
958.988	0.0148994
959.066	0.0150269
959.144	0.0149000
959.222	0.0148773
959.300	0.0148799
959.378	0.0149120
959.456	0.0149688
959.535	0.0147940
959.613	0.0148714
959.691	0.0148884
959.769	0.0150841
959.847	0.0149538
959.925	0.0148965
960.003	0.0151196
960.081	0.0149024
960.160	0.0150499
960.238	0.0148729
960.316	0.0147102
960.394	0.0148182
960.472	0.0148524
960.550	0.0148614
960.628	0.0147752
960.706	0.0147449
960.785	0.0147319
960.863	0.0145725
960.941	0.0144980
961.019	0.0145835
961.097	0.0145363
961.175	0.0145031
961.253	0.0144717
961.331	0.0145354
961.410	0.0145085
961.488	0.0147105
961.566	0.0144775
961.644	0.0147684
961.722	0.0146594
961.800	0.0146717
961.878	0.0147094
961.956	0.0145850
962.035	0.0145626
962.113	0.0146836
962.191	0.0146161
962.269	0.0145914
962.347	0.0146062
962.425	0.0146469
962.503	0.0144926
962.581	0.0143708
962.660	0.0144687
962.738	0.0143934
962.816	0.0144231
962.894	0.0143397
962.972	0.0144263
963.050	0.0143551
963.128	0.0143353
963.206	0.0143787
963.285	0.0144130
963.363	0.0143996
963.441	0.0144666
963.519	0.0146075
963.597	0.0145872
963.675	0.0146076
963.753	0.0148125
963.831	0.0148814
963.910	0.0148325
963.988	0.0147905
964.066	0.0147401
964.144	0.0148288
964.222	0.0148060
964.300	0.0148058
964.378	0.0148907
964.456	0.0148757
964.535	0.0148241
964.613	0.0147724
964.691	0.0148572
964.769	0.0147652
964.847	0.0148737
964.925	0.0147103
965.003	0.0146420
965.081	0.0146925
965.160	0.0146127
965.238	0.0145494
965.316	0.0146249
965.394	0.0144949
965.472	0.0144345
965.550	0.0146159
965.628	0.0146458
965.706	0.0145151
965.785	0.0145300
965.863	0.0145858
965.941	0.0148251
966.019	0.0146633
966.097	0.0146682
966.175	0.0147520
966.253	0.0147519
966.331	0.0148001
966.410	0.0146678
966.488	0.0147460
966.566	0.0147359
966.644	0.0147421
966.722	0.0149046
966.800	0.0147191
966.878	0.0148106
966.956	0.0146825
967.035	0.0147058
967.113	0.0147610
967.191	0.0146138
967.269	0.0145917
967.347	0.0145691
967.425	0.0147952
967.503	0.0146601
967.581	0.0146460
967.660	0.0146502
967.738	0.0145747
967.816	0.0146613
967.894	0.0146447
967.972	0.0145467
968.050	0.0145910
968.128	0.0145493
968.206	0.0144077
968.285	0.0146193
968.363	0.0145143
968.441	0.0144632
968.519	0.0145055
968.597	0.0144093
968.675	0.0143439
968.753	0.0144255
968.831	0.0144214
968.910	0.0143602
968.988	0.0144581
969.066	0.0143767
969.144	0.0142673
969.222	0.0143414
969.300	0.0144086
969.378	0.0145976
969.456	0.0143853
969.535	0.0144148
969.613	0.0146281
969.691	0.0147485
969.769	0.0146278
969.847	0.0147141
969.925	0.0145444
970.003	0.0146423
970.081	0.0147469
970.160	0.0147659
970.238	0.0148932
970.316	0.0148894
970.394	0.0149133
970.472	0.0149275
970.550	0.0148999
970.628	0.0148493
970.706	0.0151314
970.785	0.0150386
970.863	0.0150066
970.941	0.0150271
971.019	0.0150287
971.097	0.0150858
971.175	0.0149041
971.253	0.0149507
971.331	0.0149800
971.410	0.0148019
971.488	0.0148544
971.566	0.0147113
971.644	0.0147988
971.722	0.0148363
971.800	0.0147221
971.878	0.0145851
971.956	0.0148025
972.035	0.0147644
972.113	0.0147983
972.191	0.0147854
972.269	0.0147638
972.347	0.0146568
972.425	0.0147720
972.503	0.0146429
972.581	0.0148325
972.660	0.0147449
972.738	0.0146458
972.816	0.0146841
972.894	0.0144981
972.972	0.0146198
973.050	0.0143472
973.128	0.0145501
973.206	0.0144787
973.285	0.0144080
973.363	0.0143768
973.441	0.0143664
973.519	0.0143041
973.597	0.0141894
973.675	0.0143735
973.753	0.0143056
973.831	0.0144583
973.910	0.0143725
973.988	0.0143489
974.066	0.0144177
974.144	0.0144803
974.222	0.0144531
974.300	0.0144606
974.378	0.0143786
974.456	0.0145824
974.535	0.0145617
974.613	0.0146510
974.691	0.0145958
974.769	0.0148344
974.847	0.0147376
974.925	0.0147482
975.003	0.0148053
975.081	0.0148473
975.160	0.0148521
975.238	0.0147503
975.316	0.0149188
975.394	0.0149297
975.472	0.0148935
975.550	0.0148875
975.628	0.0149552
975.706	0.0149678
975.785	0.0149349
975.863	0.0149953
975.941	0.0152006
976.019	0.0150031
976.097	0.0149640
976.175	0.0148447
976.253	0.0151045
976.331	0.0151625
976.410	0.0150895
976.488	0.0149368
976.566	0.0149052
976.644	0.0149814
976.722	0.0150675
976.800	0.0150445
976.878	0.0148862
976.956	0.0147160
977.035	0.0146870
977.113	0.0147144
977.191	0.0146092
977.269	0.0146566
977.347	0.0145177
977.425	0.0145306
977.503	0.0144648
977.581	0.0143115
977.660	0.0143742
977.738	0.0142953
977.816	0.0143142
977.894	0.0142530
977.972	0.0143281
978.050	0.0141829
978.128	0.0142734
978.206	0.0142852
978.285	0.0143385
978.363	0.0141895
978.441	0.0143307
978.519	0.0144937
978.597	0.0143046
978.675	0.0145559
978.753	0.0144085
978.831	0.0145122
978.910	0.0146894
978.988	0.0147639
979.066	0.0147322
979.144	0.0147446
979.222	0.0147496
979.300	0.0147478
979.378	0.0148323
979.456	0.0148892
979.535	0.0149110
979.613	0.0148667
979.691	0.0148682
979.769	0.0147742
979.847	0.0147507
979.925	0.0149542
