05/03/2022	20:21:57	Ver.	4.1	UNKNOWN
Optical Delay	660.003261	Delta X		0.078125	Sweeps	1	Scan Rate	0/0
Coordinates	Axis 1	NaN	Axis 2	NaN	Axis 3	NaN	Axis 4	NaN	Axis 5	NaN	Axis 6	0.000000
TX Power	0.000000	RX Power	0.000000

660.003	0.0144157
660.081	0.0145522
660.160	0.0144764
660.238	0.0144279
660.316	0.0144508
660.394	0.0143610
660.472	0.0144464
660.550	0.0144102
660.628	0.0143875
660.706	0.0143140
660.785	0.0144449
660.863	0.0143842
660.941	0.0142910
661.019	0.0143533
661.097	0.0143574
661.175	0.0143472
661.253	0.0143858
661.331	0.0143514
661.410	0.0143736
661.488	0.0145172
661.566	0.0143859
661.644	0.0144617
661.722	0.0144661
661.800	0.0144601
661.878	0.0144044
661.956	0.0143510
662.035	0.0144448
662.113	0.0143957
662.191	0.0144202
662.269	0.0144595
662.347	0.0144678
662.425	0.0145017
662.503	0.0141744
662.581	0.0144427
662.660	0.0144621
662.738	0.0144604
662.816	0.0144784
662.894	0.0144279
662.972	0.0144249
663.050	0.0145528
663.128	0.0144417
663.206	0.0145724
663.285	0.0144317
663.363	0.0144478
663.441	0.0144067
663.519	0.0144357
663.597	0.0144736
663.675	0.0144136
663.753	0.0144530
663.831	0.0143542
663.910	0.0144522
663.988	0.0144888
664.066	0.0144736
664.144	0.0143655
664.222	0.0144432
664.300	0.0144585
664.378	0.0144751
664.456	0.0145488
664.535	0.0144737
664.613	0.0144209
664.691	0.0144795
664.769	0.0142889
664.847	0.0142924
664.925	0.0143898
665.003	0.0145913
665.081	0.0143491
665.160	0.0143637
665.238	0.0145026
665.316	0.0144090
665.394	0.0144156
665.472	0.0144476
665.550	0.0144130
665.628	0.0144730
665.706	0.0144388
665.785	0.0144935
665.863	0.0144229
665.941	0.0143549
666.019	0.0142979
666.097	0.0143942
666.175	0.0144742
666.253	0.0144514
666.331	0.0143487
666.410	0.0143820
666.488	0.0144303
666.566	0.0143108
666.644	0.0142485
666.722	0.0143891
666.800	0.0143777
666.878	0.0144824
666.956	0.0145503
667.035	0.0143540
667.113	0.0144041
667.191	0.0144588
667.269	0.0144234
667.347	0.0145267
667.425	0.0144192
667.503	0.0146019
667.581	0.0144520
667.660	0.0143602
667.738	0.0144482
667.816	0.0145300
667.894	0.0144871
667.972	0.0143759
668.050	0.0144028
668.128	0.0144935
668.206	0.0144075
668.285	0.0145242
668.363	0.0144711
668.441	0.0144524
668.519	0.0145338
668.597	0.0144225
668.675	0.0144490
668.753	0.0144731
668.831	0.0145027
668.910	0.0143430
668.988	0.0145521
669.066	0.0144408
669.144	0.0144991
669.222	0.0144636
669.300	0.0143406
669.378	0.0144584
669.456	0.0145191
669.535	0.0144066
669.613	0.0144127
669.691	0.0143799
669.769	0.0144419
669.847	0.0144765
669.925	0.0143848
670.003	0.0144069
670.081	0.0142967
670.160	0.0143748
670.238	0.0143793
670.316	0.0144692
670.394	0.0144566
670.472	0.0143674
670.550	0.0144538
670.628	0.0144155
670.706	0.0143653
670.785	0.0144615
670.863	0.0143701
670.941	0.0145114
671.019	0.0144288
671.097	0.0144065
671.175	0.0144254
671.253	0.0144805
671.331	0.0144124
671.410	0.0145180
671.488	0.0145497
671.566	0.0145713
671.644	0.0144049
671.722	0.0145786
671.800	0.0146294
671.878	0.0144539
671.956	0.0145501
672.035	0.0145916
672.113	0.0143225
672.191	0.0144730
672.269	0.0146043
672.347	0.0145102
672.425	0.0143065
672.503	0.0145416
672.581	0.0144205
672.660	0.0144099
672.738	0.0144688
672.816	0.0144942
672.894	0.0144826
672.972	0.0144263
673.050	0.0144073
673.128	0.0144066
673.206	0.0144793
673.285	0.0144825
673.363	0.0145076
673.441	0.0144858
673.519	0.0143823
673.597	0.0145016
673.675	0.0143619
673.753	0.0143533
673.831	0.0145771
673.910	0.0145419
673.988	0.0144333
674.066	0.0144778
674.144	0.0145760
674.222	0.0143865
674.300	0.0144425
674.378	0.0145831
674.456	0.0145377
674.535	0.0145774
674.613	0.0144361
674.691	0.0143390
674.769	0.0144589
674.847	0.0145275
674.925	0.0144993
675.003	0.0143988
675.081	0.0143761
675.160	0.0145148
675.238	0.0145945
675.316	0.0143917
675.394	0.0144482
675.472	0.0144432
675.550	0.0144131
675.628	0.0144812
675.706	0.0145955
675.785	0.0144291
675.863	0.0144695
675.941	0.0143858
676.019	0.0145224
676.097	0.0145449
676.175	0.0143700
676.253	0.0143691
676.331	0.0144018
676.410	0.0144535
676.488	0.0144266
676.566	0.0145758
676.644	0.0144897
676.722	0.0143726
676.800	0.0144636
676.878	0.0145511
676.956	0.0145353
677.035	0.0145522
677.113	0.0144604
677.191	0.0143318
677.269	0.0143285
677.347	0.0143871
677.425	0.0144476
677.503	0.0143215
677.581	0.0144778
677.660	0.0143566
677.738	0.0144821
677.816	0.0145438
677.894	0.0145531
677.972	0.0143269
678.050	0.0142107
678.128	0.0143877
678.206	0.0144086
678.285	0.0144761
678.363	0.0143795
678.441	0.0143582
678.519	0.0143929
678.597	0.0144476
678.675	0.0144048
678.753	0.0143904
678.831	0.0145133
678.910	0.0145396
678.988	0.0145068
679.066	0.0144012
679.144	0.0144234
679.222	0.0143681
679.300	0.0143763
679.378	0.0144376
679.456	0.0142108
679.535	0.0144377
679.613	0.0144301
679.691	0.0144732
679.769	0.0145705
679.847	0.0143536
679.925	0.0142845
680.003	0.0144540
680.081	0.0143385
680.160	0.0143223
680.238	0.0143470
680.316	0.0145464
680.394	0.0144698
680.472	0.0144341
680.550	0.0143326
680.628	0.0144955
680.706	0.0145377
680.785	0.0143697
680.863	0.0144006
680.941	0.0143594
681.019	0.0144192
681.097	0.0144432
681.175	0.0143461
681.253	0.0143333
681.331	0.0144040
681.410	0.0144520
681.488	0.0143996
681.566	0.0144423
681.644	0.0143410
681.722	0.0142904
681.800	0.0144640
681.878	0.0144605
681.956	0.0143108
682.035	0.0145119
682.113	0.0144372
682.191	0.0143455
682.269	0.0143707
682.347	0.0143491
682.425	0.0144983
682.503	0.0143955
682.581	0.0144257
682.660	0.0145020
682.738	0.0144815
682.816	0.0143573
682.894	0.0143719
682.972	0.0144675
683.050	0.0145185
683.128	0.0144908
683.206	0.0143713
683.285	0.0144447
683.363	0.0144149
683.441	0.0143391
683.519	0.0144324
683.597	0.0142890
683.675	0.0143696
683.753	0.0145173
683.831	0.0145098
683.910	0.0143674
683.988	0.0144451
684.066	0.0143513
684.144	0.0144122
684.222	0.0144077
684.300	0.0143565
684.378	0.0144083
684.456	0.0143811
684.535	0.0143951
684.613	0.0143623
684.691	0.0144660
684.769	0.0144157
684.847	0.0145364
684.925	0.0145760
685.003	0.0145770
685.081	0.0144594
685.160	0.0144602
685.238	0.0145069
685.316	0.0145026
685.394	0.0143314
685.472	0.0144065
685.550	0.0144128
685.628	0.0144695
685.706	0.0144321
685.785	0.0146090
685.863	0.0144964
685.941	0.0143295
686.019	0.0143080
686.097	0.0144172
686.175	0.0143464
686.253	0.0144099
686.331	0.0143865
686.410	0.0143561
686.488	0.0143781
686.566	0.0143300
686.644	0.0144722
686.722	0.0144200
686.800	0.0144203
686.878	0.0142853
686.956	0.0142812
687.035	0.0142361
687.113	0.0144045
687.191	0.0145837
687.269	0.0144083
687.347	0.0142879
687.425	0.0142876
687.503	0.0144282
687.581	0.0143906
687.660	0.0144651
687.738	0.0144324
687.816	0.0143755
687.894	0.0144636
687.972	0.0143789
688.050	0.0144260
688.128	0.0144635
688.206	0.0143385
688.285	0.0142706
688.363	0.0144453
688.441	0.0144493
688.519	0.0143061
688.597	0.0144625
688.675	0.0143211
688.753	0.0142861
688.831	0.0144635
688.910	0.0142908
688.988	0.0143672
689.066	0.0143990
689.144	0.0144120
689.222	0.0143604
689.300	0.0142591
689.378	0.0143633
689.456	0.0143961
689.535	0.0145154
689.613	0.0143814
689.691	0.0144054
689.769	0.0143885
689.847	0.0143532
689.925	0.0143503
690.003	0.0144767
690.081	0.0144121
690.160	0.0144436
690.238	0.0145367
690.316	0.0144765
690.394	0.0145309
690.472	0.0144423
690.550	0.0144376
690.628	0.0143848
690.706	0.0144090
690.785	0.0145034
690.863	0.0144022
690.941	0.0144441
691.019	0.0143569
691.097	0.0143912
691.175	0.0143629
691.253	0.0145368
691.331	0.0143823
691.410	0.0143111
691.488	0.0144974
691.566	0.0143903
691.644	0.0144205
691.722	0.0144392
691.800	0.0143035
691.878	0.0144180
691.956	0.0144964
692.035	0.0143819
692.113	0.0145439
692.191	0.0145215
692.269	0.0143745
692.347	0.0143830
692.425	0.0144124
692.503	0.0143795
692.581	0.0144080
692.660	0.0144458
692.738	0.0144668
692.816	0.0143314
692.894	0.0144291
692.972	0.0144884
693.050	0.0145605
693.128	0.0144240
693.206	0.0143597
693.285	0.0143549
693.363	0.0144906
693.441	0.0144563
693.519	0.0144291
693.597	0.0145512
693.675	0.0144831
693.753	0.0144990
693.831	0.0144267
693.910	0.0145643
693.988	0.0146193
694.066	0.0144612
694.144	0.0144419
694.222	0.0144830
694.300	0.0145052
694.378	0.0145129
694.456	0.0145184
694.535	0.0144925
694.613	0.0145129
694.691	0.0144873
694.769	0.0145425
694.847	0.0145550
694.925	0.0144039
695.003	0.0144739
695.081	0.0145371
695.160	0.0145474
695.238	0.0144398
695.316	0.0144970
695.394	0.0144888
695.472	0.0143970
695.550	0.0144405
695.628	0.0145023
695.706	0.0144464
695.785	0.0145173
695.863	0.0144515
695.941	0.0144968
696.019	0.0143968
696.097	0.0144862
696.175	0.0144329
696.253	0.0144693
696.331	0.0143841
696.410	0.0143665
696.488	0.0142364
696.566	0.0143749
696.644	0.0143171
696.722	0.0143550
696.800	0.0144008
696.878	0.0145550
696.956	0.0146059
697.035	0.0146321
697.113	0.0145805
697.191	0.0146296
697.269	0.0147476
697.347	0.0147154
697.425	0.0146878
697.503	0.0146021
697.581	0.0144378
697.660	0.0144987
697.738	0.0142773
697.816	0.0143026
697.894	0.0141156
697.972	0.0140260
698.050	0.0140170
698.128	0.0141634
698.206	0.0141751
698.285	0.0140707
698.363	0.0141332
698.441	0.0142355
698.519	0.0143089
698.597	0.0144806
698.675	0.0146739
698.753	0.0147614
698.831	0.0149336
698.910	0.0151299
698.988	0.0152992
699.066	0.0152567
699.144	0.0152204
699.222	0.0153963
699.300	0.0152975
699.378	0.0151585
699.456	0.0151057
699.535	0.0150597
699.613	0.0148489
699.691	0.0146273
699.769	0.0142293
699.847	0.0140361
699.925	0.0138402
700.003	0.0137044
700.081	0.0135233
700.160	0.0133018
700.238	0.0131789
700.316	0.0130610
700.394	0.0129453
700.472	0.0128890
700.550	0.0130328
700.628	0.0129205
700.706	0.0131234
700.785	0.0133564
700.863	0.0134499
700.941	0.0138307
701.019	0.0140047
701.097	0.0142163
701.175	0.0145992
701.253	0.0150063
701.331	0.0153848
701.410	0.0156821
701.488	0.0160725
701.566	0.0162794
701.644	0.0165283
701.722	0.0166591
701.800	0.0168226
701.878	0.0170148
701.956	0.0170754
702.035	0.0168496
702.113	0.0168597
702.191	0.0165319
702.269	0.0162473
702.347	0.0157391
702.425	0.0152526
702.503	0.0147926
702.581	0.0141692
702.660	0.0136425
702.738	0.0131578
702.816	0.0128904
702.894	0.0125867
702.972	0.0121603
703.050	0.0119872
703.128	0.0117881
703.206	0.0117651
703.285	0.0118186
703.363	0.0117390
703.441	0.0116470
703.519	0.0119324
703.597	0.0120914
703.675	0.0123055
703.753	0.0126725
703.831	0.0130292
703.910	0.0133691
703.988	0.0136623
704.066	0.0139217
704.144	0.0141740
704.222	0.0143010
704.300	0.0146685
704.378	0.0147433
704.456	0.0149717
704.535	0.0151579
704.613	0.0152210
704.691	0.0155088
704.769	0.0154856
704.847	0.0157279
704.925	0.0160821
705.003	0.0163791
705.081	0.0166805
705.160	0.0171896
705.238	0.0178058
705.316	0.0181909
705.394	0.0186361
705.472	0.0189323
705.550	0.0191393
705.628	0.0191586
705.706	0.0188953
705.785	0.0181342
705.863	0.0173224
705.941	0.0162475
706.019	0.0151875
706.097	0.0141248
706.175	0.0129842
706.253	0.0122362
706.331	0.0113852
706.410	0.0109589
706.488	0.0105401
706.566	0.0103791
706.644	0.0102419
706.722	0.0101503
706.800	0.0103009
706.878	0.0105099
706.956	0.0106004
707.035	0.0108971
707.113	0.0111384
707.191	0.0111153
707.269	0.0111766
707.347	0.0114899
707.425	0.0117613
707.503	0.0119051
707.581	0.0122393
707.660	0.0127594
707.738	0.0133098
707.816	0.0137202
707.894	0.0140578
707.972	0.0144485
708.050	0.0148853
708.128	0.0151137
708.206	0.0154865
708.285	0.0156889
708.363	0.0161068
708.441	0.0161904
708.519	0.0163138
708.597	0.0165388
708.675	0.0167998
708.753	0.0171564
708.831	0.0175108
708.910	0.0179929
708.988	0.0184798
709.066	0.0189158
709.144	0.0193727
709.222	0.0197155
709.300	0.0197754
709.378	0.0197950
709.456	0.0196154
709.535	0.0191468
709.613	0.0185979
709.691	0.0178642
709.769	0.0170384
709.847	0.0161477
709.925	0.0150914
710.003	0.0141149
710.081	0.0134520
710.160	0.0126179
710.238	0.0116565
710.316	0.0109800
710.394	0.0103336
710.472	0.00991280
710.550	0.00955887
710.628	0.00911942
710.706	0.00908180
710.785	0.00888908
710.863	0.00907906
710.941	0.00918526
711.019	0.00935547
711.097	0.00967308
711.175	0.0101953
711.253	0.0104971
711.331	0.0109361
711.410	0.0114017
711.488	0.0117410
711.566	0.0122060
711.644	0.0125797
711.722	0.0129713
711.800	0.0133734
711.878	0.0139045
711.956	0.0143217
712.035	0.0146833
712.113	0.0152946
712.191	0.0154867
712.269	0.0158088
712.347	0.0162980
712.425	0.0166261
712.503	0.0170222
712.581	0.0175275
712.660	0.0179946
712.738	0.0184818
712.816	0.0190781
712.894	0.0194868
712.972	0.0196416
713.050	0.0200002
713.128	0.0201958
713.206	0.0200687
713.285	0.0196924
713.363	0.0192358
713.441	0.0185649
713.519	0.0176620
713.597	0.0168869
713.675	0.0163183
713.753	0.0155357
713.831	0.0148294
713.910	0.0143314
713.988	0.0138387
714.066	0.0133788
714.144	0.0131167
714.222	0.0127082
714.300	0.0125585
714.378	0.0123775
714.456	0.0121814
714.535	0.0119663
714.613	0.0114930
714.691	0.0111714
714.769	0.0108839
714.847	0.0106915
714.925	0.0105156
715.003	0.0103587
715.081	0.0104108
715.160	0.0104874
715.238	0.0106179
715.316	0.0106222
715.394	0.0109810
715.472	0.0112132
715.550	0.0116634
715.628	0.0120764
715.706	0.0123492
715.785	0.0127235
715.863	0.0130808
715.941	0.0134875
716.019	0.0137642
716.097	0.0141426
716.175	0.0144231
716.253	0.0146275
716.331	0.0148381
716.410	0.0149780
716.488	0.0152210
716.566	0.0152376
716.644	0.0155473
716.722	0.0158707
716.800	0.0161203
716.878	0.0167329
716.956	0.0173166
717.035	0.0177319
717.113	0.0183554
717.191	0.0187239
717.269	0.0189104
717.347	0.0190653
717.425	0.0190369
717.503	0.0188996
717.581	0.0186313
717.660	0.0179662
717.738	0.0175757
717.816	0.0171679
717.894	0.0164271
717.972	0.0158132
718.050	0.0154744
718.128	0.0150240
718.206	0.0146921
718.285	0.0143394
718.363	0.0140288
718.441	0.0137064
718.519	0.0135231
718.597	0.0132951
718.675	0.0130629
718.753	0.0127480
718.831	0.0124601
718.910	0.0121339
718.988	0.0117862
719.066	0.0115587
719.144	0.0114021
719.222	0.0112228
719.300	0.0112970
719.378	0.0113494
719.456	0.0114303
719.535	0.0115197
719.613	0.0119428
719.691	0.0121572
719.769	0.0124717
719.847	0.0127040
719.925	0.0131360
720.003	0.0131209
720.081	0.0132014
720.160	0.0131664
720.238	0.0132162
720.316	0.0131170
720.394	0.0131451
720.472	0.0132410
720.550	0.0132735
720.628	0.0133252
720.706	0.0136322
720.785	0.0138904
720.863	0.0140032
720.941	0.0144234
721.019	0.0147113
721.097	0.0151067
721.175	0.0154262
721.253	0.0160007
721.331	0.0164776
721.410	0.0168201
721.488	0.0173631
721.566	0.0176665
721.644	0.0178468
721.722	0.0179333
721.800	0.0181641
721.878	0.0179830
721.956	0.0177796
722.035	0.0176620
722.113	0.0173927
722.191	0.0171567
722.269	0.0167924
722.347	0.0166732
722.425	0.0164115
722.503	0.0161934
722.581	0.0160946
722.660	0.0160052
722.738	0.0157768
722.816	0.0154044
722.894	0.0151651
722.972	0.0149268
723.050	0.0145886
723.128	0.0142892
723.206	0.0139240
723.285	0.0135973
723.363	0.0131396
723.441	0.0127924
723.519	0.0125195
723.597	0.0123055
723.675	0.0120302
723.753	0.0118144
723.831	0.0116652
723.910	0.0115883
723.988	0.0113740
724.066	0.0114017
724.144	0.0114273
724.222	0.0114884
724.300	0.0116952
724.378	0.0116956
724.456	0.0119334
724.535	0.0121506
724.613	0.0123197
724.691	0.0124020
724.769	0.0127311
724.847	0.0128315
724.925	0.0130678
725.003	0.0132812
725.081	0.0132548
725.160	0.0134295
725.238	0.0136213
725.316	0.0136092
725.394	0.0137581
725.472	0.0139023
725.550	0.0138448
725.628	0.0140064
725.706	0.0143007
725.785	0.0144891
725.863	0.0148888
725.941	0.0153805
726.019	0.0157784
726.097	0.0161193
726.175	0.0165840
726.253	0.0170676
726.331	0.0174018
726.410	0.0176143
726.488	0.0180107
726.566	0.0182192
726.644	0.0185431
726.722	0.0185671
726.800	0.0184565
726.878	0.0183691
726.956	0.0181781
727.035	0.0179273
727.113	0.0176897
727.191	0.0173982
727.269	0.0172173
727.347	0.0168171
727.425	0.0163528
727.503	0.0158768
727.581	0.0154924
727.660	0.0151521
727.738	0.0147591
727.816	0.0144566
727.894	0.0139149
727.972	0.0135748
728.050	0.0133212
728.128	0.0131796
728.206	0.0129801
728.285	0.0126433
728.363	0.0124691
728.441	0.0124245
728.519	0.0122088
728.597	0.0121004
728.675	0.0120197
728.753	0.0118164
728.831	0.0117657
728.910	0.0116534
728.988	0.0115518
729.066	0.0114058
729.144	0.0113366
729.222	0.0113036
729.300	0.0111661
729.378	0.0111407
729.456	0.0112357
729.535	0.0116498
729.613	0.0116273
729.691	0.0117029
729.769	0.0118723
729.847	0.0119238
729.925	0.0121423
730.003	0.0123817
730.081	0.0126022
730.160	0.0129124
730.238	0.0133478
730.316	0.0135379
730.394	0.0139194
730.472	0.0141824
730.550	0.0145267
730.628	0.0151114
730.706	0.0154237
730.785	0.0158549
730.863	0.0162712
730.941	0.0166333
731.019	0.0169368
731.097	0.0171436
731.175	0.0175274
731.253	0.0176762
731.331	0.0179302
731.410	0.0180273
731.488	0.0181486
731.566	0.0183189
731.644	0.0182461
731.722	0.0183053
731.800	0.0180353
731.878	0.0179171
731.956	0.0178037
732.035	0.0175440
732.113	0.0174946
732.191	0.0172183
732.269	0.0168538
732.347	0.0168054
732.425	0.0163264
732.503	0.0162313
732.581	0.0159986
732.660	0.0157037
732.738	0.0153834
732.816	0.0150312
732.894	0.0147038
732.972	0.0144571
733.050	0.0139144
733.128	0.0134810
733.206	0.0131393
733.285	0.0127223
733.363	0.0124032
733.441	0.0120750
733.519	0.0116984
733.597	0.0113857
733.675	0.0110988
733.753	0.0107996
733.831	0.0106999
733.910	0.0106619
733.988	0.0104179
734.066	0.0103880
734.144	0.0102858
734.222	0.0106029
734.300	0.0105317
734.378	0.0106766
734.456	0.0108640
734.535	0.0111869
734.613	0.0112417
734.691	0.0115347
734.769	0.0117330
734.847	0.0119855
734.925	0.0124807
735.003	0.0128287
735.081	0.0130010
735.160	0.0133267
735.238	0.0137912
735.316	0.0141557
735.394	0.0143851
735.472	0.0148170
735.550	0.0150327
735.628	0.0154647
735.706	0.0157928
735.785	0.0162079
735.863	0.0165308
735.941	0.0165137
736.019	0.0168562
736.097	0.0173153
736.175	0.0174951
736.253	0.0177070
736.331	0.0178281
736.410	0.0180768
736.488	0.0179368
736.566	0.0180431
736.644	0.0179865
736.722	0.0180559
736.800	0.0177505
736.878	0.0177999
736.956	0.0174660
737.035	0.0172204
737.113	0.0170961
737.191	0.0168690
737.269	0.0167081
737.347	0.0163869
737.425	0.0161549
737.503	0.0160252
737.581	0.0156739
737.660	0.0155676
737.738	0.0152615
737.816	0.0150523
737.894	0.0147247
737.972	0.0144104
738.050	0.0140613
738.128	0.0136961
738.206	0.0133575
738.285	0.0129985
738.363	0.0126775
738.441	0.0125337
738.519	0.0122630
738.597	0.0121880
738.675	0.0120409
738.753	0.0117907
738.831	0.0117777
738.910	0.0116518
738.988	0.0115727
739.066	0.0116439
739.144	0.0117426
739.222	0.0116461
739.300	0.0116753
739.378	0.0117762
739.456	0.0120293
739.535	0.0120160
739.613	0.0120952
739.691	0.0122664
739.769	0.0122924
739.847	0.0124662
739.925	0.0126161
740.003	0.0126761
740.081	0.0129800
740.160	0.0130816
740.238	0.0131178
740.316	0.0134628
740.394	0.0136616
740.472	0.0140190
740.550	0.0142525
740.628	0.0146399
740.706	0.0148986
740.785	0.0150687
740.863	0.0155095
740.941	0.0156619
741.019	0.0160452
741.097	0.0160815
741.175	0.0160706
741.253	0.0162270
741.331	0.0163642
741.410	0.0164620
741.488	0.0165542
741.566	0.0167043
741.644	0.0165749
741.722	0.0165638
741.800	0.0165832
741.878	0.0166714
741.956	0.0165486
742.035	0.0164577
742.113	0.0165507
742.191	0.0164699
742.269	0.0163123
742.347	0.0163839
742.425	0.0161694
742.503	0.0160652
742.581	0.0160329
742.660	0.0159432
742.738	0.0158621
742.816	0.0157035
742.894	0.0154873
742.972	0.0153326
743.050	0.0151104
743.128	0.0150453
743.206	0.0148160
743.285	0.0146178
743.363	0.0145043
743.441	0.0142261
743.519	0.0141716
743.597	0.0139799
743.675	0.0137530
743.753	0.0135828
743.831	0.0134360
743.910	0.0134714
743.988	0.0133892
744.066	0.0131542
744.144	0.0129659
744.222	0.0128204
744.300	0.0126976
744.378	0.0125684
744.456	0.0124281
744.535	0.0123328
744.613	0.0123104
744.691	0.0122258
744.769	0.0120535
744.847	0.0120854
744.925	0.0118655
745.003	0.0120036
745.081	0.0122392
745.160	0.0122514
745.238	0.0123207
745.316	0.0125112
745.394	0.0127859
745.472	0.0129700
745.550	0.0131113
745.628	0.0134084
745.706	0.0136744
745.785	0.0140709
745.863	0.0141714
745.941	0.0143752
746.019	0.0145119
746.097	0.0147126
746.175	0.0148771
746.253	0.0150486
746.331	0.0152028
746.410	0.0151450
746.488	0.0153131
746.566	0.0155267
746.644	0.0154419
746.722	0.0156715
746.800	0.0157747
746.878	0.0159132
746.956	0.0160352
747.035	0.0162122
747.113	0.0163377
747.191	0.0164177
747.269	0.0165293
747.347	0.0166276
747.425	0.0163812
747.503	0.0163074
747.581	0.0164944
747.660	0.0166904
747.738	0.0165057
747.816	0.0164812
747.894	0.0165068
747.972	0.0164141
748.050	0.0164080
748.128	0.0162708
748.206	0.0161752
748.285	0.0162718
748.363	0.0159528
748.441	0.0158199
748.519	0.0156410
748.597	0.0154298
748.675	0.0151261
748.753	0.0147266
748.831	0.0144669
748.910	0.0141648
748.988	0.0136902
749.066	0.0133624
749.144	0.0131432
749.222	0.0128408
749.300	0.0126224
749.378	0.0122617
749.456	0.0122569
749.535	0.0121844
749.613	0.0121144
749.691	0.0119657
749.769	0.0118851
749.847	0.0117620
749.925	0.0119476
750.003	0.0120621
750.081	0.0120612
750.160	0.0122749
750.238	0.0123825
750.316	0.0124149
750.394	0.0124587
750.472	0.0126527
750.550	0.0129205
750.628	0.0129973
750.706	0.0132424
750.785	0.0134572
750.863	0.0135638
750.941	0.0135741
751.019	0.0138712
751.097	0.0140736
751.175	0.0141186
751.253	0.0142970
751.331	0.0145296
751.410	0.0146817
751.488	0.0147598
751.566	0.0150695
751.644	0.0150671
751.722	0.0152946
751.800	0.0154789
751.878	0.0155698
751.956	0.0155176
752.035	0.0156586
752.113	0.0157551
752.191	0.0158869
752.269	0.0159137
752.347	0.0159629
752.425	0.0161674
752.503	0.0163281
752.581	0.0161018
752.660	0.0161227
752.738	0.0161684
752.816	0.0160574
752.894	0.0161656
752.972	0.0161372
753.050	0.0160401
753.128	0.0160751
753.206	0.0158559
753.285	0.0158479
753.363	0.0156595
753.441	0.0156777
753.519	0.0154752
753.597	0.0153130
753.675	0.0151055
753.753	0.0150458
753.831	0.0147940
753.910	0.0145345
753.988	0.0143997
754.066	0.0142586
754.144	0.0141634
754.222	0.0139780
754.300	0.0138921
754.378	0.0138852
754.456	0.0137679
754.535	0.0136517
754.613	0.0137200
754.691	0.0137184
754.769	0.0136683
754.847	0.0136694
754.925	0.0136951
755.003	0.0134895
755.081	0.0135131
755.160	0.0135679
755.238	0.0132594
755.316	0.0133598
755.394	0.0134007
755.472	0.0132979
755.550	0.0132874
755.628	0.0132528
755.706	0.0133680
755.785	0.0135626
755.863	0.0135355
755.941	0.0135886
756.019	0.0135803
756.097	0.0137383
756.175	0.0138564
756.253	0.0138741
756.331	0.0139360
756.410	0.0139227
756.488	0.0141158
756.566	0.0141521
756.644	0.0140247
756.722	0.0140839
756.800	0.0141710
756.878	0.0140282
756.956	0.0142757
757.035	0.0143409
757.113	0.0141965
757.191	0.0143520
757.269	0.0144660
757.347	0.0144116
757.425	0.0145425
757.503	0.0146026
757.581	0.0147377
757.660	0.0147266
757.738	0.0149254
757.816	0.0148859
757.894	0.0148028
757.972	0.0150655
758.050	0.0149217
758.128	0.0152132
758.206	0.0153188
758.285	0.0151454
758.363	0.0152184
758.441	0.0151342
758.519	0.0152388
758.597	0.0151688
758.675	0.0150334
758.753	0.0150507
758.831	0.0152254
758.910	0.0152473
758.988	0.0152023
759.066	0.0150933
759.144	0.0150344
759.222	0.0150014
759.300	0.0151460
759.378	0.0152113
759.456	0.0151231
759.535	0.0149830
759.613	0.0149390
759.691	0.0148667
759.769	0.0146684
759.847	0.0146004
759.925	0.0145441
760.003	0.0145429
760.081	0.0146774
760.160	0.0146835
760.238	0.0145614
760.316	0.0145824
760.394	0.0144664
760.472	0.0144847
760.550	0.0145709
760.628	0.0145766
760.706	0.0144312
760.785	0.0144211
760.863	0.0142962
760.941	0.0141840
761.019	0.0139686
761.097	0.0139868
761.175	0.0138557
761.253	0.0137032
761.331	0.0135455
761.410	0.0135851
761.488	0.0134450
761.566	0.0133559
761.644	0.0133583
761.722	0.0133687
761.800	0.0132885
761.878	0.0133956
761.956	0.0134549
762.035	0.0134299
762.113	0.0135839
762.191	0.0135248
762.269	0.0137138
762.347	0.0136718
762.425	0.0138231
762.503	0.0139951
762.581	0.0138644
762.660	0.0138892
762.738	0.0140000
762.816	0.0142484
762.894	0.0143616
762.972	0.0144212
763.050	0.0144683
763.128	0.0146598
763.206	0.0148277
763.285	0.0146813
763.363	0.0149768
763.441	0.0150183
763.519	0.0150195
763.597	0.0150951
763.675	0.0150939
763.753	0.0150954
763.831	0.0151588
763.910	0.0152060
763.988	0.0152087
764.066	0.0152610
764.144	0.0152589
764.222	0.0151870
764.300	0.0152454
764.378	0.0153526
764.456	0.0153134
764.535	0.0152317
764.613	0.0151089
764.691	0.0150156
764.769	0.0149512
764.847	0.0149306
764.925	0.0148312
765.003	0.0147108
765.081	0.0147495
765.160	0.0147130
765.238	0.0146178
765.316	0.0146507
765.394	0.0146196
765.472	0.0145493
765.550	0.0145175
765.628	0.0144117
765.706	0.0144366
765.785	0.0143145
765.863	0.0141792
765.941	0.0142023
766.019	0.0141287
766.097	0.0140429
766.175	0.0140116
766.253	0.0139741
766.331	0.0138726
766.410	0.0138571
766.488	0.0136613
766.566	0.0137474
766.644	0.0136702
766.722	0.0138399
766.800	0.0137399
766.878	0.0136784
766.956	0.0137309
767.035	0.0138167
767.113	0.0137723
767.191	0.0139639
767.269	0.0139063
767.347	0.0138378
767.425	0.0139363
767.503	0.0141039
767.581	0.0141803
767.660	0.0141291
767.738	0.0142222
767.816	0.0141878
767.894	0.0141295
767.972	0.0144142
768.050	0.0144561
768.128	0.0144236
768.206	0.0145557
768.285	0.0146886
768.363	0.0148282
768.441	0.0148462
768.519	0.0149564
768.597	0.0150076
768.675	0.0150733
768.753	0.0151128
768.831	0.0150730
768.910	0.0149392
768.988	0.0149245
769.066	0.0148887
769.144	0.0149088
769.222	0.0146954
769.300	0.0148177
769.378	0.0146906
769.456	0.0145979
769.535	0.0146611
769.613	0.0147047
769.691	0.0146379
769.769	0.0144692
769.847	0.0144117
769.925	0.0145945
770.003	0.0145380
770.081	0.0146304
770.160	0.0145163
770.238	0.0145733
770.316	0.0145433
770.394	0.0145477
770.472	0.0146894
770.550	0.0145460
770.628	0.0145721
770.706	0.0144504
770.785	0.0145506
770.863	0.0146072
770.941	0.0146365
771.019	0.0145089
771.097	0.0145078
771.175	0.0144909
771.253	0.0144720
771.331	0.0143987
771.410	0.0143462
771.488	0.0142102
771.566	0.0141961
771.644	0.0141541
771.722	0.0142168
771.800	0.0142118
771.878	0.0142766
771.956	0.0141261
772.035	0.0142623
772.113	0.0143515
772.191	0.0143694
772.269	0.0143592
772.347	0.0146746
772.425	0.0146466
772.503	0.0145591
772.581	0.0147762
772.660	0.0146926
772.738	0.0144957
772.816	0.0145371
772.894	0.0145443
772.972	0.0144534
773.050	0.0144867
773.128	0.0143594
773.206	0.0143758
773.285	0.0144453
773.363	0.0142728
773.441	0.0143337
773.519	0.0142706
773.597	0.0142175
773.675	0.0143339
773.753	0.0143028
773.831	0.0141431
773.910	0.0142373
773.988	0.0141673
774.066	0.0140865
774.144	0.0140422
774.222	0.0142467
774.300	0.0143676
774.378	0.0144223
774.456	0.0143510
774.535	0.0144299
774.613	0.0144815
774.691	0.0146091
774.769	0.0145408
774.847	0.0143435
774.925	0.0143994
775.003	0.0144607
775.081	0.0144310
775.160	0.0143563
775.238	0.0143501
775.316	0.0142756
775.394	0.0141175
775.472	0.0142110
775.550	0.0141630
775.628	0.0142504
775.706	0.0142670
775.785	0.0144302
775.863	0.0144884
775.941	0.0144948
776.019	0.0146428
776.097	0.0149884
776.175	0.0148523
776.253	0.0148518
776.331	0.0150352
776.410	0.0151340
776.488	0.0151517
776.566	0.0150479
776.644	0.0149371
776.722	0.0148225
776.800	0.0148111
776.878	0.0150012
776.956	0.0148545
777.035	0.0146898
777.113	0.0146035
777.191	0.0144645
777.269	0.0144601
777.347	0.0143364
777.425	0.0142506
777.503	0.0142838
777.581	0.0142452
777.660	0.0141942
777.738	0.0141399
777.816	0.0142343
777.894	0.0142889
777.972	0.0141921
778.050	0.0141420
778.128	0.0143182
778.206	0.0141857
778.285	0.0143079
778.363	0.0142264
778.441	0.0141795
778.519	0.0145451
778.597	0.0144229
778.675	0.0144516
778.753	0.0143623
778.831	0.0143410
778.910	0.0143259
778.988	0.0143937
779.066	0.0143243
779.144	0.0142719
779.222	0.0141695
779.300	0.0141579
779.378	0.0143076
779.456	0.0143735
779.535	0.0143011
779.613	0.0144180
779.691	0.0144067
779.769	0.0144804
779.847	0.0144582
779.925	0.0144393
780.003	0.0144826
780.081	0.0145348
780.160	0.0144661
780.238	0.0146012
780.316	0.0144772
780.394	0.0146056
780.472	0.0147127
780.550	0.0147825
780.628	0.0146436
780.706	0.0145708
780.785	0.0145261
780.863	0.0146165
780.941	0.0147018
781.019	0.0145931
781.097	0.0146240
781.175	0.0146162
781.253	0.0145841
781.331	0.0145098
781.410	0.0145920
781.488	0.0144849
781.566	0.0145473
781.644	0.0144662
781.722	0.0144576
781.800	0.0144716
781.878	0.0146416
781.956	0.0144868
782.035	0.0143059
782.113	0.0143571
782.191	0.0143331
782.269	0.0144180
782.347	0.0142362
782.425	0.0142451
782.503	0.0145176
782.581	0.0143250
782.660	0.0143542
782.738	0.0143074
782.816	0.0143321
782.894	0.0144161
782.972	0.0143457
783.050	0.0144210
783.128	0.0144229
783.206	0.0143777
783.285	0.0144117
783.363	0.0144534
783.441	0.0144890
783.519	0.0144779
783.597	0.0145879
783.675	0.0147656
783.753	0.0145999
783.831	0.0147800
783.910	0.0146179
783.988	0.0147401
784.066	0.0150096
784.144	0.0147348
784.222	0.0150172
784.300	0.0149171
784.378	0.0147858
784.456	0.0146836
784.535	0.0147993
784.613	0.0148740
784.691	0.0145842
784.769	0.0145940
784.847	0.0145731
784.925	0.0144713
785.003	0.0142066
785.081	0.0143767
785.160	0.0142567
785.238	0.0140008
785.316	0.0140186
785.394	0.0141349
785.472	0.0141425
785.550	0.0140938
785.628	0.0139470
785.706	0.0141323
785.785	0.0140421
785.863	0.0139901
785.941	0.0141936
786.019	0.0140491
786.097	0.0141867
786.175	0.0140253
786.253	0.0141858
786.331	0.0139980
786.410	0.0138924
786.488	0.0139764
786.566	0.0140903
786.644	0.0140017
786.722	0.0140247
786.800	0.0141611
786.878	0.0143017
786.956	0.0142636
787.035	0.0142543
787.113	0.0142395
787.191	0.0143033
787.269	0.0143518
787.347	0.0144432
787.425	0.0143311
787.503	0.0144669
787.581	0.0143401
787.660	0.0144290
787.738	0.0146344
787.816	0.0145818
787.894	0.0144320
787.972	0.0145318
788.050	0.0146933
788.128	0.0147157
788.206	0.0146696
788.285	0.0147491
788.363	0.0147153
788.441	0.0146929
788.519	0.0149390
788.597	0.0149194
788.675	0.0149989
788.753	0.0149342
788.831	0.0148800
788.910	0.0149957
788.988	0.0149323
789.066	0.0147427
789.144	0.0148837
789.222	0.0148018
789.300	0.0147082
789.378	0.0146232
789.456	0.0145464
789.535	0.0144957
789.613	0.0144148
789.691	0.0143911
789.769	0.0142397
789.847	0.0141559
789.925	0.0140562
790.003	0.0141357
790.081	0.0140991
790.160	0.0140292
790.238	0.0138953
790.316	0.0139753
790.394	0.0139671
790.472	0.0139448
790.550	0.0140339
790.628	0.0140675
790.706	0.0141093
790.785	0.0140840
790.863	0.0139657
790.941	0.0141562
791.019	0.0142380
791.097	0.0143865
791.175	0.0142667
791.253	0.0143793
791.331	0.0143576
791.410	0.0143809
791.488	0.0144911
791.566	0.0145112
791.644	0.0144791
791.722	0.0144395
791.800	0.0144392
791.878	0.0144731
791.956	0.0145769
792.035	0.0146731
792.113	0.0144229
792.191	0.0145055
792.269	0.0145554
792.347	0.0145792
792.425	0.0146087
792.503	0.0145464
792.581	0.0145376
792.660	0.0145069
792.738	0.0145667
792.816	0.0145749
792.894	0.0144038
792.972	0.0146048
793.050	0.0146448
793.128	0.0145181
793.206	0.0146241
793.285	0.0146253
793.363	0.0146266
793.441	0.0145557
793.519	0.0146482
793.597	0.0146805
793.675	0.0146540
793.753	0.0144508
793.831	0.0144431
793.910	0.0146000
793.988	0.0144896
794.066	0.0145316
794.144	0.0145901
794.222	0.0145032
794.300	0.0144099
794.378	0.0145530
794.456	0.0143193
794.535	0.0144315
794.613	0.0144000
794.691	0.0143745
794.769	0.0143792
794.847	0.0143420
794.925	0.0141977
795.003	0.0142144
795.081	0.0142542
795.160	0.0141792
795.238	0.0143890
795.316	0.0143711
795.394	0.0144987
795.472	0.0143501
795.550	0.0143404
795.628	0.0144122
795.706	0.0144010
795.785	0.0143541
795.863	0.0143178
795.941	0.0143037
796.019	0.0144923
796.097	0.0142657
796.175	0.0143574
796.253	0.0144084
796.331	0.0144671
796.410	0.0144080
796.488	0.0144710
796.566	0.0144592
796.644	0.0144855
796.722	0.0145734
796.800	0.0146384
796.878	0.0147083
796.956	0.0145833
797.035	0.0147161
797.113	0.0147161
797.191	0.0147552
797.269	0.0147604
797.347	0.0146375
797.425	0.0146033
797.503	0.0147664
797.581	0.0146731
797.660	0.0146245
797.738	0.0147037
797.816	0.0146786
797.894	0.0144716
797.972	0.0146152
798.050	0.0145394
798.128	0.0143796
798.206	0.0143142
798.285	0.0142021
798.363	0.0142812
798.441	0.0140868
798.519	0.0140023
798.597	0.0140088
798.675	0.0138933
798.753	0.0139472
798.831	0.0140729
798.910	0.0139785
798.988	0.0138342
799.066	0.0140314
799.144	0.0140977
799.222	0.0140243
799.300	0.0140887
799.378	0.0142167
799.456	0.0143237
799.535	0.0143398
799.613	0.0144823
799.691	0.0143256
799.769	0.0144218
799.847	0.0146062
799.925	0.0145198
800.003	0.0145724
800.081	0.0145985
800.160	0.0145134
800.238	0.0148164
800.316	0.0146957
800.394	0.0148231
800.472	0.0147195
800.550	0.0147150
800.628	0.0147409
800.706	0.0149020
800.785	0.0148381
800.863	0.0147453
800.941	0.0148746
801.019	0.0149899
801.097	0.0150300
801.175	0.0150191
801.253	0.0148980
801.331	0.0150648
801.410	0.0149498
801.488	0.0150375
801.566	0.0150071
801.644	0.0148515
801.722	0.0147793
801.800	0.0145336
801.878	0.0144866
801.956	0.0144815
802.035	0.0142997
802.113	0.0143314
802.191	0.0141450
802.269	0.0141265
802.347	0.0140156
802.425	0.0139151
802.503	0.0139125
802.581	0.0138795
802.660	0.0139104
802.738	0.0137868
802.816	0.0137935
802.894	0.0138187
802.972	0.0139315
803.050	0.0140128
803.128	0.0139745
803.206	0.0139459
803.285	0.0140398
803.363	0.0141968
803.441	0.0143491
803.519	0.0143922
803.597	0.0142303
803.675	0.0143742
803.753	0.0144237
803.831	0.0143855
803.910	0.0143269
803.988	0.0144274
804.066	0.0143450
804.144	0.0144427
804.222	0.0145215
804.300	0.0145741
804.378	0.0145746
804.456	0.0145221
804.535	0.0145486
804.613	0.0147183
804.691	0.0147991
804.769	0.0147242
804.847	0.0148407
804.925	0.0150198
805.003	0.0149538
805.081	0.0150586
805.160	0.0150934
805.238	0.0151987
805.316	0.0151862
805.394	0.0150848
805.472	0.0151725
805.550	0.0150246
805.628	0.0148795
805.706	0.0149731
805.785	0.0148725
805.863	0.0147367
805.941	0.0146501
806.019	0.0142641
806.097	0.0141879
806.175	0.0140602
806.253	0.0138812
806.331	0.0137946
806.410	0.0137053
806.488	0.0135850
806.566	0.0135452
806.644	0.0135501
806.722	0.0135005
806.800	0.0135056
806.878	0.0135815
806.956	0.0135744
807.035	0.0136415
807.113	0.0137868
807.191	0.0139971
807.269	0.0138078
807.347	0.0140597
807.425	0.0140530
807.503	0.0143163
807.581	0.0142889
807.660	0.0143316
807.738	0.0144466
807.816	0.0142863
807.894	0.0143785
807.972	0.0145566
808.050	0.0145087
808.128	0.0144850
808.206	0.0146178
808.285	0.0148842
808.363	0.0148233
808.441	0.0147297
808.519	0.0149918
808.597	0.0149085
808.675	0.0148647
808.753	0.0150180
808.831	0.0151421
808.910	0.0150851
808.988	0.0151323
809.066	0.0150546
809.144	0.0152594
809.222	0.0151145
809.300	0.0151395
809.378	0.0150599
809.456	0.0152151
809.535	0.0151243
809.613	0.0150039
809.691	0.0149723
809.769	0.0148101
809.847	0.0148051
809.925	0.0147148
810.003	0.0144730
810.081	0.0143909
810.160	0.0141285
810.238	0.0141915
810.316	0.0141303
810.394	0.0140365
810.472	0.0138964
810.550	0.0137498
810.628	0.0138816
810.706	0.0138331
810.785	0.0137015
810.863	0.0137178
810.941	0.0138381
811.019	0.0138276
811.097	0.0136856
811.175	0.0136357
811.253	0.0136869
811.331	0.0138498
811.410	0.0138844
811.488	0.0138981
811.566	0.0138159
811.644	0.0139314
811.722	0.0138844
811.800	0.0139934
811.878	0.0140891
811.956	0.0141873
812.035	0.0140261
812.113	0.0141017
812.191	0.0142142
812.269	0.0142649
812.347	0.0142874
812.425	0.0144168
812.503	0.0144897
812.581	0.0145066
812.660	0.0145647
812.738	0.0146011
812.816	0.0146375
812.894	0.0146461
812.972	0.0147306
813.050	0.0148937
813.128	0.0148558
813.206	0.0148711
813.285	0.0149385
813.363	0.0150062
813.441	0.0148663
813.519	0.0150336
813.597	0.0151391
813.675	0.0150609
813.753	0.0149529
813.831	0.0150491
813.910	0.0150108
813.988	0.0151217
814.066	0.0149349
814.144	0.0148274
814.222	0.0149411
814.300	0.0147768
814.378	0.0147607
814.456	0.0146454
814.535	0.0146144
814.613	0.0146189
814.691	0.0145746
814.769	0.0144466
814.847	0.0145293
814.925	0.0142908
815.003	0.0143549
815.081	0.0141917
815.160	0.0142535
815.238	0.0144141
815.316	0.0142595
815.394	0.0142831
815.472	0.0141122
815.550	0.0141564
815.628	0.0142181
815.706	0.0143127
815.785	0.0142077
815.863	0.0140807
815.941	0.0142181
816.019	0.0143452
816.097	0.0142204
816.175	0.0142107
816.253	0.0142656
816.331	0.0142760
816.410	0.0142410
816.488	0.0142602
816.566	0.0142016
816.644	0.0143848
816.722	0.0145296
816.800	0.0142444
816.878	0.0142696
816.956	0.0142761
817.035	0.0144111
817.113	0.0143706
817.191	0.0142645
817.269	0.0142345
817.347	0.0143681
817.425	0.0142838
817.503	0.0142830
817.581	0.0142853
817.660	0.0142124
817.738	0.0143234
817.816	0.0143532
817.894	0.0142918
817.972	0.0142931
818.050	0.0143753
818.128	0.0143361
818.206	0.0144379
818.285	0.0145467
818.363	0.0144598
818.441	0.0144820
818.519	0.0144750
818.597	0.0145959
818.675	0.0145896
818.753	0.0146023
818.831	0.0146928
818.910	0.0146874
818.988	0.0145798
819.066	0.0145245
819.144	0.0146668
819.222	0.0145636
819.300	0.0146888
819.378	0.0146708
819.456	0.0146134
819.535	0.0146853
819.613	0.0146264
819.691	0.0145644
819.769	0.0145433
819.847	0.0145410
819.925	0.0145456
820.003	0.0144896
820.081	0.0145637
820.160	0.0145957
820.238	0.0146316
820.316	0.0144063
820.394	0.0145274
820.472	0.0145615
820.550	0.0146175
820.628	0.0145103
820.706	0.0144978
820.785	0.0145843
820.863	0.0144642
820.941	0.0145412
821.019	0.0144393
821.097	0.0144413
821.175	0.0145112
821.253	0.0143813
821.331	0.0144134
821.410	0.0143347
821.488	0.0141998
821.566	0.0142644
821.644	0.0141843
821.722	0.0142294
821.800	0.0141692
821.878	0.0140508
821.956	0.0140646
822.035	0.0140243
822.113	0.0140298
822.191	0.0140796
822.269	0.0140134
822.347	0.0141116
822.425	0.0140181
822.503	0.0139823
822.581	0.0140538
822.660	0.0142343
822.738	0.0142597
822.816	0.0143825
822.894	0.0143518
822.972	0.0143424
823.050	0.0144712
823.128	0.0144801
823.206	0.0145174
823.285	0.0144968
823.363	0.0146415
823.441	0.0145971
823.519	0.0146693
823.597	0.0146996
823.675	0.0147465
823.753	0.0146711
823.831	0.0145460
823.910	0.0146843
823.988	0.0147800
824.066	0.0149176
824.144	0.0149815
824.222	0.0148026
824.300	0.0147514
824.378	0.0148035
824.456	0.0147903
824.535	0.0146619
824.613	0.0147935
824.691	0.0146806
824.769	0.0146229
824.847	0.0146083
824.925	0.0145531
825.003	0.0144738
825.081	0.0144003
825.160	0.0144961
825.238	0.0144425
825.316	0.0143948
825.394	0.0143115
825.472	0.0142138
825.550	0.0142642
825.628	0.0142428
825.706	0.0140891
825.785	0.0141219
825.863	0.0140609
825.941	0.0141181
826.019	0.0140769
826.097	0.0140879
826.175	0.0141930
826.253	0.0140973
826.331	0.0141209
826.410	0.0141549
826.488	0.0141320
826.566	0.0141384
826.644	0.0141225
826.722	0.0141194
826.800	0.0141509
826.878	0.0140665
826.956	0.0142590
827.035	0.0142742
827.113	0.0141817
827.191	0.0142796
827.269	0.0143511
827.347	0.0143517
827.425	0.0145176
827.503	0.0146116
827.581	0.0145393
827.660	0.0146623
827.738	0.0147212
827.816	0.0147172
827.894	0.0148636
827.972	0.0147845
828.050	0.0148299
828.128	0.0149185
828.206	0.0146819
828.285	0.0148666
828.363	0.0149304
828.441	0.0148515
828.519	0.0145547
828.597	0.0147639
828.675	0.0145880
828.753	0.0143111
828.831	0.0145454
828.910	0.0145109
828.988	0.0144258
829.066	0.0142658
829.144	0.0143066
829.222	0.0143291
829.300	0.0143128
829.378	0.0144002
829.456	0.0143423
829.535	0.0143025
829.613	0.0144912
829.691	0.0143977
829.769	0.0144397
829.847	0.0144073
829.925	0.0144991
830.003	0.0146137
830.081	0.0146333
830.160	0.0146236
830.238	0.0148420
830.316	0.0147540
830.394	0.0146368
830.472	0.0146948
830.550	0.0148299
830.628	0.0145895
830.706	0.0145355
830.785	0.0145563
830.863	0.0145531
830.941	0.0144166
831.019	0.0143718
831.097	0.0143023
831.175	0.0142522
831.253	0.0142993
831.331	0.0140263
831.410	0.0140296
831.488	0.0141264
831.566	0.0140823
831.644	0.0142075
831.722	0.0140601
831.800	0.0141029
831.878	0.0140720
831.956	0.0140962
832.035	0.0141448
832.113	0.0141369
832.191	0.0142075
832.269	0.0141608
832.347	0.0141689
832.425	0.0143149
832.503	0.0144445
832.581	0.0144038
832.660	0.0144492
832.738	0.0143772
832.816	0.0143221
832.894	0.0144238
832.972	0.0145007
833.050	0.0144816
833.128	0.0145731
833.206	0.0146301
833.285	0.0146403
833.363	0.0146646
833.441	0.0147916
833.519	0.0147488
833.597	0.0147984
833.675	0.0149010
833.753	0.0149556
833.831	0.0150216
833.910	0.0149516
833.988	0.0150291
834.066	0.0150121
834.144	0.0149164
834.222	0.0151772
834.300	0.0149609
834.378	0.0149395
834.456	0.0150254
834.535	0.0149857
834.613	0.0149133
834.691	0.0148100
834.769	0.0149146
834.847	0.0148635
834.925	0.0146584
835.003	0.0146027
835.081	0.0146127
835.160	0.0146536
835.238	0.0146864
835.316	0.0144731
835.394	0.0143795
835.472	0.0143339
835.550	0.0142596
835.628	0.0142928
835.706	0.0140897
835.785	0.0139587
835.863	0.0140244
835.941	0.0140620
836.019	0.0140679
836.097	0.0138083
836.175	0.0137382
836.253	0.0136998
836.331	0.0137577
836.410	0.0137485
836.488	0.0136696
836.566	0.0137973
836.644	0.0137370
836.722	0.0138742
836.800	0.0139119
836.878	0.0138966
836.956	0.0138316
837.035	0.0139783
837.113	0.0139220
837.191	0.0139008
837.269	0.0140068
837.347	0.0140050
837.425	0.0140595
837.503	0.0142533
837.581	0.0143640
837.660	0.0143944
837.738	0.0144379
837.816	0.0144668
837.894	0.0146437
837.972	0.0147202
838.050	0.0147817
838.128	0.0147803
838.206	0.0148514
838.285	0.0147964
838.363	0.0149689
838.441	0.0150355
838.519	0.0149528
838.597	0.0149475
838.675	0.0149709
838.753	0.0149715
838.831	0.0149780
838.910	0.0149686
838.988	0.0150774
839.066	0.0149842
839.144	0.0150109
839.222	0.0150622
839.300	0.0150687
839.378	0.0148286
839.456	0.0148022
839.535	0.0147665
839.613	0.0146201
839.691	0.0146996
839.769	0.0146552
839.847	0.0145923
839.925	0.0145407
840.003	0.0145171
840.081	0.0146097
840.160	0.0146062
840.238	0.0144773
840.316	0.0143514
840.394	0.0144708
840.472	0.0143153
840.550	0.0143496
840.628	0.0143017
840.706	0.0143792
840.785	0.0143433
840.863	0.0141564
840.941	0.0141050
841.019	0.0141549
841.097	0.0142084
841.175	0.0139466
841.253	0.0138712
841.331	0.0138110
841.410	0.0138670
841.488	0.0140021
841.566	0.0139081
841.644	0.0138174
841.722	0.0138415
841.800	0.0139735
841.878	0.0138910
841.956	0.0139896
842.035	0.0141939
842.113	0.0141513
842.191	0.0141166
842.269	0.0142503
842.347	0.0144673
842.425	0.0143217
842.503	0.0142525
842.581	0.0143267
842.660	0.0144159
842.738	0.0143861
842.816	0.0144428
842.894	0.0145524
842.972	0.0144857
843.050	0.0144376
843.128	0.0144989
843.206	0.0144437
843.285	0.0145206
843.363	0.0146227
843.441	0.0146661
843.519	0.0145377
843.597	0.0144435
843.675	0.0144439
843.753	0.0144418
843.831	0.0144904
843.910	0.0143905
843.988	0.0145408
844.066	0.0144920
844.144	0.0145451
844.222	0.0147075
844.300	0.0146290
844.378	0.0147535
844.456	0.0146175
844.535	0.0146669
844.613	0.0146240
844.691	0.0147579
844.769	0.0147439
844.847	0.0145830
844.925	0.0146598
845.003	0.0146622
845.081	0.0145166
845.160	0.0144525
845.238	0.0144028
845.316	0.0143968
845.394	0.0145634
845.472	0.0144855
845.550	0.0144693
845.628	0.0143828
845.706	0.0144207
845.785	0.0144401
845.863	0.0143150
845.941	0.0142839
846.019	0.0144363
846.097	0.0143799
846.175	0.0142331
846.253	0.0143311
846.331	0.0141813
846.410	0.0142780
846.488	0.0142527
846.566	0.0143439
846.644	0.0141605
846.722	0.0141183
846.800	0.0142265
846.878	0.0141672
846.956	0.0140054
847.035	0.0141738
847.113	0.0141851
847.191	0.0142045
847.269	0.0140343
847.347	0.0142049
847.425	0.0143069
847.503	0.0142645
847.581	0.0143664
847.660	0.0142984
847.738	0.0144505
847.816	0.0145913
847.894	0.0144598
847.972	0.0144009
848.050	0.0144185
848.128	0.0145223
848.206	0.0146392
848.285	0.0146387
848.363	0.0145167
848.441	0.0144086
848.519	0.0145692
848.597	0.0145967
848.675	0.0146853
848.753	0.0146249
848.831	0.0145136
848.910	0.0145603
848.988	0.0145212
849.066	0.0144978
849.144	0.0145407
849.222	0.0145348
849.300	0.0144283
849.378	0.0144117
849.456	0.0144904
849.535	0.0142172
849.613	0.0143405
849.691	0.0143486
849.769	0.0142746
849.847	0.0141538
849.925	0.0142757
850.003	0.0142014
850.081	0.0142908
850.160	0.0144655
850.238	0.0144593
850.316	0.0144149
850.394	0.0144250
850.472	0.0145061
850.550	0.0147489
850.628	0.0145245
850.706	0.0145473
850.785	0.0146329
850.863	0.0147192
850.941	0.0146968
851.019	0.0146172
851.097	0.0146646
851.175	0.0146117
851.253	0.0146885
851.331	0.0144822
851.410	0.0144219
851.488	0.0144350
851.566	0.0143308
851.644	0.0143282
851.722	0.0143070
851.800	0.0143188
851.878	0.0144150
851.956	0.0144465
852.035	0.0143757
852.113	0.0142247
852.191	0.0143728
852.269	0.0144320
852.347	0.0143263
852.425	0.0143193
852.503	0.0143084
852.581	0.0143695
852.660	0.0144721
852.738	0.0144302
852.816	0.0143083
852.894	0.0143779
852.972	0.0145090
853.050	0.0144595
853.128	0.0145412
853.206	0.0144095
853.285	0.0144957
853.363	0.0145806
853.441	0.0144244
853.519	0.0144967
853.597	0.0144907
853.675	0.0144846
853.753	0.0144701
853.831	0.0146354
853.910	0.0146317
853.988	0.0146378
854.066	0.0145177
854.144	0.0145922
854.222	0.0146472
854.300	0.0145127
854.378	0.0144204
854.456	0.0143399
854.535	0.0143346
854.613	0.0145016
854.691	0.0144949
854.769	0.0144133
854.847	0.0144456
854.925	0.0145068
855.003	0.0145257
855.081	0.0145134
855.160	0.0145948
855.238	0.0145327
855.316	0.0144175
855.394	0.0145956
855.472	0.0147341
855.550	0.0145692
855.628	0.0144423
855.706	0.0144473
855.785	0.0145770
855.863	0.0144852
855.941	0.0145160
856.019	0.0145522
856.097	0.0144698
856.175	0.0142410
856.253	0.0144870
856.331	0.0143021
856.410	0.0143198
856.488	0.0144115
856.566	0.0143130
856.644	0.0142738
856.722	0.0143575
856.800	0.0144135
856.878	0.0143178
856.956	0.0143340
857.035	0.0144246
857.113	0.0143727
857.191	0.0144861
857.269	0.0143983
857.347	0.0142926
857.425	0.0144203
857.503	0.0144202
857.581	0.0144617
857.660	0.0144648
857.738	0.0144627
857.816	0.0143152
857.894	0.0143594
857.972	0.0143962
858.050	0.0145139
858.128	0.0143552
858.206	0.0143581
858.285	0.0143582
858.363	0.0143906
858.441	0.0144314
858.519	0.0142792
858.597	0.0143151
858.675	0.0142523
858.753	0.0143726
858.831	0.0143203
858.910	0.0143897
858.988	0.0144984
859.066	0.0144138
859.144	0.0143900
859.222	0.0143259
859.300	0.0143620
859.378	0.0144084
859.456	0.0143712
859.535	0.0143835
859.613	0.0143612
859.691	0.0145306
859.769	0.0144509
859.847	0.0143227
859.925	0.0143448
860.003	0.0144556
860.081	0.0144001
860.160	0.0145470
860.238	0.0145774
860.316	0.0145702
860.394	0.0146243
860.472	0.0145138
860.550	0.0144400
860.628	0.0144301
860.706	0.0145605
860.785	0.0145143
860.863	0.0146258
860.941	0.0145729
861.019	0.0145887
861.097	0.0146162
861.175	0.0146107
861.253	0.0144892
861.331	0.0145301
861.410	0.0147045
861.488	0.0146409
861.566	0.0144685
861.644	0.0145009
861.722	0.0144634
861.800	0.0143938
861.878	0.0145380
861.956	0.0145278
862.035	0.0145161
862.113	0.0144432
862.191	0.0144829
862.269	0.0143693
862.347	0.0143684
862.425	0.0143616
862.503	0.0142905
862.581	0.0143954
862.660	0.0143944
862.738	0.0143312
862.816	0.0143063
862.894	0.0143698
862.972	0.0144077
863.050	0.0145182
863.128	0.0143951
863.206	0.0143758
863.285	0.0143304
863.363	0.0143692
863.441	0.0144233
863.519	0.0143663
863.597	0.0142775
863.675	0.0143645
863.753	0.0143128
863.831	0.0143565
863.910	0.0142303
863.988	0.0142461
864.066	0.0143978
864.144	0.0142081
864.222	0.0141397
864.300	0.0142856
864.378	0.0143226
864.456	0.0142124
864.535	0.0143112
864.613	0.0143742
864.691	0.0143250
864.769	0.0143059
864.847	0.0143663
864.925	0.0143626
865.003	0.0143075
865.081	0.0144274
865.160	0.0144826
865.238	0.0146761
865.316	0.0144816
865.394	0.0146503
865.472	0.0145715
865.550	0.0146183
865.628	0.0145721
865.706	0.0146970
865.785	0.0146572
865.863	0.0145238
865.941	0.0145302
866.019	0.0144435
866.097	0.0145194
866.175	0.0144451
866.253	0.0144350
866.331	0.0144865
866.410	0.0144753
866.488	0.0143703
866.566	0.0144634
866.644	0.0144054
866.722	0.0142727
866.800	0.0143029
866.878	0.0143855
866.956	0.0143332
867.035	0.0143267
867.113	0.0143934
867.191	0.0143049
867.269	0.0144019
867.347	0.0144207
867.425	0.0144093
867.503	0.0145873
867.581	0.0143954
867.660	0.0144046
867.738	0.0144903
867.816	0.0145943
867.894	0.0145447
867.972	0.0145432
868.050	0.0146072
868.128	0.0147133
868.206	0.0146496
868.285	0.0147430
868.363	0.0145741
868.441	0.0144330
868.519	0.0145628
868.597	0.0144584
868.675	0.0145573
868.753	0.0144724
868.831	0.0145017
868.910	0.0146230
868.988	0.0147621
869.066	0.0145464
869.144	0.0145284
869.222	0.0145869
869.300	0.0145708
869.378	0.0144585
869.456	0.0145046
869.535	0.0145094
869.613	0.0146291
869.691	0.0145038
869.769	0.0144212
869.847	0.0144917
869.925	0.0144535
870.003	0.0144217
870.081	0.0144431
870.160	0.0144014
870.238	0.0143010
870.316	0.0143079
870.394	0.0142319
870.472	0.0140741
870.550	0.0141280
870.628	0.0141050
870.706	0.0141531
870.785	0.0140479
870.863	0.0140316
870.941	0.0141286
871.019	0.0141285
871.097	0.0141540
871.175	0.0139622
871.253	0.0140302
871.331	0.0141123
871.410	0.0140287
871.488	0.0142484
871.566	0.0141139
871.644	0.0140893
871.722	0.0141888
871.800	0.0142934
871.878	0.0142064
871.956	0.0142911
872.035	0.0145078
872.113	0.0143825
872.191	0.0143671
872.269	0.0144877
872.347	0.0143674
872.425	0.0144505
872.503	0.0144270
872.581	0.0146281
872.660	0.0146346
872.738	0.0144332
872.816	0.0146243
872.894	0.0147320
872.972	0.0146564
873.050	0.0146621
873.128	0.0148430
873.206	0.0147809
873.285	0.0147444
873.363	0.0146313
873.441	0.0147884
873.519	0.0148390
873.597	0.0148553
873.675	0.0147427
873.753	0.0148666
873.831	0.0148215
873.910	0.0148499
873.988	0.0147834
874.066	0.0146455
874.144	0.0147081
874.222	0.0147501
874.300	0.0146893
874.378	0.0146825
874.456	0.0145363
874.535	0.0145377
874.613	0.0145825
874.691	0.0146552
874.769	0.0144279
874.847	0.0144077
874.925	0.0143730
875.003	0.0144853
875.081	0.0144717
875.160	0.0143994
875.238	0.0144460
875.316	0.0145425
875.394	0.0144552
875.472	0.0143391
875.550	0.0143767
875.628	0.0145419
875.706	0.0143385
875.785	0.0144621
875.863	0.0143619
875.941	0.0143217
876.019	0.0143364
876.097	0.0142708
876.175	0.0141763
876.253	0.0142064
876.331	0.0143195
876.410	0.0142855
876.488	0.0143275
876.566	0.0143008
876.644	0.0141858
876.722	0.0143163
876.800	0.0143794
876.878	0.0142787
876.956	0.0144302
877.035	0.0143639
877.113	0.0143787
877.191	0.0143826
877.269	0.0142976
877.347	0.0143241
877.425	0.0144807
877.503	0.0143829
877.581	0.0145121
877.660	0.0144091
877.738	0.0143903
877.816	0.0143025
877.894	0.0144421
877.972	0.0144260
878.050	0.0142956
878.128	0.0144789
878.206	0.0144891
878.285	0.0145218
878.363	0.0144741
878.441	0.0146076
878.519	0.0145650
878.597	0.0144448
878.675	0.0145712
878.753	0.0144787
878.831	0.0146219
878.910	0.0146082
878.988	0.0145094
879.066	0.0146692
879.144	0.0145309
879.222	0.0145493
879.300	0.0145657
879.378	0.0145718
879.456	0.0145457
879.535	0.0146155
879.613	0.0146231
879.691	0.0145546
879.769	0.0145960
879.847	0.0145738
879.925	0.0144231
880.003	0.0147482
880.081	0.0144490
880.160	0.0143615
880.238	0.0144627
880.316	0.0144511
880.394	0.0145253
880.472	0.0145106
880.550	0.0145004
880.628	0.0143824
880.706	0.0143443
880.785	0.0145205
880.863	0.0145312
880.941	0.0144514
881.019	0.0143748
881.097	0.0144532
881.175	0.0143610
881.253	0.0143758
881.331	0.0142771
881.410	0.0144377
881.488	0.0143828
881.566	0.0143150
881.644	0.0145083
881.722	0.0143312
881.800	0.0142452
881.878	0.0142914
881.956	0.0144028
882.035	0.0144512
882.113	0.0142268
882.191	0.0142435
882.269	0.0142448
882.347	0.0142222
882.425	0.0142557
882.503	0.0141586
882.581	0.0143219
882.660	0.0142169
882.738	0.0142456
882.816	0.0142139
882.894	0.0142651
882.972	0.0141695
883.050	0.0142227
883.128	0.0142447
883.206	0.0142011
883.285	0.0142098
883.363	0.0143101
883.441	0.0144135
883.519	0.0144167
883.597	0.0144289
883.675	0.0144596
883.753	0.0145004
883.831	0.0145950
883.910	0.0146119
883.988	0.0145779
884.066	0.0145542
884.144	0.0146704
884.222	0.0146296
884.300	0.0145735
884.378	0.0145270
884.456	0.0146230
884.535	0.0147353
884.613	0.0144690
884.691	0.0147108
884.769	0.0146544
884.847	0.0146826
884.925	0.0146434
885.003	0.0146165
885.081	0.0145728
885.160	0.0146170
885.238	0.0146301
885.316	0.0145996
885.394	0.0145915
885.472	0.0144782
885.550	0.0145667
885.628	0.0144952
885.706	0.0143898
885.785	0.0144897
885.863	0.0143138
885.941	0.0142677
886.019	0.0145335
886.097	0.0145065
886.175	0.0144880
886.253	0.0145000
886.331	0.0144250
886.410	0.0144793
886.488	0.0144645
886.566	0.0144748
886.644	0.0144028
886.722	0.0143459
886.800	0.0143723
886.878	0.0143375
886.956	0.0144596
887.035	0.0143987
887.113	0.0143301
887.191	0.0144339
887.269	0.0141809
887.347	0.0143400
887.425	0.0143307
887.503	0.0142766
887.581	0.0142426
887.660	0.0142730
887.738	0.0141847
887.816	0.0141229
887.894	0.0142213
887.972	0.0142127
888.050	0.0142980
888.128	0.0142223
888.206	0.0142297
888.285	0.0141767
888.363	0.0142430
888.441	0.0141550
888.519	0.0141926
888.597	0.0141489
888.675	0.0143512
888.753	0.0143759
888.831	0.0144432
888.910	0.0143587
888.988	0.0145026
889.066	0.0144303
889.144	0.0144209
889.222	0.0144944
889.300	0.0145554
889.378	0.0145019
889.456	0.0145164
889.535	0.0144981
889.613	0.0145055
889.691	0.0146159
889.769	0.0145109
889.847	0.0145902
889.925	0.0145144
890.003	0.0144649
890.081	0.0145687
890.160	0.0145898
890.238	0.0146230
890.316	0.0145637
890.394	0.0143916
890.472	0.0145699
890.550	0.0145982
890.628	0.0144701
890.706	0.0146076
890.785	0.0145915
890.863	0.0145674
890.941	0.0145292
891.019	0.0145860
891.097	0.0145386
891.175	0.0146076
891.253	0.0144958
891.331	0.0144022
891.410	0.0145422
891.488	0.0143643
891.566	0.0143149
891.644	0.0143852
891.722	0.0143284
891.800	0.0143186
891.878	0.0144898
891.956	0.0144306
892.035	0.0144975
892.113	0.0143047
892.191	0.0145148
892.269	0.0144491
892.347	0.0143783
892.425	0.0145872
892.503	0.0144342
892.581	0.0142816
892.660	0.0143948
892.738	0.0143351
892.816	0.0143418
892.894	0.0142308
892.972	0.0144105
893.050	0.0143681
893.128	0.0142804
893.206	0.0142473
893.285	0.0142012
893.363	0.0142500
893.441	0.0142020
893.519	0.0142384
893.597	0.0142206
893.675	0.0142323
893.753	0.0141743
893.831	0.0141816
893.910	0.0140850
893.988	0.0140530
894.066	0.0141979
894.144	0.0142082
894.222	0.0141418
894.300	0.0141125
894.378	0.0142600
894.456	0.0142446
894.535	0.0144045
894.613	0.0144722
894.691	0.0146223
894.769	0.0145694
894.847	0.0148757
894.925	0.0146311
895.003	0.0147043
895.081	0.0147108
895.160	0.0146776
895.238	0.0146559
895.316	0.0148127
895.394	0.0148276
895.472	0.0148146
895.550	0.0147617
895.628	0.0148246
895.706	0.0146822
895.785	0.0146304
895.863	0.0148336
895.941	0.0147484
896.019	0.0145670
896.097	0.0145282
896.175	0.0144945
896.253	0.0144691
896.331	0.0144944
896.410	0.0143052
896.488	0.0142746
896.566	0.0143475
896.644	0.0141658
896.722	0.0143058
896.800	0.0143705
896.878	0.0141508
896.956	0.0142474
897.035	0.0142599
897.113	0.0142890
897.191	0.0141869
897.269	0.0141910
897.347	0.0142312
897.425	0.0141825
897.503	0.0143524
897.581	0.0140581
897.660	0.0140920
897.738	0.0140410
897.816	0.0140772
897.894	0.0141843
897.972	0.0141512
898.050	0.0143045
898.128	0.0145029
898.206	0.0147055
898.285	0.0148097
898.363	0.0148295
898.441	0.0150330
898.519	0.0148981
898.597	0.0150652
898.675	0.0149830
898.753	0.0150479
898.831	0.0149200
898.910	0.0147707
898.988	0.0146484
899.066	0.0147645
899.144	0.0146029
899.222	0.0143964
899.300	0.0144311
899.378	0.0143967
899.456	0.0143398
899.535	0.0142958
899.613	0.0141752
899.691	0.0142661
899.769	0.0140865
899.847	0.0142380
899.925	0.0141605
900.003	0.0140900
900.081	0.0141684
900.160	0.0141605
900.238	0.0140633
900.316	0.0140525
900.394	0.0140556
900.472	0.0139937
900.550	0.0140673
900.628	0.0142121
900.706	0.0141553
900.785	0.0141586
900.863	0.0141728
900.941	0.0142220
901.019	0.0141805
901.097	0.0141543
901.175	0.0141481
901.253	0.0140073
901.331	0.0140511
901.410	0.0139819
901.488	0.0139516
901.566	0.0139948
901.644	0.0140247
901.722	0.0140206
901.800	0.0140882
901.878	0.0142609
901.956	0.0144598
902.035	0.0144518
902.113	0.0147265
902.191	0.0148837
902.269	0.0149422
902.347	0.0149073
902.425	0.0151219
902.503	0.0151919
902.581	0.0151150
902.660	0.0152868
902.738	0.0152409
902.816	0.0151420
902.894	0.0151240
902.972	0.0150800
903.050	0.0150644
903.128	0.0150353
903.206	0.0149968
903.285	0.0150053
903.363	0.0148308
903.441	0.0147662
903.519	0.0148144
903.597	0.0146993
903.675	0.0145539
903.753	0.0145480
903.831	0.0143045
903.910	0.0142604
903.988	0.0144131
904.066	0.0142871
904.144	0.0140984
904.222	0.0141314
904.300	0.0142982
904.378	0.0142177
904.456	0.0142490
904.535	0.0142066
904.613	0.0142802
904.691	0.0142432
904.769	0.0141230
904.847	0.0143343
904.925	0.0143420
905.003	0.0141177
905.081	0.0140512
905.160	0.0142134
905.238	0.0140250
905.316	0.0138405
905.394	0.0139601
905.472	0.0139822
905.550	0.0139748
905.628	0.0140188
905.706	0.0139649
905.785	0.0141223
905.863	0.0141660
905.941	0.0143163
906.019	0.0142655
906.097	0.0143521
906.175	0.0145805
906.253	0.0145670
906.331	0.0144609
906.410	0.0143314
906.488	0.0144934
906.566	0.0143450
906.644	0.0142429
906.722	0.0143802
906.800	0.0144978
906.878	0.0143327
906.956	0.0143951
907.035	0.0143439
907.113	0.0143469
907.191	0.0143779
907.269	0.0143970
907.347	0.0144324
907.425	0.0145111
907.503	0.0146023
907.581	0.0145083
907.660	0.0144764
907.738	0.0145190
907.816	0.0143972
907.894	0.0144698
907.972	0.0144193
908.050	0.0143806
908.128	0.0144334
908.206	0.0144722
908.285	0.0145129
908.363	0.0144564
908.441	0.0146058
908.519	0.0146331
908.597	0.0145741
908.675	0.0147631
908.753	0.0148093
908.831	0.0147383
908.910	0.0147478
908.988	0.0147385
909.066	0.0147264
909.144	0.0146284
909.222	0.0147129
909.300	0.0145427
909.378	0.0144365
909.456	0.0141783
909.535	0.0141915
909.613	0.0141462
909.691	0.0139986
909.769	0.0140594
909.847	0.0139911
909.925	0.0140546
910.003	0.0139986
910.081	0.0142088
910.160	0.0142475
910.238	0.0142697
910.316	0.0144025
910.394	0.0143824
910.472	0.0144284
910.550	0.0144236
910.628	0.0146095
910.706	0.0144397
910.785	0.0145532
910.863	0.0145650
910.941	0.0146140
911.019	0.0143839
911.097	0.0144199
911.175	0.0145847
911.253	0.0146862
911.331	0.0145461
911.410	0.0146436
911.488	0.0146634
911.566	0.0144856
911.644	0.0145875
911.722	0.0145628
911.800	0.0146509
911.878	0.0145396
911.956	0.0144277
912.035	0.0146246
912.113	0.0145680
912.191	0.0144561
912.269	0.0144231
912.347	0.0145528
912.425	0.0143845
912.503	0.0144170
912.581	0.0144893
912.660	0.0144699
912.738	0.0144991
912.816	0.0143639
912.894	0.0144932
912.972	0.0146295
913.050	0.0145966
913.128	0.0146063
913.206	0.0147273
913.285	0.0146616
913.363	0.0146889
913.441	0.0147102
913.519	0.0144717
913.597	0.0145506
913.675	0.0145403
913.753	0.0144180
913.831	0.0144505
913.910	0.0143756
913.988	0.0142475
914.066	0.0142484
914.144	0.0141801
914.222	0.0141248
914.300	0.0142283
914.378	0.0143374
914.456	0.0141772
914.535	0.0143475
914.613	0.0142638
914.691	0.0142274
914.769	0.0143419
914.847	0.0142747
914.925	0.0143134
915.003	0.0144173
915.081	0.0143106
915.160	0.0143553
915.238	0.0143155
915.316	0.0142642
915.394	0.0142712
915.472	0.0142951
915.550	0.0142371
915.628	0.0142065
915.706	0.0141608
915.785	0.0141727
915.863	0.0142225
915.941	0.0143163
916.019	0.0141946
916.097	0.0144305
916.175	0.0144094
916.253	0.0143401
916.331	0.0143134
916.410	0.0143746
916.488	0.0143948
916.566	0.0143761
916.644	0.0143281
916.722	0.0143771
916.800	0.0145297
916.878	0.0143716
916.956	0.0143746
917.035	0.0145523
917.113	0.0146320
917.191	0.0146160
917.269	0.0144841
917.347	0.0145460
917.425	0.0147537
917.503	0.0147331
917.581	0.0147227
917.660	0.0146757
917.738	0.0148845
917.816	0.0149709
917.894	0.0149111
917.972	0.0149827
918.050	0.0149142
918.128	0.0148834
918.206	0.0149689
918.285	0.0148521
918.363	0.0147660
918.441	0.0147886
918.519	0.0145587
918.597	0.0146684
918.675	0.0146141
918.753	0.0143971
918.831	0.0144983
918.910	0.0142628
918.988	0.0143839
919.066	0.0142159
919.144	0.0142651
919.222	0.0142358
919.300	0.0140984
919.378	0.0141370
919.456	0.0141731
919.535	0.0142149
919.613	0.0142242
919.691	0.0141104
919.769	0.0141994
919.847	0.0142759
919.925	0.0141566
920.003	0.0141472
920.081	0.0142757
920.160	0.0142929
920.238	0.0143103
920.316	0.0142075
920.394	0.0143314
920.472	0.0141872
920.550	0.0141804
920.628	0.0143552
920.706	0.0142904
920.785	0.0140742
920.863	0.0141990
920.941	0.0141676
921.019	0.0141167
921.097	0.0142799
921.175	0.0140677
921.253	0.0141365
921.331	0.0141340
921.410	0.0141591
921.488	0.0140964
921.566	0.0140309
921.644	0.0142992
921.722	0.0142122
921.800	0.0143027
921.878	0.0143310
921.956	0.0144215
922.035	0.0144363
922.113	0.0143829
922.191	0.0145626
922.269	0.0146306
922.347	0.0146433
922.425	0.0147400
922.503	0.0147965
922.581	0.0148721
922.660	0.0149049
922.738	0.0150510
922.816	0.0150188
922.894	0.0150703
922.972	0.0150762
923.050	0.0149633
923.128	0.0149641
923.206	0.0150555
923.285	0.0148163
923.363	0.0149246
923.441	0.0147163
923.519	0.0147001
923.597	0.0145200
923.675	0.0146264
923.753	0.0145176
923.831	0.0143934
923.910	0.0143317
923.988	0.0142268
924.066	0.0142683
924.144	0.0142789
924.222	0.0142155
924.300	0.0142808
924.378	0.0140930
924.456	0.0142223
924.535	0.0142696
924.613	0.0140376
924.691	0.0140385
924.769	0.0139462
924.847	0.0139802
924.925	0.0139801
925.003	0.0139507
925.081	0.0138472
925.160	0.0138829
925.238	0.0138281
925.316	0.0138247
925.394	0.0139413
925.472	0.0138993
925.550	0.0140333
925.628	0.0139620
925.706	0.0139682
925.785	0.0140717
925.863	0.0141805
925.941	0.0141996
926.019	0.0143438
926.097	0.0143075
926.175	0.0144058
926.253	0.0146669
926.331	0.0145689
926.410	0.0145788
926.488	0.0145891
926.566	0.0145557
926.644	0.0146018
926.722	0.0146176
926.800	0.0146107
926.878	0.0146266
926.956	0.0145232
927.035	0.0145849
927.113	0.0146855
927.191	0.0146082
927.269	0.0145773
927.347	0.0147632
927.425	0.0145806
927.503	0.0146075
927.581	0.0146557
927.660	0.0147335
927.738	0.0148276
927.816	0.0147723
927.894	0.0146886
927.972	0.0146681
928.050	0.0147528
928.128	0.0146118
928.206	0.0146260
928.285	0.0145162
928.363	0.0145617
928.441	0.0144639
928.519	0.0145117
928.597	0.0145278
928.675	0.0144151
928.753	0.0143859
928.831	0.0142382
928.910	0.0143683
928.988	0.0142866
929.066	0.0142748
929.144	0.0141375
929.222	0.0140150
929.300	0.0139606
929.378	0.0139858
929.456	0.0140492
929.535	0.0139967
929.613	0.0139650
929.691	0.0139412
929.769	0.0140130
929.847	0.0140160
929.925	0.0141021
930.003	0.0140468
930.081	0.0141535
930.160	0.0140845
930.238	0.0140759
930.316	0.0142142
930.394	0.0141628
930.472	0.0142255
930.550	0.0142007
930.628	0.0143664
930.706	0.0144246
930.785	0.0145141
930.863	0.0145673
930.941	0.0145195
931.019	0.0145617
931.097	0.0146116
931.175	0.0146052
931.253	0.0146494
931.331	0.0145742
931.410	0.0146947
931.488	0.0146647
931.566	0.0146519
931.644	0.0147331
931.722	0.0146467
931.800	0.0146313
931.878	0.0147710
931.956	0.0146317
932.035	0.0146209
932.113	0.0147413
932.191	0.0146722
932.269	0.0145919
932.347	0.0147250
932.425	0.0148109
932.503	0.0147167
932.581	0.0147384
932.660	0.0146912
932.738	0.0147190
932.816	0.0145229
932.894	0.0146452
932.972	0.0146673
933.050	0.0144675
933.128	0.0145549
933.206	0.0146043
933.285	0.0144286
933.363	0.0145513
933.441	0.0144772
933.519	0.0146095
933.597	0.0144197
933.675	0.0144878
933.753	0.0144570
933.831	0.0144141
933.910	0.0143227
933.988	0.0142453
934.066	0.0143007
934.144	0.0143385
934.222	0.0143311
934.300	0.0144096
934.378	0.0143796
934.456	0.0143642
934.535	0.0144558
934.613	0.0144549
934.691	0.0144452
934.769	0.0145779
934.847	0.0145071
934.925	0.0144675
935.003	0.0144460
935.081	0.0144218
935.160	0.0144758
935.238	0.0144094
935.316	0.0145486
935.394	0.0146001
935.472	0.0144716
935.550	0.0144429
935.628	0.0143744
935.706	0.0143410
935.785	0.0143336
935.863	0.0144226
935.941	0.0143159
936.019	0.0141009
936.097	0.0143635
936.175	0.0142925
936.253	0.0143456
936.331	0.0143278
936.410	0.0143160
936.488	0.0142771
936.566	0.0143577
936.644	0.0142764
936.722	0.0142449
936.800	0.0143784
936.878	0.0142692
936.956	0.0143018
937.035	0.0144215
937.113	0.0143420
937.191	0.0143997
937.269	0.0144205
937.347	0.0144431
937.425	0.0143541
937.503	0.0144233
937.581	0.0143248
937.660	0.0145005
937.738	0.0144274
937.816	0.0144210
937.894	0.0145199
937.972	0.0144884
938.050	0.0144557
938.128	0.0145734
938.206	0.0146745
938.285	0.0146111
938.363	0.0145721
938.441	0.0145763
938.519	0.0146534
938.597	0.0147780
938.675	0.0148625
938.753	0.0148112
938.831	0.0146678
938.910	0.0147700
938.988	0.0146846
939.066	0.0146706
939.144	0.0146231
939.222	0.0145324
939.300	0.0144494
939.378	0.0144105
939.456	0.0144635
939.535	0.0144218
939.613	0.0144029
939.691	0.0143114
939.769	0.0144144
939.847	0.0143654
939.925	0.0142990
940.003	0.0142274
940.081	0.0143000
940.160	0.0141985
940.238	0.0140637
940.316	0.0140799
940.394	0.0139798
940.472	0.0142188
940.550	0.0141607
940.628	0.0140488
940.706	0.0142424
940.785	0.0140086
940.863	0.0140352
940.941	0.0140644
941.019	0.0142200
941.097	0.0141761
941.175	0.0144195
941.253	0.0144421
941.331	0.0143548
941.410	0.0144607
941.488	0.0143650
941.566	0.0144981
941.644	0.0145140
941.722	0.0145000
941.800	0.0146427
941.878	0.0146283
941.956	0.0147134
942.035	0.0146369
942.113	0.0146036
942.191	0.0146973
942.269	0.0145325
942.347	0.0146317
942.425	0.0146625
942.503	0.0146191
942.581	0.0146533
942.660	0.0146043
942.738	0.0145628
942.816	0.0145969
942.894	0.0145266
942.972	0.0146423
943.050	0.0146011
943.128	0.0143913
943.206	0.0144187
943.285	0.0145795
943.363	0.0146004
943.441	0.0146546
943.519	0.0145963
943.597	0.0145644
943.675	0.0145558
943.753	0.0145604
943.831	0.0145627
943.910	0.0144685
943.988	0.0144254
944.066	0.0145330
944.144	0.0145345
944.222	0.0145014
944.300	0.0144312
944.378	0.0144101
944.456	0.0143908
944.535	0.0143478
944.613	0.0143357
944.691	0.0144651
944.769	0.0142783
944.847	0.0141859
944.925	0.0141562
945.003	0.0142159
945.081	0.0142514
945.160	0.0142791
945.238	0.0141741
945.316	0.0142760
945.394	0.0143394
945.472	0.0142854
945.550	0.0142300
945.628	0.0142953
945.706	0.0142900
945.785	0.0143721
945.863	0.0143157
945.941	0.0144302
946.019	0.0143703
946.097	0.0144637
946.175	0.0144952
946.253	0.0144382
946.331	0.0144484
946.410	0.0144451
946.488	0.0143948
946.566	0.0144887
946.644	0.0144385
946.722	0.0142744
946.800	0.0144724
946.878	0.0144532
946.956	0.0142180
947.035	0.0144614
947.113	0.0145659
947.191	0.0143287
947.269	0.0143095
947.347	0.0144236
947.425	0.0145065
947.503	0.0144590
947.581	0.0144547
947.660	0.0145406
947.738	0.0145065
947.816	0.0145573
947.894	0.0145305
947.972	0.0145271
948.050	0.0144849
948.128	0.0143976
948.206	0.0144913
948.285	0.0145058
948.363	0.0144646
948.441	0.0142628
948.519	0.0144305
948.597	0.0146069
948.675	0.0144273
948.753	0.0145422
948.831	0.0146235
948.910	0.0145309
948.988	0.0145490
949.066	0.0143719
949.144	0.0143536
949.222	0.0143313
949.300	0.0144003
949.378	0.0144443
949.456	0.0142329
949.535	0.0142323
949.613	0.0142815
949.691	0.0142810
949.769	0.0141901
949.847	0.0143038
949.925	0.0142236
950.003	0.0142725
950.081	0.0142419
950.160	0.0143102
950.238	0.0143071
950.316	0.0144576
950.394	0.0142673
950.472	0.0143274
950.550	0.0145168
950.628	0.0144559
950.706	0.0143158
950.785	0.0143724
950.863	0.0144151
950.941	0.0144595
951.019	0.0143983
951.097	0.0143180
951.175	0.0142031
951.253	0.0143141
951.331	0.0143924
951.410	0.0143452
951.488	0.0144048
951.566	0.0142518
951.644	0.0142682
951.722	0.0141437
951.800	0.0140919
951.878	0.0140820
951.956	0.0141781
952.035	0.0141827
952.113	0.0140810
952.191	0.0140959
952.269	0.0141403
952.347	0.0142139
952.425	0.0142471
952.503	0.0142099
952.581	0.0142693
952.660	0.0141518
952.738	0.0141064
952.816	0.0144765
952.894	0.0143636
952.972	0.0143634
953.050	0.0144518
953.128	0.0144755
953.206	0.0144519
953.285	0.0144822
953.363	0.0145802
953.441	0.0145472
953.519	0.0145719
953.597	0.0146373
953.675	0.0146748
953.753	0.0146983
953.831	0.0147543
953.910	0.0147369
953.988	0.0147275
954.066	0.0148032
954.144	0.0148038
954.222	0.0147913
954.300	0.0147080
954.378	0.0147832
954.456	0.0147528
954.535	0.0147334
954.613	0.0147888
954.691	0.0148277
954.769	0.0147001
954.847	0.0146327
954.925	0.0148087
955.003	0.0146503
955.081	0.0144810
955.160	0.0146673
955.238	0.0146680
955.316	0.0146260
955.394	0.0144886
955.472	0.0144200
955.550	0.0143590
955.628	0.0143217
955.706	0.0145737
955.785	0.0142632
955.863	0.0141219
955.941	0.0141817
956.019	0.0141811
956.097	0.0141512
956.175	0.0140562
956.253	0.0139722
956.331	0.0139493
956.410	0.0139832
956.488	0.0140125
956.566	0.0139542
956.644	0.0140127
956.722	0.0140868
956.800	0.0141479
956.878	0.0142347
956.956	0.0141875
957.035	0.0143467
957.113	0.0143926
957.191	0.0143459
957.269	0.0142345
957.347	0.0143440
957.425	0.0143877
957.503	0.0144524
957.581	0.0145847
957.660	0.0144511
957.738	0.0145007
957.816	0.0145646
957.894	0.0145645
957.972	0.0146085
958.050	0.0146215
958.128	0.0146104
958.206	0.0147628
958.285	0.0146690
958.363	0.0146656
958.441	0.0145514
958.519	0.0146302
958.597	0.0148421
958.675	0.0147346
958.753	0.0148666
958.831	0.0148632
958.910	0.0146382
958.988	0.0146870
959.066	0.0146171
959.144	0.0148544
959.222	0.0147597
959.300	0.0146787
959.378	0.0146852
959.456	0.0146355
959.535	0.0146154
959.613	0.0146890
959.691	0.0145444
959.769	0.0144543
959.847	0.0144581
959.925	0.0144212
960.003	0.0143592
960.081	0.0143535
960.160	0.0143365
960.238	0.0143027
960.316	0.0143877
960.394	0.0141818
960.472	0.0141349
960.550	0.0142531
960.628	0.0142487
960.706	0.0143942
960.785	0.0142532
960.863	0.0142810
960.941	0.0142519
961.019	0.0143798
961.097	0.0143640
961.175	0.0143783
961.253	0.0143707
961.331	0.0145358
961.410	0.0145068
961.488	0.0144563
961.566	0.0145834
961.644	0.0145876
961.722	0.0144530
961.800	0.0144874
961.878	0.0144589
961.956	0.0144331
962.035	0.0143768
962.113	0.0143119
962.191	0.0142624
962.269	0.0141825
962.347	0.0141526
962.425	0.0142767
962.503	0.0142534
962.581	0.0142641
962.660	0.0142825
962.738	0.0143549
962.816	0.0143878
962.894	0.0145089
962.972	0.0145890
963.050	0.0144016
963.128	0.0145293
963.206	0.0145081
963.285	0.0146061
963.363	0.0146738
963.441	0.0146477
963.519	0.0146707
963.597	0.0147398
963.675	0.0148860
963.753	0.0147726
963.831	0.0147313
963.910	0.0147124
963.988	0.0146552
964.066	0.0145731
964.144	0.0145509
964.222	0.0146525
964.300	0.0145062
964.378	0.0144114
964.456	0.0144340
964.535	0.0142816
964.613	0.0143321
964.691	0.0142777
964.769	0.0143066
964.847	0.0142346
964.925	0.0142856
965.003	0.0142461
965.081	0.0141351
965.160	0.0143494
965.238	0.0144345
965.316	0.0143554
965.394	0.0144258
965.472	0.0144466
965.550	0.0145789
965.628	0.0144554
965.706	0.0144903
965.785	0.0147806
965.863	0.0146893
965.941	0.0147511
966.019	0.0145963
966.097	0.0146273
966.175	0.0145824
966.253	0.0147046
966.331	0.0147408
966.410	0.0146803
966.488	0.0147324
966.566	0.0145145
966.644	0.0147355
966.722	0.0145013
966.800	0.0143760
966.878	0.0144672
966.956	0.0145464
967.035	0.0146140
967.113	0.0143050
967.191	0.0143938
967.269	0.0143874
967.347	0.0142928
967.425	0.0144742
967.503	0.0144004
967.581	0.0144086
967.660	0.0141872
967.738	0.0143800
967.816	0.0143331
967.894	0.0140807
967.972	0.0143166
968.050	0.0143937
968.128	0.0142069
968.206	0.0141289
968.285	0.0141235
968.363	0.0140504
968.441	0.0141286
968.519	0.0140115
968.597	0.0140855
968.675	0.0141527
968.753	0.0142749
968.831	0.0142857
968.910	0.0142083
968.988	0.0142973
969.066	0.0142360
969.144	0.0143651
969.222	0.0142119
969.300	0.0143846
969.378	0.0146071
969.456	0.0145325
969.535	0.0144021
969.613	0.0145248
969.691	0.0145449
969.769	0.0146951
969.847	0.0146273
969.925	0.0147536
970.003	0.0147993
970.081	0.0147302
970.160	0.0148251
970.238	0.0147323
970.316	0.0147887
970.394	0.0147341
970.472	0.0147745
970.550	0.0147546
970.628	0.0148777
970.706	0.0147911
970.785	0.0147752
970.863	0.0147692
970.941	0.0146086
971.019	0.0145998
971.097	0.0145807
971.175	0.0146076
971.253	0.0146892
971.331	0.0147158
971.410	0.0146302
971.488	0.0145258
971.566	0.0147252
971.644	0.0146170
971.722	0.0147006
971.800	0.0146534
971.878	0.0145906
971.956	0.0146266
972.035	0.0146637
972.113	0.0144386
972.191	0.0143935
972.269	0.0143106
972.347	0.0143763
972.425	0.0144019
972.503	0.0141222
972.581	0.0142370
972.660	0.0141805
972.738	0.0142075
972.816	0.0140260
972.894	0.0139526
972.972	0.0140619
973.050	0.0140575
973.128	0.0139618
973.206	0.0138822
973.285	0.0140077
973.363	0.0141176
973.441	0.0138458
973.519	0.0140521
973.597	0.0141048
973.675	0.0138061
973.753	0.0142009
973.831	0.0141901
973.910	0.0141513
973.988	0.0142683
974.066	0.0141537
974.144	0.0142593
974.222	0.0141993
974.300	0.0144234
974.378	0.0143806
974.456	0.0144199
974.535	0.0144563
974.613	0.0143578
974.691	0.0145154
974.769	0.0145771
974.847	0.0147637
974.925	0.0146243
975.003	0.0145705
975.081	0.0147334
975.160	0.0147834
975.238	0.0147462
975.316	0.0148291
975.394	0.0148730
975.472	0.0148875
975.550	0.0148141
975.628	0.0148856
975.706	0.0148066
975.785	0.0148235
975.863	0.0149200
975.941	0.0149731
976.019	0.0149282
976.097	0.0147923
976.175	0.0147844
976.253	0.0147588
976.331	0.0145992
976.410	0.0145020
976.488	0.0144555
976.566	0.0145273
976.644	0.0144637
976.722	0.0143552
976.800	0.0143326
976.878	0.0142347
976.956	0.0142974
977.035	0.0143710
977.113	0.0141832
977.191	0.0141451
977.269	0.0141233
977.347	0.0141529
977.425	0.0141178
977.503	0.0141715
977.581	0.0142750
977.660	0.0143539
977.738	0.0141962
977.816	0.0142284
977.894	0.0141934
977.972	0.0143214
978.050	0.0144059
978.128	0.0143156
978.206	0.0142551
978.285	0.0143482
978.363	0.0144618
978.441	0.0143798
978.519	0.0143846
978.597	0.0144257
978.675	0.0143378
978.753	0.0141912
978.831	0.0142650
978.910	0.0143454
978.988	0.0142056
979.066	0.0140640
979.144	0.0141265
979.222	0.0142287
979.300	0.0142953
979.378	0.0143238
979.456	0.0143531
979.535	0.0143292
979.613	0.0141579
979.691	0.0143196
979.769	0.0142996
979.847	0.0143166
979.925	0.0144047
