05/03/2022	20:27:27	Ver.	4.1	UNKNOWN
Optical Delay	660.003261	Delta X		0.078125	Sweeps	1	Scan Rate	0/0
Coordinates	Axis 1	NaN	Axis 2	NaN	Axis 3	NaN	Axis 4	NaN	Axis 5	NaN	Axis 6	0.000000
TX Power	0.000000	RX Power	0.000000

660.003	0.0148654
660.081	0.0148629
660.160	0.0149767
660.238	0.0149100
660.316	0.0148653
660.394	0.0147908
660.472	0.0149673
660.550	0.0148868
660.628	0.0148316
660.706	0.0149702
660.785	0.0149413
660.863	0.0149413
660.941	0.0148904
661.019	0.0148048
661.097	0.0149512
661.175	0.0147155
661.253	0.0147890
661.331	0.0149350
661.410	0.0149065
661.488	0.0148179
661.566	0.0147757
661.644	0.0149052
661.722	0.0148385
661.800	0.0146379
661.878	0.0149371
661.956	0.0149258
662.035	0.0148981
662.113	0.0147215
662.191	0.0149030
662.269	0.0148813
662.347	0.0148052
662.425	0.0148338
662.503	0.0148851
662.581	0.0148310
662.660	0.0148305
662.738	0.0149451
662.816	0.0147794
662.894	0.0148296
662.972	0.0149230
663.050	0.0148384
663.128	0.0148629
663.206	0.0146731
663.285	0.0148099
663.363	0.0148164
663.441	0.0147216
663.519	0.0148940
663.597	0.0148018
663.675	0.0148587
663.753	0.0148365
663.831	0.0148859
663.910	0.0147661
663.988	0.0148634
664.066	0.0147939
664.144	0.0146778
664.222	0.0148660
664.300	0.0147311
664.378	0.0146394
664.456	0.0148872
664.535	0.0147687
664.613	0.0148156
664.691	0.0147711
664.769	0.0147185
664.847	0.0149078
664.925	0.0147708
665.003	0.0148524
665.081	0.0148100
665.160	0.0148554
665.238	0.0148435
665.316	0.0149489
665.394	0.0147180
665.472	0.0149374
665.550	0.0146931
665.628	0.0148277
665.706	0.0149368
665.785	0.0148957
665.863	0.0148328
665.941	0.0148988
666.019	0.0148167
666.097	0.0148853
666.175	0.0147723
666.253	0.0148223
666.331	0.0147888
666.410	0.0148733
666.488	0.0149686
666.566	0.0149358
666.644	0.0148678
666.722	0.0149367
666.800	0.0148784
666.878	0.0149459
666.956	0.0148107
667.035	0.0149957
667.113	0.0150227
667.191	0.0148863
667.269	0.0147867
667.347	0.0147787
667.425	0.0149964
667.503	0.0149220
667.581	0.0149197
667.660	0.0149511
667.738	0.0148458
667.816	0.0148697
667.894	0.0150481
667.972	0.0147662
668.050	0.0148201
668.128	0.0150072
668.206	0.0149099
668.285	0.0148939
668.363	0.0148712
668.441	0.0149084
668.519	0.0149315
668.597	0.0149150
668.675	0.0148663
668.753	0.0148822
668.831	0.0149249
668.910	0.0149300
668.988	0.0149448
669.066	0.0147674
669.144	0.0148481
669.222	0.0150100
669.300	0.0147552
669.378	0.0148478
669.456	0.0149943
669.535	0.0148261
669.613	0.0149557
669.691	0.0148013
669.769	0.0148831
669.847	0.0149636
669.925	0.0148904
670.003	0.0149078
670.081	0.0149569
670.160	0.0149185
670.238	0.0148094
670.316	0.0148823
670.394	0.0149978
670.472	0.0149467
670.550	0.0148438
670.628	0.0150033
670.706	0.0148860
670.785	0.0148966
670.863	0.0149274
670.941	0.0148698
671.019	0.0147915
671.097	0.0150368
671.175	0.0149080
671.253	0.0149063
671.331	0.0148269
671.410	0.0149393
671.488	0.0149258
671.566	0.0149873
671.644	0.0148276
671.722	0.0148984
671.800	0.0148494
671.878	0.0148057
671.956	0.0149467
672.035	0.0149661
672.113	0.0149503
672.191	0.0147706
672.269	0.0148054
672.347	0.0148965
672.425	0.0150133
672.503	0.0150047
672.581	0.0149052
672.660	0.0148328
672.738	0.0148910
672.816	0.0149464
672.894	0.0149154
672.972	0.0149536
673.050	0.0149220
673.128	0.0148292
673.206	0.0148860
673.285	0.0147720
673.363	0.0149276
673.441	0.0148649
673.519	0.0148360
673.597	0.0149704
673.675	0.0147671
673.753	0.0149178
673.831	0.0149321
673.910	0.0147610
673.988	0.0147983
674.066	0.0148227
674.144	0.0148547
674.222	0.0148264
674.300	0.0149185
674.378	0.0148177
674.456	0.0148176
674.535	0.0147956
674.613	0.0148274
674.691	0.0148847
674.769	0.0149107
674.847	0.0147312
674.925	0.0146839
675.003	0.0147349
675.081	0.0149280
675.160	0.0148453
675.238	0.0147263
675.316	0.0147516
675.394	0.0149061
675.472	0.0148519
675.550	0.0147575
675.628	0.0148956
675.706	0.0148581
675.785	0.0148859
675.863	0.0148142
675.941	0.0148790
676.019	0.0147623
676.097	0.0146610
676.175	0.0147933
676.253	0.0146587
676.331	0.0148175
676.410	0.0147734
676.488	0.0147323
676.566	0.0147072
676.644	0.0148484
676.722	0.0149696
676.800	0.0147560
676.878	0.0147753
676.956	0.0147691
677.035	0.0147750
677.113	0.0147877
677.191	0.0149019
677.269	0.0149490
677.347	0.0146657
677.425	0.0147986
677.503	0.0148047
677.581	0.0148002
677.660	0.0149196
677.738	0.0148760
677.816	0.0147923
677.894	0.0147198
677.972	0.0149196
678.050	0.0147877
678.128	0.0148615
678.206	0.0148632
678.285	0.0149168
678.363	0.0148967
678.441	0.0148681
678.519	0.0149548
678.597	0.0148859
678.675	0.0148009
678.753	0.0148308
678.831	0.0149384
678.910	0.0148235
678.988	0.0148647
679.066	0.0148972
679.144	0.0147589
679.222	0.0147963
679.300	0.0148478
679.378	0.0148336
679.456	0.0148799
679.535	0.0148025
679.613	0.0148370
679.691	0.0148226
679.769	0.0147738
679.847	0.0148495
679.925	0.0148446
680.003	0.0148758
680.081	0.0146754
680.160	0.0147861
680.238	0.0147099
680.316	0.0148606
680.394	0.0146977
680.472	0.0148215
680.550	0.0147501
680.628	0.0147267
680.706	0.0146957
680.785	0.0148354
680.863	0.0147605
680.941	0.0147363
681.019	0.0146960
681.097	0.0147818
681.175	0.0147916
681.253	0.0147810
681.331	0.0147945
681.410	0.0146493
681.488	0.0147622
681.566	0.0147751
681.644	0.0149429
681.722	0.0148670
681.800	0.0148991
681.878	0.0147892
681.956	0.0148432
682.035	0.0147504
682.113	0.0147744
682.191	0.0147086
682.269	0.0147656
682.347	0.0148552
682.425	0.0148323
682.503	0.0146714
682.581	0.0148009
682.660	0.0147162
682.738	0.0148710
682.816	0.0147961
682.894	0.0149049
682.972	0.0147482
683.050	0.0148079
683.128	0.0148080
683.206	0.0148914
683.285	0.0147298
683.363	0.0148820
683.441	0.0148908
683.519	0.0148677
683.597	0.0148291
683.675	0.0146926
683.753	0.0147637
683.831	0.0148625
683.910	0.0147599
683.988	0.0147711
684.066	0.0147322
684.144	0.0148421
684.222	0.0148609
684.300	0.0147868
684.378	0.0147855
684.456	0.0148083
684.535	0.0147077
684.613	0.0148997
684.691	0.0149414
684.769	0.0148119
684.847	0.0147393
684.925	0.0148539
685.003	0.0147681
685.081	0.0148847
685.160	0.0148550
685.238	0.0148319
685.316	0.0149175
685.394	0.0147478
685.472	0.0148583
685.550	0.0147536
685.628	0.0147987
685.706	0.0148090
685.785	0.0147803
685.863	0.0147846
685.941	0.0148116
686.019	0.0148871
686.097	0.0147746
686.175	0.0147523
686.253	0.0148390
686.331	0.0148129
686.410	0.0148633
686.488	0.0148386
686.566	0.0147869
686.644	0.0147712
686.722	0.0148814
686.800	0.0148345
686.878	0.0148563
686.956	0.0147746
687.035	0.0149291
687.113	0.0148891
687.191	0.0149689
687.269	0.0149697
687.347	0.0148971
687.425	0.0148138
687.503	0.0147845
687.581	0.0148537
687.660	0.0147522
687.738	0.0149131
687.816	0.0149071
687.894	0.0146799
687.972	0.0148115
688.050	0.0149126
688.128	0.0148843
688.206	0.0148229
688.285	0.0149306
688.363	0.0149019
688.441	0.0148595
688.519	0.0149219
688.597	0.0149334
688.675	0.0149390
688.753	0.0149146
688.831	0.0148752
688.910	0.0147799
688.988	0.0147799
689.066	0.0147624
689.144	0.0147993
689.222	0.0148834
689.300	0.0146953
689.378	0.0148427
689.456	0.0148837
689.535	0.0148726
689.613	0.0148676
689.691	0.0150267
689.769	0.0148312
689.847	0.0147937
689.925	0.0148432
690.003	0.0149876
690.081	0.0148296
690.160	0.0149712
690.238	0.0149168
690.316	0.0148996
690.394	0.0149102
690.472	0.0149844
690.550	0.0149668
690.628	0.0148524
690.706	0.0149664
690.785	0.0149732
690.863	0.0148450
690.941	0.0149751
691.019	0.0149216
691.097	0.0150311
691.175	0.0149944
691.253	0.0148369
691.331	0.0149384
691.410	0.0146976
691.488	0.0148292
691.566	0.0147888
691.644	0.0148269
691.722	0.0148569
691.800	0.0147548
691.878	0.0147278
691.956	0.0146763
692.035	0.0147298
692.113	0.0147900
692.191	0.0148013
692.269	0.0149031
692.347	0.0149831
692.425	0.0149873
692.503	0.0150388
692.581	0.0151551
692.660	0.0150465
692.738	0.0150246
692.816	0.0152363
692.894	0.0151440
692.972	0.0151445
693.050	0.0150554
693.128	0.0149916
693.206	0.0151167
693.285	0.0150788
693.363	0.0148419
693.441	0.0149269
693.519	0.0148586
693.597	0.0147590
693.675	0.0147130
693.753	0.0147510
693.831	0.0145934
693.910	0.0146367
693.988	0.0143879
694.066	0.0144484
694.144	0.0144651
694.222	0.0144352
694.300	0.0145299
694.378	0.0145490
694.456	0.0144455
694.535	0.0147194
694.613	0.0146001
694.691	0.0146117
694.769	0.0148466
694.847	0.0149178
694.925	0.0148576
695.003	0.0149812
695.081	0.0149805
695.160	0.0151135
695.238	0.0151453
695.316	0.0150565
695.394	0.0151744
695.472	0.0151712
695.550	0.0152372
695.628	0.0151952
695.706	0.0153067
695.785	0.0154367
695.863	0.0155427
695.941	0.0153778
696.019	0.0154709
696.097	0.0153551
696.175	0.0153277
696.253	0.0152888
696.331	0.0151781
696.410	0.0151122
696.488	0.0150803
696.566	0.0148006
696.644	0.0147423
696.722	0.0146563
696.800	0.0146180
696.878	0.0145000
696.956	0.0143029
697.035	0.0143722
697.113	0.0143453
697.191	0.0141573
697.269	0.0140391
697.347	0.0142299
697.425	0.0140981
697.503	0.0141542
697.581	0.0143449
697.660	0.0142358
697.738	0.0143204
697.816	0.0144150
697.894	0.0145223
697.972	0.0145128
698.050	0.0145854
698.128	0.0148107
698.206	0.0148428
698.285	0.0149862
698.363	0.0149865
698.441	0.0149574
698.519	0.0149837
698.597	0.0151201
698.675	0.0152431
698.753	0.0153809
698.831	0.0152673
698.910	0.0152611
698.988	0.0153372
699.066	0.0155093
699.144	0.0154089
699.222	0.0155727
699.300	0.0156412
699.378	0.0156078
699.456	0.0156430
699.535	0.0156039
699.613	0.0156652
699.691	0.0158035
699.769	0.0158105
699.847	0.0158990
699.925	0.0157972
700.003	0.0156429
700.081	0.0153266
700.160	0.0151311
700.238	0.0150611
700.316	0.0146955
700.394	0.0143657
700.472	0.0140952
700.550	0.0139019
700.628	0.0136446
700.706	0.0134736
700.785	0.0134597
700.863	0.0134576
700.941	0.0133382
701.019	0.0133685
701.097	0.0136503
701.175	0.0138584
701.253	0.0140221
701.331	0.0140898
701.410	0.0142461
701.488	0.0144331
701.566	0.0145479
701.644	0.0146552
701.722	0.0148859
701.800	0.0148366
701.878	0.0150543
701.956	0.0150130
702.035	0.0151030
702.113	0.0150777
702.191	0.0152448
702.269	0.0151168
702.347	0.0150916
702.425	0.0148490
702.503	0.0149229
702.581	0.0147858
702.660	0.0146901
702.738	0.0147501
702.816	0.0149148
702.894	0.0146452
702.972	0.0146955
703.050	0.0149674
703.128	0.0148037
703.206	0.0148717
703.285	0.0149799
703.363	0.0151069
703.441	0.0152217
703.519	0.0154040
703.597	0.0155891
703.675	0.0156402
703.753	0.0157472
703.831	0.0159169
703.910	0.0161422
703.988	0.0160571
704.066	0.0162257
704.144	0.0162186
704.222	0.0161569
704.300	0.0161545
704.378	0.0158456
704.456	0.0159618
704.535	0.0157066
704.613	0.0153675
704.691	0.0150686
704.769	0.0146044
704.847	0.0146360
704.925	0.0144593
705.003	0.0139869
705.081	0.0138782
705.160	0.0138940
705.238	0.0135622
705.316	0.0132545
705.394	0.0131612
705.472	0.0133833
705.550	0.0131498
705.628	0.0133179
705.706	0.0133701
705.785	0.0134895
705.863	0.0135224
705.941	0.0136678
706.019	0.0137998
706.097	0.0138445
706.175	0.0139420
706.253	0.0141392
706.331	0.0143833
706.410	0.0146211
706.488	0.0148502
706.566	0.0150330
706.644	0.0154255
706.722	0.0155443
706.800	0.0156526
706.878	0.0156570
706.956	0.0156777
707.035	0.0157481
707.113	0.0155112
707.191	0.0152440
707.269	0.0152268
707.347	0.0149660
707.425	0.0150635
707.503	0.0148270
707.581	0.0147609
707.660	0.0145874
707.738	0.0146542
707.816	0.0146381
707.894	0.0145257
707.972	0.0146259
708.050	0.0146610
708.128	0.0147741
708.206	0.0149658
708.285	0.0150776
708.363	0.0152309
708.441	0.0154881
708.519	0.0156547
708.597	0.0158678
708.675	0.0161719
708.753	0.0163213
708.831	0.0164903
708.910	0.0166783
708.988	0.0167749
709.066	0.0166210
709.144	0.0165757
709.222	0.0164614
709.300	0.0163472
709.378	0.0159222
709.456	0.0157787
709.535	0.0152593
709.613	0.0149874
709.691	0.0147097
709.769	0.0143086
709.847	0.0141342
709.925	0.0137521
710.003	0.0135580
710.081	0.0135149
710.160	0.0133690
710.238	0.0131501
710.316	0.0131056
710.394	0.0131822
710.472	0.0132329
710.550	0.0132867
710.628	0.0132546
710.706	0.0133467
710.785	0.0134235
710.863	0.0134231
710.941	0.0133667
711.019	0.0135825
711.097	0.0135626
711.175	0.0137363
711.253	0.0138728
711.331	0.0141865
711.410	0.0142708
711.488	0.0143711
711.566	0.0145643
711.644	0.0146725
711.722	0.0149609
711.800	0.0151106
711.878	0.0153671
711.956	0.0155411
712.035	0.0154510
712.113	0.0154711
712.191	0.0154292
712.269	0.0155200
712.347	0.0153621
712.425	0.0152116
712.503	0.0152328
712.581	0.0149246
712.660	0.0150003
712.738	0.0149375
712.816	0.0148126
712.894	0.0148401
712.972	0.0148322
713.050	0.0148946
713.128	0.0149346
713.206	0.0152479
713.285	0.0154642
713.363	0.0155205
713.441	0.0156136
713.519	0.0157764
713.597	0.0161316
713.675	0.0162023
713.753	0.0163829
713.831	0.0165777
713.910	0.0166704
713.988	0.0167986
714.066	0.0166270
714.144	0.0167368
714.222	0.0165673
714.300	0.0163141
714.378	0.0160737
714.456	0.0159294
714.535	0.0155807
714.613	0.0151271
714.691	0.0149039
714.769	0.0146590
714.847	0.0142548
714.925	0.0140076
715.003	0.0138441
715.081	0.0136900
715.160	0.0136274
715.238	0.0133898
715.316	0.0133185
715.394	0.0133017
715.472	0.0131463
715.550	0.0130059
715.628	0.0129714
715.706	0.0131052
715.785	0.0130677
715.863	0.0131145
715.941	0.0131538
716.019	0.0134225
716.097	0.0136530
716.175	0.0137086
716.253	0.0138974
716.331	0.0140054
716.410	0.0143485
716.488	0.0143189
716.566	0.0143893
716.644	0.0145788
716.722	0.0147408
716.800	0.0147229
716.878	0.0147623
716.956	0.0149880
717.035	0.0149654
717.113	0.0149342
717.191	0.0149030
717.269	0.0150591
717.347	0.0148495
717.425	0.0150452
717.503	0.0149790
717.581	0.0148936
717.660	0.0150911
717.738	0.0150510
717.816	0.0150788
717.894	0.0150633
717.972	0.0151843
718.050	0.0151775
718.128	0.0155422
718.206	0.0154916
718.285	0.0156631
718.363	0.0158391
718.441	0.0158977
718.519	0.0161063
718.597	0.0161517
718.675	0.0161680
718.753	0.0164101
718.831	0.0165601
718.910	0.0164541
718.988	0.0165345
719.066	0.0164623
719.144	0.0162801
719.222	0.0162652
719.300	0.0161943
719.378	0.0159469
719.456	0.0160550
719.535	0.0158089
719.613	0.0154750
719.691	0.0152752
719.769	0.0151672
719.847	0.0149726
719.925	0.0148312
720.003	0.0145762
720.081	0.0142924
720.160	0.0141447
720.238	0.0141045
720.316	0.0137578
720.394	0.0135565
720.472	0.0135392
720.550	0.0133260
720.628	0.0133264
720.706	0.0131985
720.785	0.0131245
720.863	0.0131310
720.941	0.0130248
721.019	0.0132835
721.097	0.0136584
721.175	0.0136938
721.253	0.0138638
721.331	0.0139725
721.410	0.0139440
721.488	0.0143022
721.566	0.0143830
721.644	0.0144072
721.722	0.0144888
721.800	0.0146139
721.878	0.0145938
721.956	0.0145058
722.035	0.0145583
722.113	0.0146201
722.191	0.0145935
722.269	0.0146736
722.347	0.0147857
722.425	0.0145876
722.503	0.0147432
722.581	0.0149068
722.660	0.0148991
722.738	0.0149541
722.816	0.0150532
722.894	0.0151645
722.972	0.0153743
723.050	0.0154576
723.128	0.0153925
723.206	0.0154128
723.285	0.0154878
723.363	0.0156110
723.441	0.0159053
723.519	0.0160627
723.597	0.0162017
723.675	0.0161394
723.753	0.0162385
723.831	0.0163003
723.910	0.0163038
723.988	0.0163143
724.066	0.0163715
724.144	0.0164412
724.222	0.0164013
724.300	0.0164125
724.378	0.0162504
724.456	0.0162183
724.535	0.0161466
724.613	0.0159559
724.691	0.0156807
724.769	0.0154360
724.847	0.0153127
724.925	0.0152036
725.003	0.0150394
725.081	0.0147983
725.160	0.0144930
725.238	0.0145235
725.316	0.0143578
725.394	0.0141540
725.472	0.0139712
725.550	0.0139792
725.628	0.0138502
725.706	0.0136671
725.785	0.0134499
725.863	0.0134138
725.941	0.0136216
726.019	0.0134991
726.097	0.0135342
726.175	0.0136243
726.253	0.0137634
726.331	0.0137228
726.410	0.0137482
726.488	0.0138274
726.566	0.0140011
726.644	0.0140561
726.722	0.0140459
726.800	0.0140754
726.878	0.0141624
726.956	0.0141569
727.035	0.0142644
727.113	0.0141637
727.191	0.0142505
727.269	0.0143690
727.347	0.0143000
727.425	0.0143986
727.503	0.0145155
727.581	0.0145803
727.660	0.0146300
727.738	0.0147709
727.816	0.0149151
727.894	0.0148940
727.972	0.0148947
728.050	0.0149536
728.128	0.0150263
728.206	0.0150540
728.285	0.0151436
728.363	0.0152392
728.441	0.0153234
728.519	0.0154620
728.597	0.0155753
728.675	0.0156217
728.753	0.0157821
728.831	0.0157457
728.910	0.0161653
728.988	0.0161961
729.066	0.0161694
729.144	0.0163618
729.222	0.0165003
729.300	0.0164970
729.378	0.0164505
729.456	0.0164164
729.535	0.0163821
729.613	0.0163024
729.691	0.0161494
729.769	0.0159802
729.847	0.0158263
729.925	0.0159248
730.003	0.0156260
730.081	0.0156251
730.160	0.0154738
730.238	0.0153478
730.316	0.0152658
730.394	0.0151589
730.472	0.0150314
730.550	0.0149984
730.628	0.0147797
730.706	0.0146142
730.785	0.0143757
730.863	0.0142873
730.941	0.0140359
731.019	0.0138012
731.097	0.0137679
731.175	0.0138007
731.253	0.0134096
731.331	0.0132219
731.410	0.0129610
731.488	0.0130894
731.566	0.0131769
731.644	0.0130754
731.722	0.0131666
731.800	0.0131418
731.878	0.0132224
731.956	0.0133849
732.035	0.0134224
732.113	0.0136558
732.191	0.0139189
732.269	0.0138622
732.347	0.0139760
732.425	0.0141261
732.503	0.0143063
732.581	0.0144465
732.660	0.0145667
732.738	0.0145451
732.816	0.0147108
732.894	0.0146857
732.972	0.0147936
733.050	0.0146270
733.128	0.0146770
733.206	0.0146285
733.285	0.0146786
733.363	0.0147227
733.441	0.0146674
733.519	0.0148073
733.597	0.0149944
733.675	0.0150239
733.753	0.0151389
733.831	0.0152510
733.910	0.0155524
733.988	0.0156439
734.066	0.0157761
734.144	0.0160179
734.222	0.0161196
734.300	0.0163477
734.378	0.0163730
734.456	0.0165284
734.535	0.0167455
734.613	0.0168202
734.691	0.0166946
734.769	0.0167155
734.847	0.0168287
734.925	0.0166821
735.003	0.0163943
735.081	0.0164474
735.160	0.0162048
735.238	0.0161193
735.316	0.0160888
735.394	0.0158265
735.472	0.0157515
735.550	0.0155872
735.628	0.0155943
735.706	0.0154603
735.785	0.0153896
735.863	0.0152984
735.941	0.0151128
736.019	0.0149380
736.097	0.0148089
736.175	0.0147015
736.253	0.0145682
736.331	0.0142828
736.410	0.0138772
736.488	0.0137847
736.566	0.0135829
736.644	0.0134290
736.722	0.0132962
736.800	0.0129992
736.878	0.0129330
736.956	0.0127815
737.035	0.0127708
737.113	0.0128233
737.191	0.0126296
737.269	0.0126933
737.347	0.0127283
737.425	0.0128149
737.503	0.0128705
737.581	0.0130257
737.660	0.0132566
737.738	0.0133376
737.816	0.0136900
737.894	0.0138096
737.972	0.0140707
738.050	0.0142362
738.128	0.0144760
738.206	0.0144846
738.285	0.0144846
738.363	0.0145528
738.441	0.0146794
738.519	0.0145942
738.597	0.0145648
738.675	0.0146862
738.753	0.0146588
738.831	0.0145390
738.910	0.0147134
738.988	0.0146684
739.066	0.0149777
739.144	0.0152378
739.222	0.0153327
739.300	0.0154678
739.378	0.0156529
739.456	0.0159274
739.535	0.0159468
739.613	0.0163155
739.691	0.0165246
739.769	0.0166911
739.847	0.0168677
739.925	0.0169952
740.003	0.0169871
740.081	0.0170978
740.160	0.0171432
740.238	0.0169710
740.316	0.0168096
740.394	0.0168671
740.472	0.0167164
740.550	0.0165806
740.628	0.0165276
740.706	0.0163911
740.785	0.0164108
740.863	0.0161700
740.941	0.0159399
741.019	0.0158588
741.097	0.0157389
741.175	0.0156793
741.253	0.0155956
741.331	0.0155720
741.410	0.0152541
741.488	0.0152703
741.566	0.0151048
741.644	0.0149249
741.722	0.0148217
741.800	0.0145972
741.878	0.0145600
741.956	0.0143349
742.035	0.0140871
742.113	0.0139394
742.191	0.0136663
742.269	0.0134297
742.347	0.0132516
742.425	0.0133179
742.503	0.0131445
742.581	0.0129402
742.660	0.0128889
742.738	0.0127602
742.816	0.0127008
742.894	0.0127400
742.972	0.0128475
743.050	0.0128271
743.128	0.0129552
743.206	0.0130790
743.285	0.0131252
743.363	0.0133636
743.441	0.0132957
743.519	0.0135066
743.597	0.0134864
743.675	0.0136335
743.753	0.0137954
743.831	0.0138782
743.910	0.0138588
743.988	0.0139326
744.066	0.0139571
744.144	0.0140132
744.222	0.0141558
744.300	0.0142112
744.378	0.0143650
744.456	0.0144304
744.535	0.0147405
744.613	0.0147491
744.691	0.0149418
744.769	0.0150874
744.847	0.0155260
744.925	0.0154691
745.003	0.0158098
745.081	0.0160636
745.160	0.0161847
745.238	0.0163773
745.316	0.0165699
745.394	0.0166311
745.472	0.0168198
745.550	0.0169024
745.628	0.0171017
745.706	0.0171228
745.785	0.0170786
745.863	0.0171849
745.941	0.0171274
746.019	0.0169430
746.097	0.0170812
746.175	0.0169167
746.253	0.0167462
746.331	0.0166087
746.410	0.0166356
746.488	0.0163581
746.566	0.0162502
746.644	0.0160140
746.722	0.0160399
746.800	0.0159949
746.878	0.0158466
746.956	0.0157133
747.035	0.0157211
747.113	0.0156493
747.191	0.0154149
747.269	0.0153050
747.347	0.0151867
747.425	0.0149842
747.503	0.0147868
747.581	0.0145739
747.660	0.0143071
747.738	0.0142667
747.816	0.0143163
747.894	0.0142033
747.972	0.0139091
748.050	0.0137829
748.128	0.0135072
748.206	0.0134439
748.285	0.0130532
748.363	0.0131239
748.441	0.0130148
748.519	0.0129031
748.597	0.0128964
748.675	0.0127956
748.753	0.0127504
748.831	0.0126347
748.910	0.0127068
748.988	0.0127690
749.066	0.0128007
749.144	0.0126579
749.222	0.0127397
749.300	0.0127805
749.378	0.0128964
749.456	0.0131055
749.535	0.0131164
749.613	0.0132971
749.691	0.0133805
749.769	0.0135064
749.847	0.0136642
749.925	0.0138429
750.003	0.0139306
750.081	0.0141898
750.160	0.0142986
750.238	0.0142792
750.316	0.0145453
750.394	0.0147939
750.472	0.0149209
750.550	0.0152116
750.628	0.0154881
750.706	0.0154861
750.785	0.0156573
750.863	0.0158251
750.941	0.0158944
751.019	0.0161251
751.097	0.0160631
751.175	0.0161995
751.253	0.0163444
751.331	0.0163454
751.410	0.0164606
751.488	0.0166938
751.566	0.0165979
751.644	0.0164967
751.722	0.0166792
751.800	0.0166705
751.878	0.0166696
751.956	0.0167638
752.035	0.0166417
752.113	0.0165929
752.191	0.0166774
752.269	0.0166041
752.347	0.0165134
752.425	0.0166283
752.503	0.0165177
752.581	0.0163230
752.660	0.0164517
752.738	0.0163117
752.816	0.0161937
752.894	0.0161219
752.972	0.0158724
753.050	0.0158392
753.128	0.0155853
753.206	0.0154398
753.285	0.0154485
753.363	0.0154023
753.441	0.0150391
753.519	0.0147136
753.597	0.0145774
753.675	0.0144754
753.753	0.0143478
753.831	0.0139734
753.910	0.0139193
753.988	0.0138261
754.066	0.0137068
754.144	0.0135929
754.222	0.0134100
754.300	0.0132774
754.378	0.0130505
754.456	0.0128391
754.535	0.0128234
754.613	0.0128493
754.691	0.0127321
754.769	0.0126498
754.847	0.0126865
754.925	0.0125666
755.003	0.0125765
755.081	0.0124567
755.160	0.0125742
755.238	0.0125561
755.316	0.0126181
755.394	0.0127743
755.472	0.0129427
755.550	0.0129626
755.628	0.0131318
755.706	0.0131844
755.785	0.0135424
755.863	0.0136485
755.941	0.0137322
756.019	0.0140028
756.097	0.0142577
756.175	0.0145559
756.253	0.0144807
756.331	0.0146227
756.410	0.0148016
756.488	0.0150114
756.566	0.0151891
756.644	0.0153034
756.722	0.0152185
756.800	0.0154791
756.878	0.0154057
756.956	0.0155169
757.035	0.0157681
757.113	0.0157983
757.191	0.0159217
757.269	0.0160918
757.347	0.0161862
757.425	0.0163432
757.503	0.0165860
757.581	0.0167353
757.660	0.0166233
757.738	0.0167635
757.816	0.0167504
757.894	0.0167804
757.972	0.0169598
758.050	0.0170363
758.128	0.0169400
758.206	0.0170101
758.285	0.0168923
758.363	0.0169199
758.441	0.0166357
758.519	0.0166779
758.597	0.0166153
758.675	0.0164489
758.753	0.0162839
758.831	0.0160015
758.910	0.0160416
758.988	0.0158100
759.066	0.0154317
759.144	0.0152653
759.222	0.0151468
759.300	0.0149442
759.378	0.0147713
759.456	0.0146124
759.535	0.0144537
759.613	0.0144279
759.691	0.0143224
759.769	0.0143394
759.847	0.0143076
759.925	0.0141757
760.003	0.0140186
760.081	0.0141114
760.160	0.0138340
760.238	0.0137132
760.316	0.0135839
760.394	0.0136023
760.472	0.0134235
760.550	0.0133596
760.628	0.0131281
760.706	0.0129676
760.785	0.0129265
760.863	0.0129533
760.941	0.0128175
761.019	0.0127826
761.097	0.0128178
761.175	0.0126130
761.253	0.0126611
761.331	0.0127908
761.410	0.0128276
761.488	0.0128396
761.566	0.0130498
761.644	0.0132487
761.722	0.0135122
761.800	0.0136793
761.878	0.0137527
761.956	0.0138097
762.035	0.0139680
762.113	0.0142190
762.191	0.0143833
762.269	0.0145813
762.347	0.0146408
762.425	0.0147946
762.503	0.0149590
762.581	0.0149764
762.660	0.0151431
762.738	0.0152514
762.816	0.0153160
762.894	0.0154424
762.972	0.0155621
763.050	0.0155931
763.128	0.0157915
763.206	0.0158691
763.285	0.0160563
763.363	0.0161420
763.441	0.0162989
763.519	0.0164278
763.597	0.0166133
763.675	0.0166508
763.753	0.0168658
763.831	0.0167438
763.910	0.0168205
763.988	0.0169032
764.066	0.0169401
764.144	0.0169493
764.222	0.0166776
764.300	0.0164712
764.378	0.0164923
764.456	0.0163772
764.535	0.0161137
764.613	0.0159489
764.691	0.0157908
764.769	0.0156620
764.847	0.0154700
764.925	0.0153754
765.003	0.0151603
765.081	0.0151875
765.160	0.0150553
765.238	0.0148674
765.316	0.0148194
765.394	0.0149582
765.472	0.0147293
765.550	0.0147982
765.628	0.0145753
765.706	0.0145184
765.785	0.0146490
765.863	0.0145531
765.941	0.0144638
766.019	0.0143725
766.097	0.0143111
766.175	0.0141978
766.253	0.0140343
766.331	0.0141076
766.410	0.0137240
766.488	0.0136713
766.566	0.0135896
766.644	0.0135916
766.722	0.0135510
766.800	0.0133387
766.878	0.0132301
766.956	0.0133492
767.035	0.0132217
767.113	0.0132050
767.191	0.0133611
767.269	0.0135056
767.347	0.0135272
767.425	0.0135104
767.503	0.0136541
767.581	0.0137364
767.660	0.0137357
767.738	0.0139433
767.816	0.0141970
767.894	0.0142536
767.972	0.0143280
768.050	0.0144585
768.128	0.0145777
768.206	0.0146061
768.285	0.0146507
768.363	0.0149592
768.441	0.0149226
768.519	0.0149888
768.597	0.0150013
768.675	0.0152370
768.753	0.0154353
768.831	0.0152940
768.910	0.0152673
768.988	0.0154427
769.066	0.0156265
769.144	0.0156055
769.222	0.0156837
769.300	0.0156982
769.378	0.0157570
769.456	0.0158502
769.535	0.0158443
769.613	0.0159715
769.691	0.0160811
769.769	0.0159722
769.847	0.0161715
769.925	0.0161834
770.003	0.0162029
770.081	0.0161692
770.160	0.0161820
770.238	0.0162976
770.316	0.0163099
770.394	0.0161309
770.472	0.0159945
770.550	0.0157520
770.628	0.0157779
770.706	0.0158218
770.785	0.0156632
770.863	0.0154898
770.941	0.0154272
771.019	0.0153593
771.097	0.0153057
771.175	0.0152006
771.253	0.0152774
771.331	0.0152300
771.410	0.0150353
771.488	0.0149878
771.566	0.0148904
771.644	0.0149672
771.722	0.0148824
771.800	0.0146941
771.878	0.0147493
771.956	0.0145924
772.035	0.0145602
772.113	0.0145535
772.191	0.0144695
772.269	0.0144191
772.347	0.0143653
772.425	0.0141296
772.503	0.0142700
772.581	0.0141364
772.660	0.0139532
772.738	0.0139667
772.816	0.0138647
772.894	0.0137943
772.972	0.0138004
773.050	0.0137717
773.128	0.0140231
773.206	0.0138351
773.285	0.0138018
773.363	0.0138026
773.441	0.0138539
773.519	0.0137473
773.597	0.0138549
773.675	0.0138628
773.753	0.0139198
773.831	0.0138197
773.910	0.0139305
773.988	0.0139154
774.066	0.0139971
774.144	0.0141373
774.222	0.0141433
774.300	0.0141840
774.378	0.0143476
774.456	0.0142249
774.535	0.0145529
774.613	0.0145281
774.691	0.0147528
774.769	0.0148014
774.847	0.0146925
774.925	0.0148476
775.003	0.0148709
775.081	0.0148235
775.160	0.0150664
775.238	0.0150693
775.316	0.0151949
775.394	0.0150765
775.472	0.0152385
775.550	0.0153559
775.628	0.0154171
775.706	0.0154797
775.785	0.0155138
775.863	0.0155962
775.941	0.0157426
776.019	0.0156155
776.097	0.0156545
776.175	0.0156783
776.253	0.0158639
776.331	0.0158136
776.410	0.0157700
776.488	0.0159219
776.566	0.0158270
776.644	0.0159211
776.722	0.0157922
776.800	0.0158558
776.878	0.0157733
776.956	0.0157339
777.035	0.0156023
777.113	0.0155232
777.191	0.0154805
777.269	0.0154185
777.347	0.0154172
777.425	0.0152071
777.503	0.0150863
777.581	0.0151199
777.660	0.0150306
777.738	0.0151017
777.816	0.0149735
777.894	0.0147836
777.972	0.0146415
778.050	0.0147378
778.128	0.0146972
778.206	0.0147966
778.285	0.0146441
778.363	0.0144608
778.441	0.0146339
778.519	0.0146960
778.597	0.0145851
778.675	0.0144813
778.753	0.0144700
778.831	0.0143239
778.910	0.0142883
778.988	0.0142682
779.066	0.0142473
779.144	0.0140569
779.222	0.0140673
779.300	0.0137630
779.378	0.0137403
779.456	0.0137664
779.535	0.0137411
779.613	0.0137811
779.691	0.0136720
779.769	0.0136551
779.847	0.0136951
779.925	0.0137422
780.003	0.0138216
780.081	0.0140034
780.160	0.0138748
780.238	0.0139445
780.316	0.0140305
780.394	0.0141506
780.472	0.0142213
780.550	0.0142185
780.628	0.0144592
780.706	0.0145261
780.785	0.0146706
780.863	0.0146679
780.941	0.0146915
781.019	0.0149187
781.097	0.0151406
781.175	0.0150869
781.253	0.0152482
781.331	0.0153281
781.410	0.0152245
781.488	0.0153537
781.566	0.0155631
781.644	0.0157191
781.722	0.0157179
781.800	0.0155582
781.878	0.0156594
781.956	0.0157142
782.035	0.0157735
782.113	0.0156743
782.191	0.0156680
782.269	0.0156264
782.347	0.0155236
782.425	0.0156696
782.503	0.0156345
782.581	0.0155235
782.660	0.0155548
782.738	0.0156909
782.816	0.0156091
782.894	0.0155878
782.972	0.0154778
783.050	0.0154723
783.128	0.0154375
783.206	0.0154269
783.285	0.0153320
783.363	0.0152477
783.441	0.0152716
783.519	0.0151366
783.597	0.0151384
783.675	0.0150169
783.753	0.0150108
783.831	0.0149411
783.910	0.0147209
783.988	0.0147299
784.066	0.0148814
784.144	0.0147627
784.222	0.0147869
784.300	0.0145957
784.378	0.0146336
784.456	0.0146312
784.535	0.0144686
784.613	0.0145529
784.691	0.0144514
784.769	0.0144640
784.847	0.0143439
784.925	0.0145155
785.003	0.0144706
785.081	0.0142939
785.160	0.0142103
785.238	0.0142703
785.316	0.0142047
785.394	0.0141962
785.472	0.0142532
785.550	0.0140066
785.628	0.0140314
785.706	0.0140266
785.785	0.0140755
785.863	0.0138973
785.941	0.0141131
786.019	0.0140360
786.097	0.0139996
786.175	0.0141498
786.253	0.0142253
786.331	0.0141912
786.410	0.0141313
786.488	0.0143784
786.566	0.0143510
786.644	0.0142989
786.722	0.0144597
786.800	0.0144858
786.878	0.0146876
786.956	0.0146540
787.035	0.0148338
787.113	0.0147712
787.191	0.0149877
787.269	0.0148994
787.347	0.0149998
787.425	0.0151619
787.503	0.0149854
787.581	0.0151163
787.660	0.0150358
787.738	0.0151113
787.816	0.0151385
787.894	0.0150987
787.972	0.0152246
788.050	0.0152866
788.128	0.0151503
788.206	0.0151530
788.285	0.0153933
788.363	0.0154831
788.441	0.0153561
788.519	0.0154207
788.597	0.0153987
788.675	0.0153930
788.753	0.0155362
788.831	0.0155044
788.910	0.0154398
788.988	0.0154530
789.066	0.0154867
789.144	0.0156208
789.222	0.0154156
789.300	0.0153525
789.378	0.0154901
789.456	0.0153389
789.535	0.0153093
789.613	0.0152357
789.691	0.0152702
789.769	0.0150275
789.847	0.0150598
789.925	0.0152670
790.003	0.0151603
790.081	0.0150254
790.160	0.0150319
790.238	0.0148874
790.316	0.0149058
790.394	0.0148260
790.472	0.0149286
790.550	0.0147366
790.628	0.0149650
790.706	0.0147074
790.785	0.0148445
790.863	0.0148861
790.941	0.0147501
791.019	0.0146881
791.097	0.0146680
791.175	0.0147295
791.253	0.0147603
791.331	0.0146295
791.410	0.0147031
791.488	0.0146927
791.566	0.0147205
791.644	0.0146535
791.722	0.0146275
791.800	0.0145954
791.878	0.0144065
791.956	0.0145859
792.035	0.0144866
792.113	0.0144096
792.191	0.0144343
792.269	0.0145583
792.347	0.0143600
792.425	0.0144041
792.503	0.0143874
792.581	0.0142950
792.660	0.0144613
792.738	0.0144605
792.816	0.0143637
792.894	0.0144610
792.972	0.0145831
793.050	0.0144641
793.128	0.0143703
793.206	0.0144178
793.285	0.0145866
793.363	0.0145625
793.441	0.0146974
793.519	0.0147125
793.597	0.0147592
793.675	0.0147344
793.753	0.0146636
793.831	0.0146828
793.910	0.0148668
793.988	0.0148042
794.066	0.0148949
794.144	0.0148726
794.222	0.0148292
794.300	0.0149824
794.378	0.0149864
794.456	0.0150938
794.535	0.0151049
794.613	0.0151887
794.691	0.0151910
794.769	0.0152821
794.847	0.0153048
794.925	0.0151800
795.003	0.0155910
795.081	0.0153757
795.160	0.0154668
795.238	0.0154570
795.316	0.0154663
795.394	0.0155021
795.472	0.0154711
795.550	0.0156071
795.628	0.0154845
795.706	0.0155468
795.785	0.0155050
795.863	0.0155466
795.941	0.0154441
796.019	0.0154533
796.097	0.0155670
796.175	0.0154865
796.253	0.0153916
796.331	0.0152873
796.410	0.0152641
796.488	0.0154085
796.566	0.0151413
796.644	0.0149474
796.722	0.0150687
796.800	0.0149561
796.878	0.0148729
796.956	0.0148374
797.035	0.0147657
797.113	0.0148222
797.191	0.0146957
797.269	0.0144539
797.347	0.0145142
797.425	0.0146131
797.503	0.0146696
797.581	0.0145308
797.660	0.0145528
797.738	0.0145718
797.816	0.0145696
797.894	0.0144499
797.972	0.0145554
798.050	0.0145576
798.128	0.0145946
798.206	0.0145947
798.285	0.0144149
798.363	0.0143789
798.441	0.0143018
798.519	0.0142142
798.597	0.0143916
798.675	0.0143615
798.753	0.0142915
798.831	0.0142727
798.910	0.0142970
798.988	0.0142081
799.066	0.0143253
799.144	0.0144507
799.222	0.0145275
799.300	0.0144189
799.378	0.0145695
799.456	0.0146777
799.535	0.0146304
799.613	0.0147131
799.691	0.0148554
799.769	0.0150755
799.847	0.0150137
799.925	0.0148923
800.003	0.0149037
800.081	0.0149690
800.160	0.0150193
800.238	0.0151043
800.316	0.0149372
800.394	0.0152187
800.472	0.0149513
800.550	0.0150613
800.628	0.0150572
800.706	0.0150066
800.785	0.0147980
800.863	0.0148058
800.941	0.0147621
801.019	0.0148315
801.097	0.0148322
801.175	0.0149313
801.253	0.0149055
801.331	0.0150378
801.410	0.0150471
801.488	0.0148674
801.566	0.0150230
801.644	0.0150890
801.722	0.0151923
801.800	0.0152321
801.878	0.0152617
801.956	0.0153279
802.035	0.0152364
802.113	0.0153616
802.191	0.0153998
802.269	0.0153178
802.347	0.0153494
802.425	0.0153313
802.503	0.0153773
802.581	0.0151689
802.660	0.0151132
802.738	0.0150890
802.816	0.0150600
802.894	0.0151279
802.972	0.0151287
803.050	0.0150137
803.128	0.0150130
803.206	0.0149752
803.285	0.0148338
803.363	0.0148703
803.441	0.0148161
803.519	0.0147765
803.597	0.0148509
803.675	0.0147175
803.753	0.0146636
803.831	0.0147635
803.910	0.0147866
803.988	0.0147983
804.066	0.0148550
804.144	0.0148733
804.222	0.0147606
804.300	0.0147845
804.378	0.0149275
804.456	0.0149122
804.535	0.0148652
804.613	0.0150154
804.691	0.0149264
804.769	0.0149889
804.847	0.0148550
804.925	0.0148846
805.003	0.0150320
805.081	0.0149810
805.160	0.0148613
805.238	0.0147144
805.316	0.0146880
805.394	0.0146858
805.472	0.0146358
805.550	0.0144038
805.628	0.0144638
805.706	0.0145617
805.785	0.0143964
805.863	0.0144430
805.941	0.0143962
806.019	0.0143436
806.097	0.0144795
806.175	0.0143929
806.253	0.0144208
806.331	0.0143532
806.410	0.0143661
806.488	0.0145232
806.566	0.0144180
806.644	0.0145570
806.722	0.0144940
806.800	0.0144930
806.878	0.0146406
806.956	0.0145759
807.035	0.0146491
807.113	0.0147521
807.191	0.0147958
807.269	0.0146864
807.347	0.0147195
807.425	0.0147891
807.503	0.0149043
807.581	0.0149240
807.660	0.0149945
807.738	0.0151327
807.816	0.0150063
807.894	0.0151001
807.972	0.0151618
808.050	0.0151958
808.128	0.0153056
808.206	0.0151519
808.285	0.0151786
808.363	0.0152592
808.441	0.0151710
808.519	0.0151785
808.597	0.0151429
808.675	0.0152961
808.753	0.0152171
808.831	0.0151991
808.910	0.0154098
808.988	0.0151046
809.066	0.0152991
809.144	0.0153519
809.222	0.0152167
809.300	0.0152314
809.378	0.0151944
809.456	0.0152676
809.535	0.0152177
809.613	0.0151610
809.691	0.0151836
809.769	0.0152846
809.847	0.0152393
809.925	0.0151596
810.003	0.0151716
810.081	0.0152543
810.160	0.0148129
810.238	0.0150791
810.316	0.0149899
810.394	0.0148484
810.472	0.0148645
810.550	0.0147062
810.628	0.0147007
810.706	0.0145583
810.785	0.0145529
810.863	0.0145564
810.941	0.0145818
811.019	0.0145425
811.097	0.0143945
811.175	0.0144224
811.253	0.0144776
811.331	0.0143549
811.410	0.0145231
811.488	0.0144833
811.566	0.0144721
811.644	0.0144505
811.722	0.0144545
811.800	0.0144508
811.878	0.0143270
811.956	0.0144737
812.035	0.0145343
812.113	0.0144616
812.191	0.0143341
812.269	0.0144008
812.347	0.0144154
812.425	0.0145586
812.503	0.0145455
812.581	0.0144482
812.660	0.0145351
812.738	0.0144527
812.816	0.0145882
812.894	0.0146286
812.972	0.0146977
813.050	0.0146671
813.128	0.0147498
813.206	0.0148094
813.285	0.0147795
813.363	0.0147957
813.441	0.0146857
813.519	0.0147952
813.597	0.0149004
813.675	0.0148514
813.753	0.0147095
813.831	0.0148155
813.910	0.0149729
813.988	0.0149973
814.066	0.0150831
814.144	0.0150798
814.222	0.0150536
814.300	0.0152599
814.378	0.0152595
814.456	0.0152491
814.535	0.0152474
814.613	0.0153779
814.691	0.0153514
814.769	0.0153759
814.847	0.0154450
814.925	0.0155067
815.003	0.0154350
815.081	0.0152730
815.160	0.0153151
815.238	0.0152957
815.316	0.0153243
815.394	0.0153074
815.472	0.0152377
815.550	0.0150785
815.628	0.0151887
815.706	0.0150793
815.785	0.0151296
815.863	0.0148572
815.941	0.0149025
816.019	0.0147766
816.097	0.0147880
816.175	0.0148477
816.253	0.0148236
816.331	0.0147089
816.410	0.0147324
816.488	0.0145680
816.566	0.0144534
816.644	0.0145374
816.722	0.0146263
816.800	0.0147432
816.878	0.0146182
816.956	0.0145631
817.035	0.0145921
817.113	0.0144976
817.191	0.0146127
817.269	0.0146570
817.347	0.0147227
817.425	0.0147675
817.503	0.0147478
817.581	0.0145594
817.660	0.0147411
817.738	0.0147677
817.816	0.0149901
817.894	0.0149286
817.972	0.0149184
818.050	0.0148318
818.128	0.0148344
818.206	0.0147770
818.285	0.0149038
818.363	0.0147533
818.441	0.0148119
818.519	0.0147392
818.597	0.0145844
818.675	0.0148006
818.753	0.0148098
818.831	0.0147720
818.910	0.0146659
818.988	0.0146663
819.066	0.0148164
819.144	0.0147163
819.222	0.0147931
819.300	0.0147382
819.378	0.0147795
819.456	0.0148072
819.535	0.0149945
819.613	0.0149904
819.691	0.0149483
819.769	0.0150310
819.847	0.0148975
819.925	0.0150379
820.003	0.0150763
820.081	0.0151633
820.160	0.0150578
820.238	0.0150410
820.316	0.0151443
820.394	0.0153047
820.472	0.0151198
820.550	0.0152240
820.628	0.0151939
820.706	0.0151933
820.785	0.0151348
820.863	0.0153089
820.941	0.0152780
821.019	0.0151025
821.097	0.0149111
821.175	0.0151323
821.253	0.0152475
821.331	0.0150644
821.410	0.0149776
821.488	0.0150867
821.566	0.0149154
821.644	0.0148873
821.722	0.0149602
821.800	0.0149323
821.878	0.0148608
821.956	0.0147554
822.035	0.0148155
822.113	0.0150044
822.191	0.0149825
822.269	0.0148267
822.347	0.0148440
822.425	0.0149872
822.503	0.0149769
822.581	0.0149552
822.660	0.0149861
822.738	0.0148530
822.816	0.0149806
822.894	0.0149412
822.972	0.0149600
823.050	0.0150607
823.128	0.0150074
823.206	0.0148379
823.285	0.0148749
823.363	0.0148890
823.441	0.0148195
823.519	0.0148671
823.597	0.0147523
823.675	0.0148378
823.753	0.0148772
823.831	0.0148029
823.910	0.0147256
823.988	0.0146537
824.066	0.0146984
824.144	0.0146223
824.222	0.0146082
824.300	0.0146832
824.378	0.0147033
824.456	0.0147541
824.535	0.0146942
824.613	0.0146267
824.691	0.0146462
824.769	0.0147360
824.847	0.0146804
824.925	0.0147639
825.003	0.0146665
825.081	0.0145443
825.160	0.0146237
825.238	0.0147346
825.316	0.0147810
825.394	0.0148460
825.472	0.0148251
825.550	0.0148000
825.628	0.0148275
825.706	0.0147398
825.785	0.0147774
825.863	0.0149356
825.941	0.0151167
826.019	0.0150506
826.097	0.0149852
826.175	0.0150554
826.253	0.0150669
826.331	0.0150580
826.410	0.0151331
826.488	0.0150472
826.566	0.0150931
826.644	0.0150494
826.722	0.0150865
826.800	0.0153098
826.878	0.0151455
826.956	0.0150878
827.035	0.0149606
827.113	0.0148740
827.191	0.0149970
827.269	0.0149368
827.347	0.0149823
827.425	0.0148153
827.503	0.0148669
827.581	0.0149415
827.660	0.0148312
827.738	0.0147887
827.816	0.0147804
827.894	0.0147456
827.972	0.0146152
828.050	0.0146661
828.128	0.0146968
828.206	0.0147667
828.285	0.0148260
828.363	0.0147449
828.441	0.0147279
828.519	0.0147268
828.597	0.0147778
828.675	0.0147961
828.753	0.0146886
828.831	0.0146311
828.910	0.0146782
828.988	0.0148741
829.066	0.0147070
829.144	0.0147996
829.222	0.0146703
829.300	0.0147828
829.378	0.0148698
829.456	0.0148613
829.535	0.0149019
829.613	0.0148572
829.691	0.0148596
829.769	0.0148900
829.847	0.0149652
829.925	0.0149737
830.003	0.0149099
830.081	0.0149385
830.160	0.0150036
830.238	0.0149712
830.316	0.0148892
830.394	0.0149360
830.472	0.0149667
830.550	0.0148782
830.628	0.0148771
830.706	0.0147173
830.785	0.0148817
830.863	0.0147680
830.941	0.0146227
831.019	0.0148024
831.097	0.0147327
831.175	0.0147285
831.253	0.0147910
831.331	0.0148692
831.410	0.0147622
831.488	0.0147705
831.566	0.0148470
831.644	0.0149122
831.722	0.0148565
831.800	0.0149179
831.878	0.0148849
831.956	0.0148209
832.035	0.0148071
832.113	0.0147618
832.191	0.0148971
832.269	0.0149957
832.347	0.0150572
832.425	0.0148981
832.503	0.0150323
832.581	0.0150995
832.660	0.0149009
832.738	0.0148736
832.816	0.0149821
832.894	0.0148885
832.972	0.0150504
833.050	0.0149761
833.128	0.0149089
833.206	0.0148507
833.285	0.0147694
833.363	0.0149058
833.441	0.0147958
833.519	0.0147672
833.597	0.0147054
833.675	0.0146925
833.753	0.0147488
833.831	0.0144545
833.910	0.0145273
833.988	0.0144443
834.066	0.0144029
834.144	0.0144379
834.222	0.0144200
834.300	0.0143990
834.378	0.0143324
834.456	0.0143559
834.535	0.0142839
834.613	0.0143626
834.691	0.0144830
834.769	0.0145696
834.847	0.0147346
834.925	0.0145998
835.003	0.0145303
835.081	0.0146957
835.160	0.0146221
835.238	0.0147995
835.316	0.0150002
835.394	0.0148821
835.472	0.0149121
835.550	0.0150192
835.628	0.0148970
835.706	0.0149524
835.785	0.0150366
835.863	0.0148740
835.941	0.0149441
836.019	0.0149625
836.097	0.0151202
836.175	0.0151136
836.253	0.0150730
836.331	0.0149918
836.410	0.0151108
836.488	0.0151014
836.566	0.0150694
836.644	0.0151782
836.722	0.0151018
836.800	0.0150614
836.878	0.0148172
836.956	0.0148708
837.035	0.0150268
837.113	0.0152129
837.191	0.0151263
837.269	0.0150194
837.347	0.0150871
837.425	0.0149963
837.503	0.0149066
837.581	0.0149368
837.660	0.0149217
837.738	0.0148187
837.816	0.0149496
837.894	0.0148824
837.972	0.0148991
838.050	0.0149439
838.128	0.0148293
838.206	0.0147459
838.285	0.0147926
838.363	0.0148110
838.441	0.0148499
838.519	0.0148338
838.597	0.0146735
838.675	0.0147064
838.753	0.0147774
838.831	0.0148127
838.910	0.0148029
838.988	0.0148333
839.066	0.0146857
839.144	0.0146579
839.222	0.0145724
839.300	0.0145516
839.378	0.0145949
839.456	0.0146839
839.535	0.0146301
839.613	0.0147932
839.691	0.0146426
839.769	0.0145877
839.847	0.0144563
839.925	0.0145706
840.003	0.0146284
840.081	0.0144891
840.160	0.0144867
840.238	0.0146889
840.316	0.0146572
840.394	0.0148226
840.472	0.0147279
840.550	0.0147294
840.628	0.0147467
840.706	0.0147601
840.785	0.0146581
840.863	0.0146851
840.941	0.0148448
841.019	0.0149782
841.097	0.0149245
841.175	0.0149029
841.253	0.0149258
841.331	0.0149495
841.410	0.0148956
841.488	0.0150514
841.566	0.0151008
841.644	0.0150356
841.722	0.0149094
841.800	0.0150889
841.878	0.0151403
841.956	0.0151057
842.035	0.0152084
842.113	0.0152097
842.191	0.0151555
842.269	0.0152055
842.347	0.0151992
842.425	0.0151762
842.503	0.0152261
842.581	0.0152176
842.660	0.0152029
842.738	0.0150896
842.816	0.0152442
842.894	0.0151197
842.972	0.0151888
843.050	0.0151056
843.128	0.0149120
843.206	0.0150593
843.285	0.0151071
843.363	0.0150069
843.441	0.0148949
843.519	0.0148838
843.597	0.0148103
843.675	0.0147996
843.753	0.0147767
843.831	0.0147421
843.910	0.0146859
843.988	0.0147333
844.066	0.0146822
844.144	0.0147727
844.222	0.0148144
844.300	0.0148055
844.378	0.0146278
844.456	0.0146413
844.535	0.0148119
844.613	0.0148177
844.691	0.0146645
844.769	0.0146397
844.847	0.0147998
844.925	0.0147778
845.003	0.0147826
845.081	0.0148768
845.160	0.0147655
845.238	0.0147657
845.316	0.0150025
845.394	0.0148470
845.472	0.0146973
845.550	0.0147756
845.628	0.0148365
845.706	0.0148430
845.785	0.0147092
845.863	0.0146764
845.941	0.0146549
846.019	0.0148347
846.097	0.0147721
846.175	0.0147843
846.253	0.0147140
846.331	0.0148252
846.410	0.0148218
846.488	0.0149036
846.566	0.0149442
846.644	0.0149174
846.722	0.0148237
846.800	0.0148156
846.878	0.0149481
846.956	0.0150047
847.035	0.0149950
847.113	0.0149570
847.191	0.0149854
847.269	0.0149741
847.347	0.0149516
847.425	0.0147868
847.503	0.0149585
847.581	0.0149773
847.660	0.0150136
847.738	0.0149487
847.816	0.0150111
847.894	0.0150301
847.972	0.0150572
848.050	0.0150533
848.128	0.0150939
848.206	0.0151655
848.285	0.0151733
848.363	0.0149870
848.441	0.0149978
848.519	0.0150877
848.597	0.0150576
848.675	0.0148709
848.753	0.0149142
848.831	0.0149074
848.910	0.0147647
848.988	0.0146387
849.066	0.0148651
849.144	0.0146365
849.222	0.0147751
849.300	0.0148241
849.378	0.0146691
849.456	0.0146738
849.535	0.0148179
849.613	0.0147481
849.691	0.0148203
849.769	0.0145952
849.847	0.0147727
849.925	0.0147325
850.003	0.0146843
850.081	0.0147219
850.160	0.0148627
850.238	0.0148686
850.316	0.0148537
850.394	0.0148158
850.472	0.0147017
850.550	0.0147506
850.628	0.0148724
850.706	0.0149625
850.785	0.0149683
850.863	0.0149108
850.941	0.0148875
851.019	0.0149986
851.097	0.0149947
851.175	0.0149574
851.253	0.0150311
851.331	0.0147766
851.410	0.0148547
851.488	0.0149523
851.566	0.0147250
851.644	0.0147274
851.722	0.0147427
851.800	0.0147723
851.878	0.0145874
851.956	0.0147128
852.035	0.0146531
852.113	0.0146960
852.191	0.0148122
852.269	0.0147456
852.347	0.0147523
852.425	0.0147287
852.503	0.0147397
852.581	0.0146841
852.660	0.0146062
852.738	0.0146055
852.816	0.0146970
852.894	0.0144733
852.972	0.0146152
853.050	0.0145575
853.128	0.0144929
853.206	0.0146671
853.285	0.0145627
853.363	0.0147332
853.441	0.0146727
853.519	0.0147733
853.597	0.0148556
853.675	0.0147820
853.753	0.0148425
853.831	0.0148753
853.910	0.0147823
853.988	0.0148994
854.066	0.0149707
854.144	0.0149532
854.222	0.0148871
854.300	0.0148640
854.378	0.0149517
854.456	0.0149065
854.535	0.0150201
854.613	0.0148693
854.691	0.0149334
854.769	0.0150613
854.847	0.0149033
854.925	0.0149852
855.003	0.0150742
855.081	0.0150120
855.160	0.0149218
855.238	0.0150883
855.316	0.0149640
855.394	0.0150883
855.472	0.0150014
855.550	0.0150280
855.628	0.0150550
855.706	0.0149151
855.785	0.0149696
855.863	0.0149828
855.941	0.0149081
856.019	0.0150628
856.097	0.0149358
856.175	0.0147531
856.253	0.0148134
856.331	0.0147688
856.410	0.0149303
856.488	0.0147361
856.566	0.0147186
856.644	0.0147269
856.722	0.0147350
856.800	0.0147473
856.878	0.0148026
856.956	0.0146812
857.035	0.0146559
857.113	0.0146280
857.191	0.0146688
857.269	0.0147193
857.347	0.0147748
857.425	0.0146583
857.503	0.0146032
857.581	0.0146738
857.660	0.0146566
857.738	0.0146680
857.816	0.0145879
857.894	0.0146973
857.972	0.0144968
858.050	0.0146131
858.128	0.0144762
858.206	0.0143906
858.285	0.0144373
858.363	0.0145843
858.441	0.0145289
858.519	0.0146263
858.597	0.0144887
858.675	0.0144670
858.753	0.0146553
858.831	0.0146310
858.910	0.0146278
858.988	0.0146885
859.066	0.0147555
859.144	0.0146670
859.222	0.0146231
859.300	0.0146436
859.378	0.0146243
859.456	0.0148127
859.535	0.0146092
859.613	0.0147783
859.691	0.0147749
859.769	0.0148315
859.847	0.0149586
859.925	0.0149118
860.003	0.0148420
860.081	0.0148636
860.160	0.0150047
860.238	0.0149899
860.316	0.0149448
860.394	0.0149278
860.472	0.0150893
860.550	0.0151346
860.628	0.0152826
860.706	0.0152211
860.785	0.0153017
860.863	0.0152645
860.941	0.0153522
861.019	0.0153667
861.097	0.0153665
861.175	0.0154255
861.253	0.0155396
861.331	0.0154347
861.410	0.0153235
861.488	0.0152827
861.566	0.0153484
861.644	0.0153714
861.722	0.0152874
861.800	0.0151990
861.878	0.0151823
861.956	0.0150108
862.035	0.0149696
862.113	0.0150169
862.191	0.0150780
862.269	0.0149026
862.347	0.0150908
862.425	0.0149461
862.503	0.0148735
862.581	0.0147577
862.660	0.0147472
862.738	0.0148166
862.816	0.0147585
862.894	0.0146584
862.972	0.0146136
863.050	0.0146973
863.128	0.0146000
863.206	0.0146901
863.285	0.0145769
863.363	0.0145485
863.441	0.0145988
863.519	0.0144251
863.597	0.0145148
863.675	0.0145790
863.753	0.0146064
863.831	0.0145094
863.910	0.0144312
863.988	0.0144146
864.066	0.0144231
864.144	0.0144775
864.222	0.0144921
864.300	0.0145254
864.378	0.0145412
864.456	0.0146737
864.535	0.0146019
864.613	0.0146572
864.691	0.0145448
864.769	0.0146880
864.847	0.0148450
864.925	0.0148184
865.003	0.0147318
865.081	0.0147898
865.160	0.0147232
865.238	0.0148208
865.316	0.0148712
865.394	0.0149717
865.472	0.0148008
865.550	0.0148644
865.628	0.0148922
865.706	0.0149027
865.785	0.0149448
865.863	0.0150417
865.941	0.0148324
866.019	0.0148631
866.097	0.0149775
866.175	0.0150598
866.253	0.0150637
866.331	0.0151230
866.410	0.0150774
866.488	0.0152357
866.566	0.0150684
866.644	0.0153870
866.722	0.0152503
866.800	0.0153595
866.878	0.0152349
866.956	0.0154628
867.035	0.0153255
867.113	0.0153127
867.191	0.0152749
867.269	0.0152554
867.347	0.0152703
867.425	0.0153251
867.503	0.0153503
867.581	0.0152763
867.660	0.0150455
867.738	0.0150822
867.816	0.0150634
867.894	0.0151144
867.972	0.0150056
868.050	0.0149981
868.128	0.0149266
868.206	0.0148965
868.285	0.0147851
868.363	0.0148020
868.441	0.0147647
868.519	0.0148393
868.597	0.0148051
868.675	0.0147139
868.753	0.0148100
868.831	0.0147330
868.910	0.0146280
868.988	0.0147389
869.066	0.0147505
869.144	0.0145560
869.222	0.0146256
869.300	0.0144844
869.378	0.0146162
869.456	0.0145440
869.535	0.0145366
869.613	0.0145422
869.691	0.0144545
869.769	0.0144103
869.847	0.0144367
869.925	0.0143880
870.003	0.0144065
870.081	0.0144286
870.160	0.0144241
870.238	0.0146166
870.316	0.0145215
870.394	0.0144872
870.472	0.0146268
870.550	0.0146368
870.628	0.0146998
870.706	0.0145795
870.785	0.0146594
870.863	0.0146906
870.941	0.0147757
871.019	0.0148003
871.097	0.0148413
871.175	0.0149113
871.253	0.0149074
871.331	0.0150006
871.410	0.0149930
871.488	0.0149920
871.566	0.0149071
871.644	0.0149589
871.722	0.0149971
871.800	0.0151151
871.878	0.0151022
871.956	0.0152762
872.035	0.0152534
872.113	0.0152848
872.191	0.0152271
872.269	0.0152797
872.347	0.0154171
872.425	0.0152808
872.503	0.0154929
872.581	0.0152843
872.660	0.0151968
872.738	0.0152132
872.816	0.0154372
872.894	0.0152719
872.972	0.0152925
873.050	0.0151759
873.128	0.0152589
873.206	0.0152722
873.285	0.0151988
873.363	0.0152004
873.441	0.0150480
873.519	0.0151231
873.597	0.0150575
873.675	0.0150407
873.753	0.0149990
873.831	0.0150109
873.910	0.0149125
873.988	0.0148644
874.066	0.0148822
874.144	0.0148166
874.222	0.0147724
874.300	0.0148261
874.378	0.0146628
874.456	0.0147095
874.535	0.0147147
874.613	0.0145969
874.691	0.0146464
874.769	0.0145924
874.847	0.0146144
874.925	0.0144442
875.003	0.0145644
875.081	0.0146812
875.160	0.0145097
875.238	0.0145696
875.316	0.0145476
875.394	0.0145576
875.472	0.0146315
875.550	0.0146189
875.628	0.0145893
875.706	0.0146408
875.785	0.0145861
875.863	0.0145291
875.941	0.0144684
876.019	0.0144804
876.097	0.0145091
876.175	0.0145679
876.253	0.0146508
876.331	0.0145393
876.410	0.0144718
876.488	0.0145448
876.566	0.0146445
876.644	0.0145387
876.722	0.0146152
876.800	0.0148041
876.878	0.0146951
876.956	0.0147057
877.035	0.0149034
877.113	0.0146950
877.191	0.0147434
877.269	0.0147572
877.347	0.0149533
877.425	0.0148815
877.503	0.0148655
877.581	0.0148480
877.660	0.0149908
877.738	0.0149640
877.816	0.0149094
877.894	0.0149327
877.972	0.0150303
878.050	0.0150795
878.128	0.0152020
878.206	0.0151513
878.285	0.0151689
878.363	0.0151305
878.441	0.0150979
878.519	0.0150862
878.597	0.0150826
878.675	0.0150594
878.753	0.0150238
878.831	0.0150185
878.910	0.0150948
878.988	0.0151302
879.066	0.0149065
879.144	0.0148483
879.222	0.0150443
879.300	0.0149665
879.378	0.0147518
879.456	0.0147102
879.535	0.0148847
879.613	0.0148333
879.691	0.0149001
879.769	0.0148131
879.847	0.0145429
879.925	0.0147690
880.003	0.0149017
880.081	0.0147655
880.160	0.0148209
880.238	0.0147308
880.316	0.0147173
880.394	0.0146121
880.472	0.0147334
880.550	0.0146013
880.628	0.0145981
880.706	0.0145718
880.785	0.0145914
880.863	0.0145625
880.941	0.0144562
881.019	0.0145071
881.097	0.0144406
881.175	0.0144158
881.253	0.0144106
881.331	0.0144860
881.410	0.0145701
881.488	0.0145518
881.566	0.0145919
881.644	0.0145148
881.722	0.0146464
881.800	0.0144769
881.878	0.0145589
881.956	0.0146172
882.035	0.0147138
882.113	0.0145134
882.191	0.0146619
882.269	0.0145640
882.347	0.0145918
882.425	0.0147866
882.503	0.0147231
882.581	0.0146220
882.660	0.0147325
882.738	0.0146725
882.816	0.0147727
882.894	0.0149354
882.972	0.0147789
883.050	0.0147866
883.128	0.0149577
883.206	0.0149287
883.285	0.0149247
883.363	0.0148795
883.441	0.0149712
883.519	0.0150681
883.597	0.0150330
883.675	0.0150449
883.753	0.0150754
883.831	0.0151649
883.910	0.0150969
883.988	0.0150926
884.066	0.0151107
884.144	0.0152089
884.222	0.0151173
884.300	0.0151401
884.378	0.0152621
884.456	0.0151146
884.535	0.0151649
884.613	0.0151560
884.691	0.0152110
884.769	0.0151020
884.847	0.0150978
884.925	0.0151435
885.003	0.0150495
885.081	0.0150462
885.160	0.0150729
885.238	0.0149847
885.316	0.0150715
885.394	0.0149785
885.472	0.0150111
885.550	0.0150491
885.628	0.0149193
885.706	0.0149950
885.785	0.0150974
885.863	0.0150872
885.941	0.0149976
886.019	0.0151028
886.097	0.0149345
886.175	0.0149584
886.253	0.0149651
886.331	0.0149208
886.410	0.0148030
886.488	0.0147651
886.566	0.0147260
886.644	0.0147195
886.722	0.0147752
886.800	0.0145931
886.878	0.0146387
886.956	0.0146291
887.035	0.0144491
887.113	0.0144810
887.191	0.0146334
887.269	0.0145315
887.347	0.0145889
887.425	0.0144691
887.503	0.0145202
887.581	0.0145448
887.660	0.0145407
887.738	0.0143659
887.816	0.0144620
887.894	0.0146766
887.972	0.0146528
888.050	0.0145441
888.128	0.0145806
888.206	0.0145781
888.285	0.0146955
888.363	0.0147066
888.441	0.0148948
888.519	0.0148481
888.597	0.0147606
888.675	0.0148672
888.753	0.0148422
888.831	0.0150989
888.910	0.0150902
888.988	0.0148420
889.066	0.0149866
889.144	0.0151453
889.222	0.0151794
889.300	0.0150776
889.378	0.0149640
889.456	0.0149856
889.535	0.0150372
889.613	0.0151456
889.691	0.0151979
889.769	0.0150599
889.847	0.0149590
889.925	0.0150503
890.003	0.0150437
890.081	0.0149384
890.160	0.0150805
890.238	0.0149422
890.316	0.0150834
890.394	0.0149841
890.472	0.0148730
890.550	0.0150690
890.628	0.0148205
890.706	0.0148260
890.785	0.0149776
890.863	0.0148897
890.941	0.0149651
891.019	0.0149014
891.097	0.0149214
891.175	0.0148528
891.253	0.0148660
891.331	0.0148302
891.410	0.0149036
891.488	0.0148025
891.566	0.0148271
891.644	0.0147724
891.722	0.0150380
891.800	0.0149104
891.878	0.0147359
891.956	0.0147673
892.035	0.0147823
892.113	0.0149123
892.191	0.0148097
892.269	0.0147585
892.347	0.0149170
892.425	0.0148597
892.503	0.0149223
892.581	0.0148962
892.660	0.0149332
892.738	0.0149232
892.816	0.0148351
892.894	0.0149008
892.972	0.0149474
893.050	0.0149724
893.128	0.0147333
893.206	0.0147845
893.285	0.0148955
893.363	0.0148279
893.441	0.0147672
893.519	0.0148330
893.597	0.0148743
893.675	0.0147559
893.753	0.0147733
893.831	0.0147840
893.910	0.0148119
893.988	0.0148445
894.066	0.0148046
894.144	0.0147331
894.222	0.0148368
894.300	0.0148193
894.378	0.0147842
894.456	0.0147498
894.535	0.0149007
894.613	0.0150060
894.691	0.0148872
894.769	0.0148457
894.847	0.0147048
894.925	0.0147356
895.003	0.0149082
895.081	0.0147013
895.160	0.0146313
895.238	0.0148110
895.316	0.0149097
895.394	0.0148601
895.472	0.0147385
895.550	0.0149107
895.628	0.0147475
895.706	0.0147409
895.785	0.0148769
895.863	0.0149007
895.941	0.0149718
896.019	0.0149043
896.097	0.0149674
896.175	0.0148598
896.253	0.0148766
896.331	0.0149412
896.410	0.0149068
896.488	0.0148605
896.566	0.0151044
896.644	0.0149687
896.722	0.0149625
896.800	0.0150694
896.878	0.0149673
896.956	0.0149291
897.035	0.0150194
897.113	0.0149689
897.191	0.0150114
897.269	0.0150619
897.347	0.0150716
897.425	0.0151686
897.503	0.0149591
897.581	0.0150203
897.660	0.0149516
897.738	0.0148547
897.816	0.0148666
897.894	0.0148867
897.972	0.0148339
898.050	0.0149513
898.128	0.0148355
898.206	0.0148497
898.285	0.0147012
898.363	0.0147778
898.441	0.0148155
898.519	0.0146338
898.597	0.0146347
898.675	0.0145953
898.753	0.0147662
898.831	0.0145345
898.910	0.0145359
898.988	0.0146842
899.066	0.0147310
899.144	0.0147189
899.222	0.0147390
899.300	0.0147699
899.378	0.0146030
899.456	0.0146533
899.535	0.0147300
899.613	0.0147427
899.691	0.0147335
899.769	0.0145401
899.847	0.0147334
899.925	0.0147768
900.003	0.0148167
900.081	0.0146844
900.160	0.0148463
900.238	0.0147277
900.316	0.0146856
900.394	0.0147316
900.472	0.0148361
900.550	0.0149586
900.628	0.0147301
900.706	0.0146011
900.785	0.0147699
900.863	0.0148130
900.941	0.0146882
901.019	0.0147589
901.097	0.0147472
901.175	0.0145618
901.253	0.0147038
901.331	0.0147816
901.410	0.0147503
901.488	0.0145557
901.566	0.0148139
901.644	0.0148433
901.722	0.0147424
901.800	0.0147892
901.878	0.0148298
901.956	0.0149020
902.035	0.0149236
902.113	0.0149853
902.191	0.0150388
902.269	0.0150321
902.347	0.0149670
902.425	0.0149960
902.503	0.0151829
902.581	0.0150867
902.660	0.0149507
902.738	0.0149355
902.816	0.0150935
902.894	0.0148531
902.972	0.0149211
903.050	0.0148706
903.128	0.0149663
903.206	0.0149055
903.285	0.0148151
903.363	0.0148581
903.441	0.0146642
903.519	0.0147658
903.597	0.0147619
903.675	0.0146070
903.753	0.0145889
903.831	0.0144419
903.910	0.0144904
903.988	0.0145210
904.066	0.0146114
904.144	0.0145482
904.222	0.0145792
904.300	0.0145570
904.378	0.0144569
904.456	0.0145657
904.535	0.0144720
904.613	0.0144975
904.691	0.0146098
904.769	0.0146222
904.847	0.0147360
904.925	0.0146018
905.003	0.0146734
905.081	0.0148341
905.160	0.0148244
905.238	0.0147808
905.316	0.0148816
905.394	0.0148837
905.472	0.0149091
905.550	0.0149673
905.628	0.0148409
905.706	0.0149888
905.785	0.0150674
905.863	0.0149218
905.941	0.0149300
906.019	0.0148753
906.097	0.0148154
906.175	0.0146963
906.253	0.0145496
906.331	0.0146703
906.410	0.0147384
906.488	0.0148362
906.566	0.0148982
906.644	0.0147926
906.722	0.0148855
906.800	0.0148899
906.878	0.0150768
906.956	0.0150274
907.035	0.0150191
907.113	0.0150521
907.191	0.0151817
907.269	0.0151976
907.347	0.0150711
907.425	0.0152502
907.503	0.0153115
907.581	0.0151303
907.660	0.0152654
907.738	0.0151531
907.816	0.0151886
907.894	0.0152044
907.972	0.0150569
908.050	0.0150851
908.128	0.0149788
908.206	0.0148908
908.285	0.0149261
908.363	0.0149012
908.441	0.0147792
908.519	0.0147453
908.597	0.0145817
908.675	0.0143654
908.753	0.0146146
908.831	0.0144593
908.910	0.0142725
908.988	0.0143627
909.066	0.0144743
909.144	0.0143896
909.222	0.0143719
909.300	0.0142831
909.378	0.0143255
909.456	0.0144315
909.535	0.0142851
909.613	0.0144866
909.691	0.0145159
909.769	0.0144366
909.847	0.0146364
909.925	0.0146372
910.003	0.0145659
910.081	0.0146606
910.160	0.0148247
910.238	0.0147625
910.316	0.0147688
910.394	0.0148058
910.472	0.0148975
910.550	0.0148775
910.628	0.0149894
910.706	0.0149556
910.785	0.0149546
910.863	0.0150568
910.941	0.0150293
911.019	0.0149351
911.097	0.0151048
911.175	0.0149768
911.253	0.0149506
911.331	0.0150289
911.410	0.0150404
911.488	0.0151081
911.566	0.0151120
911.644	0.0152164
911.722	0.0151227
911.800	0.0152299
911.878	0.0152306
911.956	0.0151225
912.035	0.0152699
912.113	0.0154151
912.191	0.0153789
912.269	0.0152721
912.347	0.0153672
912.425	0.0152866
912.503	0.0153370
912.581	0.0151852
912.660	0.0151102
912.738	0.0151233
912.816	0.0151933
912.894	0.0151834
912.972	0.0151016
913.050	0.0150059
913.128	0.0149404
913.206	0.0148085
913.285	0.0149110
913.363	0.0147910
913.441	0.0146641
913.519	0.0145830
913.597	0.0146872
913.675	0.0146114
913.753	0.0145124
913.831	0.0144408
913.910	0.0145152
913.988	0.0145183
914.066	0.0144950
914.144	0.0144509
914.222	0.0145461
914.300	0.0144959
914.378	0.0144370
914.456	0.0145263
914.535	0.0144564
914.613	0.0143829
914.691	0.0146533
914.769	0.0146442
914.847	0.0146578
914.925	0.0146200
915.003	0.0146499
915.081	0.0147292
915.160	0.0146096
915.238	0.0147517
915.316	0.0149319
915.394	0.0149171
915.472	0.0148995
915.550	0.0149960
915.628	0.0148979
915.706	0.0148125
915.785	0.0148534
915.863	0.0149265
915.941	0.0150074
916.019	0.0148347
916.097	0.0148680
916.175	0.0147576
916.253	0.0148720
916.331	0.0150475
916.410	0.0149357
916.488	0.0149042
916.566	0.0148871
916.644	0.0149643
916.722	0.0150344
916.800	0.0151232
916.878	0.0150661
916.956	0.0150893
917.035	0.0152392
917.113	0.0152557
917.191	0.0152736
917.269	0.0151396
917.347	0.0151806
917.425	0.0153860
917.503	0.0151161
917.581	0.0151212
917.660	0.0151255
917.738	0.0150583
917.816	0.0150261
917.894	0.0149448
917.972	0.0151641
918.050	0.0149301
918.128	0.0147499
918.206	0.0146808
918.285	0.0148737
918.363	0.0148981
918.441	0.0148035
918.519	0.0146922
918.597	0.0147176
918.675	0.0149170
918.753	0.0147444
918.831	0.0147118
918.910	0.0146548
918.988	0.0147971
919.066	0.0148064
919.144	0.0147958
919.222	0.0147841
919.300	0.0148159
919.378	0.0147923
919.456	0.0148919
919.535	0.0146929
919.613	0.0147974
919.691	0.0147725
919.769	0.0147576
919.847	0.0148948
919.925	0.0147421
920.003	0.0148094
920.081	0.0147868
920.160	0.0147626
920.238	0.0147526
920.316	0.0148267
920.394	0.0147785
920.472	0.0148893
920.550	0.0148352
920.628	0.0147685
920.706	0.0149419
920.785	0.0148887
920.863	0.0149257
920.941	0.0149348
921.019	0.0150238
921.097	0.0149730
921.175	0.0150724
921.253	0.0149267
921.331	0.0148857
921.410	0.0148744
921.488	0.0149335
921.566	0.0148843
921.644	0.0149140
921.722	0.0148495
921.800	0.0148721
921.878	0.0147810
921.956	0.0147870
922.035	0.0146884
922.113	0.0147236
922.191	0.0148878
922.269	0.0147504
922.347	0.0146342
922.425	0.0148057
922.503	0.0149046
922.581	0.0148029
922.660	0.0147549
922.738	0.0148343
922.816	0.0148210
922.894	0.0148208
922.972	0.0148469
923.050	0.0145530
923.128	0.0147123
923.206	0.0148354
923.285	0.0147950
923.363	0.0147350
923.441	0.0147273
923.519	0.0147683
923.597	0.0146972
923.675	0.0147312
923.753	0.0147659
923.831	0.0147791
923.910	0.0147293
923.988	0.0146729
924.066	0.0148660
924.144	0.0147102
924.222	0.0145514
924.300	0.0147263
924.378	0.0148119
924.456	0.0146766
924.535	0.0147167
924.613	0.0146706
924.691	0.0148515
924.769	0.0147091
924.847	0.0148069
924.925	0.0147387
925.003	0.0147576
925.081	0.0147430
925.160	0.0148524
925.238	0.0149258
925.316	0.0149614
925.394	0.0149313
925.472	0.0148775
925.550	0.0150732
925.628	0.0149837
925.706	0.0148956
925.785	0.0148962
925.863	0.0149861
925.941	0.0150992
926.019	0.0150085
926.097	0.0150282
926.175	0.0150709
926.253	0.0148829
926.331	0.0148450
926.410	0.0147980
926.488	0.0147605
926.566	0.0147542
926.644	0.0149245
926.722	0.0146535
926.800	0.0146600
926.878	0.0147579
926.956	0.0148170
927.035	0.0148100
927.113	0.0147747
927.191	0.0147362
927.269	0.0147221
927.347	0.0147519
927.425	0.0148917
927.503	0.0148843
927.581	0.0147036
927.660	0.0149017
927.738	0.0149735
927.816	0.0148331
927.894	0.0148225
927.972	0.0146838
928.050	0.0146715
928.128	0.0148662
928.206	0.0147842
928.285	0.0147350
928.363	0.0146914
928.441	0.0147228
928.519	0.0148347
928.597	0.0146920
928.675	0.0146236
928.753	0.0147761
928.831	0.0145480
928.910	0.0145902
928.988	0.0146366
929.066	0.0146832
929.144	0.0146191
929.222	0.0146061
929.300	0.0145718
929.378	0.0148119
929.456	0.0148062
929.535	0.0147102
929.613	0.0147250
929.691	0.0145998
929.769	0.0147701
929.847	0.0148946
929.925	0.0147473
930.003	0.0147976
930.081	0.0147598
930.160	0.0147819
930.238	0.0148259
930.316	0.0149231
930.394	0.0148843
930.472	0.0148854
930.550	0.0149434
930.628	0.0148051
930.706	0.0148589
930.785	0.0150212
930.863	0.0150191
930.941	0.0148320
931.019	0.0149048
931.097	0.0148257
931.175	0.0148692
931.253	0.0150384
931.331	0.0147775
931.410	0.0149495
931.488	0.0148773
931.566	0.0147075
931.644	0.0147965
931.722	0.0148483
931.800	0.0148750
931.878	0.0148468
931.956	0.0147448
932.035	0.0149049
932.113	0.0147751
932.191	0.0148956
932.269	0.0149543
932.347	0.0147705
932.425	0.0149241
932.503	0.0149530
932.581	0.0149731
932.660	0.0148868
932.738	0.0149229
932.816	0.0147687
932.894	0.0148170
932.972	0.0149202
933.050	0.0148634
933.128	0.0149198
933.206	0.0148675
933.285	0.0148772
933.363	0.0149236
933.441	0.0148655
933.519	0.0149774
933.597	0.0148543
933.675	0.0147935
933.753	0.0148232
933.831	0.0149370
933.910	0.0147974
933.988	0.0148782
934.066	0.0148673
934.144	0.0146302
934.222	0.0149151
934.300	0.0147400
934.378	0.0145802
934.456	0.0146478
934.535	0.0147151
934.613	0.0145718
934.691	0.0145755
934.769	0.0145760
934.847	0.0145872
934.925	0.0145979
935.003	0.0146050
935.081	0.0146513
935.160	0.0146099
935.238	0.0145609
935.316	0.0145252
935.394	0.0145555
935.472	0.0146601
935.550	0.0147102
935.628	0.0146216
935.706	0.0147222
935.785	0.0147783
935.863	0.0148561
935.941	0.0147998
936.019	0.0150051
936.097	0.0149106
936.175	0.0148528
936.253	0.0149281
936.331	0.0151030
936.410	0.0150591
936.488	0.0150034
936.566	0.0150813
936.644	0.0151584
936.722	0.0149519
936.800	0.0149596
936.878	0.0149570
936.956	0.0150014
937.035	0.0151730
937.113	0.0149967
937.191	0.0150420
937.269	0.0151311
937.347	0.0150506
937.425	0.0151023
937.503	0.0150432
937.581	0.0149300
937.660	0.0151155
937.738	0.0151041
937.816	0.0150768
937.894	0.0150205
937.972	0.0150378
938.050	0.0151948
938.128	0.0151368
938.206	0.0149416
938.285	0.0149186
938.363	0.0150785
938.441	0.0149034
938.519	0.0149489
938.597	0.0150051
938.675	0.0147879
938.753	0.0150318
938.831	0.0148728
938.910	0.0149361
938.988	0.0149529
939.066	0.0147899
939.144	0.0147607
939.222	0.0147329
939.300	0.0147382
939.378	0.0146746
939.456	0.0145000
939.535	0.0145207
939.613	0.0145905
939.691	0.0147139
939.769	0.0146202
939.847	0.0145139
939.925	0.0146383
940.003	0.0146799
940.081	0.0146938
940.160	0.0147179
940.238	0.0147806
940.316	0.0147394
940.394	0.0147914
940.472	0.0148383
940.550	0.0148695
940.628	0.0148061
940.706	0.0147992
940.785	0.0148385
940.863	0.0149401
940.941	0.0149801
941.019	0.0150163
941.097	0.0150784
941.175	0.0149955
941.253	0.0150115
941.331	0.0150060
941.410	0.0151321
941.488	0.0150155
941.566	0.0150822
941.644	0.0150088
941.722	0.0150634
941.800	0.0149834
941.878	0.0149960
941.956	0.0151837
942.035	0.0150032
942.113	0.0149277
942.191	0.0150230
942.269	0.0150499
942.347	0.0150201
942.425	0.0148104
942.503	0.0148533
942.581	0.0148543
942.660	0.0149372
942.738	0.0149033
942.816	0.0149335
942.894	0.0148601
942.972	0.0149483
943.050	0.0148969
943.128	0.0148589
943.206	0.0150867
943.285	0.0150374
943.363	0.0150606
943.441	0.0149867
943.519	0.0150711
943.597	0.0150802
943.675	0.0150718
943.753	0.0149557
943.831	0.0149545
943.910	0.0149028
943.988	0.0147862
944.066	0.0147923
944.144	0.0147714
944.222	0.0148756
944.300	0.0148124
944.378	0.0148505
944.456	0.0147392
944.535	0.0148695
944.613	0.0148572
944.691	0.0148382
944.769	0.0148578
944.847	0.0149675
944.925	0.0148119
945.003	0.0148142
945.081	0.0148682
945.160	0.0148840
945.238	0.0148655
945.316	0.0148363
945.394	0.0148447
945.472	0.0147868
945.550	0.0146665
945.628	0.0146326
945.706	0.0147405
945.785	0.0145937
945.863	0.0147853
945.941	0.0149136
946.019	0.0147041
946.097	0.0147564
946.175	0.0147836
946.253	0.0147346
946.331	0.0147601
946.410	0.0148802
946.488	0.0149557
946.566	0.0148430
946.644	0.0148776
946.722	0.0148587
946.800	0.0148872
946.878	0.0149669
946.956	0.0148634
947.035	0.0148066
947.113	0.0149873
947.191	0.0149194
947.269	0.0148564
947.347	0.0149076
947.425	0.0150143
947.503	0.0149975
947.581	0.0149933
947.660	0.0150781
947.738	0.0149961
947.816	0.0149712
947.894	0.0149768
947.972	0.0151328
948.050	0.0151057
948.128	0.0151126
948.206	0.0150652
948.285	0.0150157
948.363	0.0151443
948.441	0.0150574
948.519	0.0150999
948.597	0.0151904
948.675	0.0151791
948.753	0.0151644
948.831	0.0151865
948.910	0.0150779
948.988	0.0151360
949.066	0.0150897
949.144	0.0150433
949.222	0.0148893
949.300	0.0150280
949.378	0.0151081
949.456	0.0149931
949.535	0.0149212
949.613	0.0148457
949.691	0.0149242
949.769	0.0147965
949.847	0.0147272
949.925	0.0147973
950.003	0.0147272
950.081	0.0145345
950.160	0.0145054
950.238	0.0146276
950.316	0.0145472
950.394	0.0144328
950.472	0.0143864
950.550	0.0142541
950.628	0.0144698
950.706	0.0144853
950.785	0.0144792
950.863	0.0145226
950.941	0.0144137
951.019	0.0144201
951.097	0.0144804
951.175	0.0144096
951.253	0.0143640
951.331	0.0146059
951.410	0.0146809
951.488	0.0147091
951.566	0.0145950
951.644	0.0147784
951.722	0.0147699
951.800	0.0146263
951.878	0.0146239
951.956	0.0146549
952.035	0.0147842
952.113	0.0147706
952.191	0.0148009
952.269	0.0147733
952.347	0.0147114
952.425	0.0148985
952.503	0.0147426
952.581	0.0148275
952.660	0.0148355
952.738	0.0149473
952.816	0.0147334
952.894	0.0148446
952.972	0.0149076
953.050	0.0148808
953.128	0.0148679
953.206	0.0149317
953.285	0.0149849
953.363	0.0149694
953.441	0.0148958
953.519	0.0150549
953.597	0.0151613
953.675	0.0150070
953.753	0.0151341
953.831	0.0150336
953.910	0.0151788
953.988	0.0152789
954.066	0.0152219
954.144	0.0151961
954.222	0.0150937
954.300	0.0151813
954.378	0.0149557
954.456	0.0151373
954.535	0.0150307
954.613	0.0150031
954.691	0.0149759
954.769	0.0149668
954.847	0.0148730
954.925	0.0149165
955.003	0.0148129
955.081	0.0148402
955.160	0.0147859
955.238	0.0148633
955.316	0.0146646
955.394	0.0145148
955.472	0.0147096
955.550	0.0145412
955.628	0.0144097
955.706	0.0144955
955.785	0.0145663
955.863	0.0145729
955.941	0.0143266
956.019	0.0144543
956.097	0.0144077
956.175	0.0145303
956.253	0.0144591
956.331	0.0145299
956.410	0.0144621
956.488	0.0144508
956.566	0.0144398
956.644	0.0146252
956.722	0.0145747
956.800	0.0146821
956.878	0.0147943
956.956	0.0146460
957.035	0.0146420
957.113	0.0147219
957.191	0.0147542
957.269	0.0147586
957.347	0.0148176
957.425	0.0148503
957.503	0.0148142
957.581	0.0148371
957.660	0.0148476
957.738	0.0149328
957.816	0.0148759
957.894	0.0149786
957.972	0.0151059
958.050	0.0149568
958.128	0.0150076
958.206	0.0150586
958.285	0.0150613
958.363	0.0150140
958.441	0.0148949
958.519	0.0150571
958.597	0.0151890
958.675	0.0151196
958.753	0.0150627
958.831	0.0149864
958.910	0.0151760
958.988	0.0150584
959.066	0.0150969
959.144	0.0151936
959.222	0.0151301
959.300	0.0149869
959.378	0.0151283
959.456	0.0151464
959.535	0.0151183
959.613	0.0150184
959.691	0.0150768
959.769	0.0149667
959.847	0.0148894
959.925	0.0148791
960.003	0.0149950
960.081	0.0150018
960.160	0.0149107
960.238	0.0149883
960.316	0.0149458
960.394	0.0148659
960.472	0.0148359
960.550	0.0147757
960.628	0.0146938
960.706	0.0147146
960.785	0.0147934
960.863	0.0147742
960.941	0.0147270
961.019	0.0148174
961.097	0.0148039
961.175	0.0147694
961.253	0.0146410
961.331	0.0147516
961.410	0.0145738
961.488	0.0146726
961.566	0.0147207
961.644	0.0148637
961.722	0.0146432
961.800	0.0144952
961.878	0.0147065
961.956	0.0146050
962.035	0.0146268
962.113	0.0147075
962.191	0.0146550
962.269	0.0146219
962.347	0.0146890
962.425	0.0146017
962.503	0.0146846
962.581	0.0147516
962.660	0.0148692
962.738	0.0147395
962.816	0.0148043
962.894	0.0149694
962.972	0.0148978
963.050	0.0148335
963.128	0.0148838
963.206	0.0151437
963.285	0.0151083
963.363	0.0150070
963.441	0.0150455
963.519	0.0151984
963.597	0.0152278
963.675	0.0151782
963.753	0.0151652
963.831	0.0151450
963.910	0.0150851
963.988	0.0149634
964.066	0.0152328
964.144	0.0149881
964.222	0.0150728
964.300	0.0150439
964.378	0.0149808
964.456	0.0152181
964.535	0.0151586
964.613	0.0150727
964.691	0.0151122
964.769	0.0150076
964.847	0.0149934
964.925	0.0148975
965.003	0.0150926
965.081	0.0147983
965.160	0.0150249
965.238	0.0150420
965.316	0.0149983
965.394	0.0150130
965.472	0.0149816
965.550	0.0149316
965.628	0.0147822
965.706	0.0147665
965.785	0.0149709
965.863	0.0148024
965.941	0.0149089
966.019	0.0147358
966.097	0.0148108
966.175	0.0147748
966.253	0.0147013
966.331	0.0146928
966.410	0.0147922
966.488	0.0145219
966.566	0.0145171
966.644	0.0145310
966.722	0.0145831
966.800	0.0146091
966.878	0.0146249
966.956	0.0146460
967.035	0.0146150
967.113	0.0145036
967.191	0.0146956
967.269	0.0145788
967.347	0.0146048
967.425	0.0145293
967.503	0.0147295
967.581	0.0146594
967.660	0.0147397
967.738	0.0148246
967.816	0.0148891
967.894	0.0148228
967.972	0.0147941
968.050	0.0147225
968.128	0.0148795
968.206	0.0147460
968.285	0.0147960
968.363	0.0149758
968.441	0.0148813
968.519	0.0148020
968.597	0.0148064
968.675	0.0148599
968.753	0.0148017
968.831	0.0149210
968.910	0.0148517
968.988	0.0147926
969.066	0.0149692
969.144	0.0150629
969.222	0.0149824
969.300	0.0151424
969.378	0.0149779
969.456	0.0149424
969.535	0.0149554
969.613	0.0149863
969.691	0.0150864
969.769	0.0150754
969.847	0.0149570
969.925	0.0149652
970.003	0.0149769
970.081	0.0149604
970.160	0.0149805
970.238	0.0149921
970.316	0.0149571
970.394	0.0150216
970.472	0.0149242
970.550	0.0149953
970.628	0.0149068
970.706	0.0148995
970.785	0.0150135
970.863	0.0149622
970.941	0.0148743
971.019	0.0148650
971.097	0.0149283
971.175	0.0147517
971.253	0.0148711
971.331	0.0149701
971.410	0.0147404
971.488	0.0147566
971.566	0.0147684
971.644	0.0147012
971.722	0.0147352
971.800	0.0146023
971.878	0.0146620
971.956	0.0147087
972.035	0.0146159
972.113	0.0149333
972.191	0.0147594
972.269	0.0146730
972.347	0.0146819
972.425	0.0149208
972.503	0.0147784
972.581	0.0147057
972.660	0.0148227
972.738	0.0147163
972.816	0.0147163
972.894	0.0148550
972.972	0.0147513
973.050	0.0148184
973.128	0.0147718
973.206	0.0147797
973.285	0.0148331
973.363	0.0149073
973.441	0.0146970
973.519	0.0147458
973.597	0.0147815
973.675	0.0147146
973.753	0.0148428
973.831	0.0147590
973.910	0.0148373
973.988	0.0148330
974.066	0.0149547
974.144	0.0148511
974.222	0.0150163
974.300	0.0150498
974.378	0.0147865
974.456	0.0149527
974.535	0.0148981
974.613	0.0148159
974.691	0.0149480
974.769	0.0151479
974.847	0.0149757
974.925	0.0149950
975.003	0.0149928
975.081	0.0150108
975.160	0.0148382
975.238	0.0148936
975.316	0.0148161
975.394	0.0147585
975.472	0.0148074
975.550	0.0149223
975.628	0.0147924
975.706	0.0147591
975.785	0.0147647
975.863	0.0147782
975.941	0.0147884
976.019	0.0148736
976.097	0.0147695
976.175	0.0148234
976.253	0.0150462
976.331	0.0149200
976.410	0.0149287
976.488	0.0148279
976.566	0.0147993
976.644	0.0148151
976.722	0.0149125
976.800	0.0148916
976.878	0.0149767
976.956	0.0148474
977.035	0.0147482
977.113	0.0148893
977.191	0.0147701
977.269	0.0148042
977.347	0.0148488
977.425	0.0147196
977.503	0.0147358
977.581	0.0149669
977.660	0.0148224
977.738	0.0149114
977.816	0.0149532
977.894	0.0147108
977.972	0.0147630
978.050	0.0150748
978.128	0.0149355
978.206	0.0149361
978.285	0.0148749
978.363	0.0148606
978.441	0.0147116
978.519	0.0147941
978.597	0.0149747
978.675	0.0148315
978.753	0.0148074
978.831	0.0146169
978.910	0.0146599
978.988	0.0146536
979.066	0.0147063
979.144	0.0147471
979.222	0.0147186
979.300	0.0146524
979.378	0.0147524
979.456	0.0147742
979.535	0.0147497
979.613	0.0146819
979.691	0.0147289
979.769	0.0147076
979.847	0.0147622
979.925	0.0147490
