05/03/2022	19:58:20	Ver.	4.1	UNKNOWN
Optical Delay	660.003261	Delta X		0.078125	Sweeps	1	Scan Rate	0/0
Coordinates	Axis 1	NaN	Axis 2	NaN	Axis 3	NaN	Axis 4	NaN	Axis 5	NaN	Axis 6	0.000000
TX Power	0.000000	RX Power	0.000000

660.003	0.0143041
660.081	0.0143603
660.160	0.0143317
660.238	0.0142693
660.316	0.0143162
660.394	0.0142883
660.472	0.0143703
660.550	0.0143283
660.628	0.0142148
660.706	0.0142725
660.785	0.0142522
660.863	0.0142968
660.941	0.0143464
661.019	0.0142427
661.097	0.0143993
661.175	0.0143215
661.253	0.0143159
661.331	0.0143467
661.410	0.0141536
661.488	0.0143689
661.566	0.0144398
661.644	0.0141798
661.722	0.0142860
661.800	0.0142627
661.878	0.0142856
661.956	0.0141869
662.035	0.0142477
662.113	0.0143133
662.191	0.0142744
662.269	0.0143848
662.347	0.0143917
662.425	0.0142863
662.503	0.0142094
662.581	0.0143179
662.660	0.0142274
662.738	0.0141602
662.816	0.0143587
662.894	0.0143609
662.972	0.0142273
663.050	0.0141685
663.128	0.0142553
663.206	0.0143548
663.285	0.0144038
663.363	0.0142548
663.441	0.0143449
663.519	0.0143163
663.597	0.0142716
663.675	0.0143474
663.753	0.0142226
663.831	0.0142908
663.910	0.0142736
663.988	0.0144011
664.066	0.0143416
664.144	0.0141829
664.222	0.0142976
664.300	0.0142535
664.378	0.0142777
664.456	0.0143275
664.535	0.0143525
664.613	0.0143430
664.691	0.0142981
664.769	0.0142452
664.847	0.0143322
664.925	0.0144165
665.003	0.0143544
665.081	0.0143423
665.160	0.0142159
665.238	0.0142711
665.316	0.0143033
665.394	0.0143520
665.472	0.0144182
665.550	0.0142622
665.628	0.0142182
665.706	0.0143975
665.785	0.0142709
665.863	0.0142665
665.941	0.0143522
666.019	0.0141109
666.097	0.0142152
666.175	0.0144730
666.253	0.0142799
666.331	0.0144508
666.410	0.0143561
666.488	0.0142947
666.566	0.0142126
666.644	0.0142638
666.722	0.0143625
666.800	0.0143221
666.878	0.0142831
666.956	0.0143731
667.035	0.0142783
667.113	0.0143272
667.191	0.0143121
667.269	0.0141036
667.347	0.0142316
667.425	0.0142332
667.503	0.0142531
667.581	0.0142686
667.660	0.0141612
667.738	0.0142675
667.816	0.0143339
667.894	0.0143618
667.972	0.0142818
668.050	0.0143011
668.128	0.0143266
668.206	0.0143959
668.285	0.0143391
668.363	0.0143734
668.441	0.0141782
668.519	0.0142194
668.597	0.0142457
668.675	0.0141700
668.753	0.0142332
668.831	0.0143108
668.910	0.0141920
668.988	0.0142052
669.066	0.0142755
669.144	0.0142116
669.222	0.0142386
669.300	0.0143015
669.378	0.0143999
669.456	0.0143327
669.535	0.0142551
669.613	0.0142686
669.691	0.0142672
669.769	0.0142846
669.847	0.0142274
669.925	0.0143134
670.003	0.0142652
670.081	0.0142491
670.160	0.0142747
670.238	0.0143446
670.316	0.0143179
670.394	0.0143268
670.472	0.0141553
670.550	0.0142016
670.628	0.0142343
670.706	0.0142371
670.785	0.0142544
670.863	0.0141319
670.941	0.0142874
671.019	0.0144203
671.097	0.0142287
671.175	0.0142474
671.253	0.0143773
671.331	0.0142949
671.410	0.0143114
671.488	0.0142293
671.566	0.0141845
671.644	0.0142651
671.722	0.0143332
671.800	0.0142615
671.878	0.0143448
671.956	0.0143632
672.035	0.0141946
672.113	0.0142897
672.191	0.0143651
672.269	0.0142698
672.347	0.0141529
672.425	0.0142751
672.503	0.0143324
672.581	0.0143016
672.660	0.0143424
672.738	0.0142716
672.816	0.0143358
672.894	0.0143367
672.972	0.0142889
673.050	0.0141891
673.128	0.0142918
673.206	0.0142633
673.285	0.0142648
673.363	0.0142615
673.441	0.0142776
673.519	0.0142234
673.597	0.0142585
673.675	0.0143631
673.753	0.0141841
673.831	0.0143195
673.910	0.0143421
673.988	0.0143463
674.066	0.0142796
674.144	0.0142410
674.222	0.0142974
674.300	0.0143388
674.378	0.0143909
674.456	0.0143459
674.535	0.0143848
674.613	0.0141730
674.691	0.0142995
674.769	0.0143253
674.847	0.0143053
674.925	0.0144346
675.003	0.0142963
675.081	0.0141716
675.160	0.0142596
675.238	0.0141965
675.316	0.0144088
675.394	0.0142979
675.472	0.0142020
675.550	0.0142556
675.628	0.0143167
675.706	0.0144005
675.785	0.0141908
675.863	0.0143200
675.941	0.0142332
676.019	0.0142714
676.097	0.0143127
676.175	0.0142620
676.253	0.0143178
676.331	0.0142483
676.410	0.0142744
676.488	0.0143861
676.566	0.0143335
676.644	0.0143767
676.722	0.0143407
676.800	0.0144195
676.878	0.0142731
676.956	0.0141891
677.035	0.0142117
677.113	0.0142329
677.191	0.0142812
677.269	0.0142654
677.347	0.0143155
677.425	0.0141821
677.503	0.0142353
677.581	0.0143155
677.660	0.0142526
677.738	0.0143414
677.816	0.0143142
677.894	0.0142182
677.972	0.0142619
678.050	0.0143351
678.128	0.0142436
678.206	0.0142456
678.285	0.0141665
678.363	0.0142950
678.441	0.0143291
678.519	0.0141667
678.597	0.0143150
678.675	0.0142562
678.753	0.0142707
678.831	0.0141464
678.910	0.0142860
678.988	0.0141982
679.066	0.0142539
679.144	0.0142009
679.222	0.0142440
679.300	0.0141770
679.378	0.0142516
679.456	0.0142020
679.535	0.0142210
679.613	0.0142686
679.691	0.0141992
679.769	0.0143044
679.847	0.0143715
679.925	0.0141203
680.003	0.0141333
680.081	0.0142368
680.160	0.0143633
680.238	0.0142902
680.316	0.0142245
680.394	0.0142613
680.472	0.0143121
680.550	0.0142822
680.628	0.0142162
680.706	0.0141423
680.785	0.0142297
680.863	0.0142277
680.941	0.0143113
681.019	0.0142783
681.097	0.0142703
681.175	0.0142024
681.253	0.0142715
681.331	0.0143336
681.410	0.0142963
681.488	0.0141560
681.566	0.0141859
681.644	0.0142976
681.722	0.0143302
681.800	0.0143122
681.878	0.0142875
681.956	0.0142452
682.035	0.0143031
682.113	0.0142532
682.191	0.0141950
682.269	0.0141706
682.347	0.0142870
682.425	0.0144619
682.503	0.0142946
682.581	0.0142052
682.660	0.0143141
682.738	0.0143161
682.816	0.0141503
682.894	0.0142660
682.972	0.0143559
683.050	0.0143076
683.128	0.0142414
683.206	0.0142144
683.285	0.0142886
683.363	0.0142931
683.441	0.0144397
683.519	0.0142583
683.597	0.0143048
683.675	0.0144000
683.753	0.0142908
683.831	0.0142328
683.910	0.0142716
683.988	0.0141913
684.066	0.0141226
684.144	0.0142501
684.222	0.0142566
684.300	0.0141924
684.378	0.0143565
684.456	0.0143813
684.535	0.0142980
684.613	0.0144185
684.691	0.0142012
684.769	0.0141994
684.847	0.0143944
684.925	0.0143785
685.003	0.0142557
685.081	0.0141061
685.160	0.0142649
685.238	0.0143247
685.316	0.0141891
685.394	0.0142229
685.472	0.0142990
685.550	0.0142214
685.628	0.0143613
685.706	0.0143307
685.785	0.0142930
685.863	0.0141492
685.941	0.0142989
686.019	0.0143433
686.097	0.0142097
686.175	0.0142498
686.253	0.0143407
686.331	0.0142354
686.410	0.0143602
686.488	0.0142870
686.566	0.0142141
686.644	0.0143903
686.722	0.0143889
686.800	0.0143900
686.878	0.0143932
686.956	0.0143771
687.035	0.0141725
687.113	0.0141795
687.191	0.0142613
687.269	0.0143155
687.347	0.0142856
687.425	0.0142123
687.503	0.0144350
687.581	0.0143636
687.660	0.0142103
687.738	0.0142653
687.816	0.0143971
687.894	0.0142672
687.972	0.0143704
688.050	0.0141833
688.128	0.0141483
688.206	0.0141762
688.285	0.0142464
688.363	0.0141943
688.441	0.0142017
688.519	0.0142382
688.597	0.0143011
688.675	0.0142004
688.753	0.0143734
688.831	0.0142725
688.910	0.0144065
688.988	0.0141183
689.066	0.0142422
689.144	0.0143678
689.222	0.0142824
689.300	0.0142564
689.378	0.0143458
689.456	0.0142429
689.535	0.0142776
689.613	0.0142849
689.691	0.0142318
689.769	0.0143264
689.847	0.0142501
689.925	0.0143019
690.003	0.0143695
690.081	0.0142563
690.160	0.0141563
690.238	0.0143137
690.316	0.0143365
690.394	0.0143307
690.472	0.0143063
690.550	0.0142579
690.628	0.0144260
690.706	0.0143197
690.785	0.0143733
690.863	0.0142889
690.941	0.0142902
691.019	0.0143191
691.097	0.0141903
691.175	0.0142249
691.253	0.0143068
691.331	0.0141667
691.410	0.0143286
691.488	0.0142606
691.566	0.0143760
691.644	0.0144737
691.722	0.0142856
691.800	0.0142729
691.878	0.0142721
691.956	0.0142799
692.035	0.0142688
692.113	0.0141907
692.191	0.0141682
692.269	0.0141889
692.347	0.0142619
692.425	0.0142386
692.503	0.0143033
692.581	0.0143604
692.660	0.0143739
692.738	0.0144622
692.816	0.0142800
692.894	0.0143163
692.972	0.0142300
693.050	0.0142452
693.128	0.0142619
693.206	0.0143300
693.285	0.0143774
693.363	0.0143076
693.441	0.0143045
693.519	0.0142826
693.597	0.0142314
693.675	0.0143681
693.753	0.0143784
693.831	0.0142914
693.910	0.0143002
693.988	0.0143774
694.066	0.0142884
694.144	0.0144009
694.222	0.0143224
694.300	0.0142208
694.378	0.0143333
694.456	0.0143337
694.535	0.0141570
694.613	0.0142319
694.691	0.0143505
694.769	0.0144413
694.847	0.0142528
694.925	0.0142365
695.003	0.0141138
695.081	0.0141588
695.160	0.0141681
695.238	0.0142702
695.316	0.0142728
695.394	0.0143124
695.472	0.0141967
695.550	0.0142737
695.628	0.0143457
695.706	0.0144193
695.785	0.0143595
695.863	0.0142798
695.941	0.0143645
696.019	0.0143027
696.097	0.0143603
696.175	0.0142686
696.253	0.0143176
696.331	0.0144080
696.410	0.0142449
696.488	0.0141211
696.566	0.0143312
696.644	0.0142795
696.722	0.0142744
696.800	0.0143150
696.878	0.0143507
696.956	0.0142475
697.035	0.0142260
697.113	0.0144125
697.191	0.0143953
697.269	0.0142957
697.347	0.0141920
697.425	0.0143886
697.503	0.0143021
697.581	0.0142961
697.660	0.0142936
697.738	0.0143002
697.816	0.0142509
697.894	0.0141756
697.972	0.0143242
698.050	0.0142320
698.128	0.0141765
698.206	0.0142233
698.285	0.0142525
698.363	0.0142996
698.441	0.0141712
698.519	0.0141881
698.597	0.0143269
698.675	0.0142995
698.753	0.0143053
698.831	0.0141614
698.910	0.0141798
698.988	0.0142719
699.066	0.0143008
699.144	0.0143529
699.222	0.0142019
699.300	0.0141640
699.378	0.0143478
699.456	0.0143555
699.535	0.0141874
699.613	0.0143518
699.691	0.0142826
699.769	0.0142718
699.847	0.0143658
699.925	0.0143678
700.003	0.0142311
700.081	0.0142880
700.160	0.0143761
700.238	0.0143226
700.316	0.0142726
700.394	0.0141930
700.472	0.0142942
700.550	0.0142634
700.628	0.0142587
700.706	0.0142194
700.785	0.0142240
700.863	0.0142744
700.941	0.0143362
701.019	0.0141723
701.097	0.0141657
701.175	0.0142749
701.253	0.0141742
701.331	0.0141279
701.410	0.0141143
701.488	0.0142996
701.566	0.0141884
701.644	0.0143156
701.722	0.0143938
701.800	0.0142676
701.878	0.0143391
701.956	0.0143561
702.035	0.0141992
702.113	0.0140488
702.191	0.0142215
702.269	0.0142999
702.347	0.0144138
702.425	0.0142354
702.503	0.0142458
702.581	0.0142720
702.660	0.0143658
702.738	0.0142317
702.816	0.0142768
702.894	0.0141953
702.972	0.0142333
703.050	0.0144045
703.128	0.0142458
703.206	0.0141921
703.285	0.0142215
703.363	0.0141583
703.441	0.0142915
703.519	0.0142899
703.597	0.0143620
703.675	0.0142510
703.753	0.0142495
703.831	0.0142793
703.910	0.0143864
703.988	0.0142249
704.066	0.0142120
704.144	0.0142536
704.222	0.0143063
704.300	0.0143400
704.378	0.0143057
704.456	0.0141830
704.535	0.0142727
704.613	0.0142830
704.691	0.0142889
704.769	0.0141673
704.847	0.0143083
704.925	0.0143731
705.003	0.0143557
705.081	0.0143748
705.160	0.0144128
705.238	0.0145132
705.316	0.0144034
705.394	0.0143542
705.472	0.0145036
705.550	0.0144358
705.628	0.0144193
705.706	0.0144608
705.785	0.0141864
705.863	0.0141622
705.941	0.0142358
706.019	0.0143577
706.097	0.0142263
706.175	0.0142298
706.253	0.0142430
706.331	0.0142455
706.410	0.0142704
706.488	0.0142634
706.566	0.0142102
706.644	0.0142448
706.722	0.0143804
706.800	0.0144048
706.878	0.0144495
706.956	0.0143860
707.035	0.0144631
707.113	0.0144950
707.191	0.0144678
707.269	0.0145033
707.347	0.0143745
707.425	0.0145085
707.503	0.0145296
707.581	0.0145152
707.660	0.0144488
707.738	0.0144289
707.816	0.0143475
707.894	0.0143471
707.972	0.0143990
708.050	0.0143053
708.128	0.0142868
708.206	0.0142264
708.285	0.0141121
708.363	0.0140472
708.441	0.0140492
708.519	0.0139270
708.597	0.0137555
708.675	0.0137672
708.753	0.0136526
708.831	0.0133434
708.910	0.0132555
708.988	0.0130686
709.066	0.0127805
709.144	0.0128535
709.222	0.0127330
709.300	0.0127416
709.378	0.0129738
709.456	0.0131470
709.535	0.0136241
709.613	0.0140136
709.691	0.0145161
709.769	0.0152337
709.847	0.0155981
709.925	0.0156032
710.003	0.0156947
710.081	0.0155238
710.160	0.0153008
710.238	0.0150089
710.316	0.0144408
710.394	0.0139156
710.472	0.0136410
710.550	0.0134241
710.628	0.0131577
710.706	0.0130036
710.785	0.0131754
710.863	0.0132921
710.941	0.0137129
711.019	0.0139776
711.097	0.0141934
711.175	0.0145823
711.253	0.0148862
711.331	0.0151172
711.410	0.0156577
711.488	0.0159528
711.566	0.0158810
711.644	0.0162289
711.722	0.0163032
711.800	0.0164626
711.878	0.0165782
711.956	0.0163285
712.035	0.0162146
712.113	0.0158440
712.191	0.0154913
712.269	0.0151420
712.347	0.0146732
712.425	0.0142841
712.503	0.0139487
712.581	0.0136793
712.660	0.0134231
712.738	0.0131765
712.816	0.0129630
712.894	0.0129111
712.972	0.0127056
713.050	0.0127486
713.128	0.0127217
713.206	0.0126862
713.285	0.0127991
713.363	0.0129364
713.441	0.0128842
713.519	0.0130547
713.597	0.0132757
713.675	0.0132645
713.753	0.0134381
713.831	0.0136214
713.910	0.0137664
713.988	0.0136641
714.066	0.0138116
714.144	0.0139446
714.222	0.0141844
714.300	0.0142888
714.378	0.0142504
714.456	0.0142830
714.535	0.0144048
714.613	0.0144209
714.691	0.0146636
714.769	0.0146934
714.847	0.0148536
714.925	0.0149572
715.003	0.0151952
715.081	0.0153429
715.160	0.0154933
715.238	0.0155383
715.316	0.0156048
715.394	0.0158353
715.472	0.0159166
715.550	0.0158829
715.628	0.0157611
715.706	0.0159081
715.785	0.0157663
715.863	0.0155300
715.941	0.0154520
716.019	0.0151769
716.097	0.0149586
716.175	0.0146838
716.253	0.0144328
716.331	0.0141922
716.410	0.0138670
716.488	0.0135004
716.566	0.0131313
716.644	0.0131718
716.722	0.0129592
716.800	0.0129100
716.878	0.0127406
716.956	0.0127638
717.035	0.0127421
717.113	0.0127384
717.191	0.0128610
717.269	0.0129452
717.347	0.0128696
717.425	0.0128544
717.503	0.0130794
717.581	0.0131636
717.660	0.0133103
717.738	0.0134399
717.816	0.0135866
717.894	0.0137605
717.972	0.0140462
718.050	0.0143322
718.128	0.0143972
718.206	0.0146716
718.285	0.0150367
718.363	0.0153301
718.441	0.0156036
718.519	0.0160483
718.597	0.0163141
718.675	0.0164114
718.753	0.0167446
718.831	0.0167305
718.910	0.0166560
718.988	0.0168600
719.066	0.0168269
719.144	0.0167467
719.222	0.0163900
719.300	0.0162547
719.378	0.0158466
719.456	0.0156234
719.535	0.0151720
719.613	0.0147897
719.691	0.0146428
719.769	0.0142468
719.847	0.0137455
719.925	0.0134795
720.003	0.0132240
720.081	0.0129514
720.160	0.0128458
720.238	0.0126389
720.316	0.0125974
720.394	0.0125057
720.472	0.0123475
720.550	0.0124144
720.628	0.0121915
720.706	0.0123782
720.785	0.0123161
720.863	0.0123972
720.941	0.0123553
721.019	0.0125866
721.097	0.0126020
721.175	0.0126501
721.253	0.0128230
721.331	0.0130972
721.410	0.0130874
721.488	0.0130454
721.566	0.0131886
721.644	0.0134518
721.722	0.0135586
721.800	0.0135616
721.878	0.0136951
721.956	0.0140031
722.035	0.0141348
722.113	0.0143728
722.191	0.0147011
722.269	0.0150363
722.347	0.0151931
722.425	0.0155300
722.503	0.0156258
722.581	0.0159035
722.660	0.0161352
722.738	0.0162207
722.816	0.0162132
722.894	0.0162892
722.972	0.0162193
723.050	0.0163633
723.128	0.0163289
723.206	0.0162383
723.285	0.0160788
723.363	0.0159029
723.441	0.0158669
723.519	0.0158182
723.597	0.0157383
723.675	0.0154491
723.753	0.0154317
723.831	0.0154339
723.910	0.0151764
723.988	0.0149809
724.066	0.0148656
724.144	0.0145326
724.222	0.0144246
724.300	0.0143386
724.378	0.0139236
724.456	0.0138035
724.535	0.0137558
724.613	0.0135248
724.691	0.0132409
724.769	0.0133258
724.847	0.0131863
724.925	0.0130556
725.003	0.0130334
725.081	0.0129031
725.160	0.0130560
725.238	0.0129755
725.316	0.0127627
725.394	0.0127812
725.472	0.0127143
725.550	0.0126083
725.628	0.0126230
725.706	0.0126188
725.785	0.0127952
725.863	0.0128033
725.941	0.0127162
726.019	0.0129108
726.097	0.0130121
726.175	0.0131008
726.253	0.0130727
726.331	0.0132992
726.410	0.0134502
726.488	0.0137105
726.566	0.0139050
726.644	0.0141100
726.722	0.0142513
726.800	0.0143053
726.878	0.0144144
726.956	0.0146149
727.035	0.0145868
727.113	0.0148046
727.191	0.0151783
727.269	0.0152085
727.347	0.0153070
727.425	0.0153944
727.503	0.0157206
727.581	0.0159335
727.660	0.0159052
727.738	0.0159988
727.816	0.0161726
727.894	0.0161440
727.972	0.0160288
728.050	0.0161120
728.128	0.0161429
728.206	0.0160795
728.285	0.0160358
728.363	0.0159888
728.441	0.0160883
728.519	0.0158773
728.597	0.0157719
728.675	0.0157951
728.753	0.0156057
728.831	0.0153828
728.910	0.0153010
728.988	0.0150997
729.066	0.0148681
729.144	0.0146980
729.222	0.0146285
729.300	0.0144074
729.378	0.0142102
729.456	0.0141847
729.535	0.0140233
729.613	0.0139587
729.691	0.0138147
729.769	0.0137738
729.847	0.0135769
729.925	0.0133296
730.003	0.0132324
730.081	0.0131706
730.160	0.0128986
730.238	0.0129597
730.316	0.0129288
730.394	0.0126762
730.472	0.0126120
730.550	0.0126757
730.628	0.0125146
730.706	0.0125303
730.785	0.0125739
730.863	0.0125743
730.941	0.0124491
731.019	0.0126966
731.097	0.0127297
731.175	0.0127486
731.253	0.0128268
731.331	0.0129888
731.410	0.0130010
731.488	0.0130410
731.566	0.0131458
731.644	0.0133863
731.722	0.0135065
731.800	0.0137711
731.878	0.0138595
731.956	0.0140498
732.035	0.0141611
732.113	0.0145573
732.191	0.0146911
732.269	0.0147652
732.347	0.0149419
732.425	0.0150971
732.503	0.0151289
732.581	0.0153206
732.660	0.0152924
732.738	0.0154115
732.816	0.0156478
732.894	0.0155657
732.972	0.0158924
733.050	0.0158243
733.128	0.0157140
733.206	0.0159407
733.285	0.0157844
733.363	0.0159167
733.441	0.0158433
733.519	0.0158595
733.597	0.0160783
733.675	0.0158620
733.753	0.0157394
733.831	0.0157951
733.910	0.0158262
733.988	0.0157691
734.066	0.0157956
734.144	0.0157536
734.222	0.0156480
734.300	0.0155514
734.378	0.0154881
734.456	0.0151695
734.535	0.0150794
734.613	0.0148786
734.691	0.0145338
734.769	0.0143955
734.847	0.0141917
734.925	0.0140382
735.003	0.0138455
735.081	0.0135836
735.160	0.0135055
735.238	0.0135490
735.316	0.0134126
735.394	0.0133839
735.472	0.0133629
735.550	0.0134238
735.628	0.0133624
735.706	0.0133627
735.785	0.0134215
735.863	0.0134704
735.941	0.0132108
736.019	0.0132587
736.097	0.0132368
736.175	0.0131824
736.253	0.0132187
736.331	0.0131966
736.410	0.0131985
736.488	0.0132034
736.566	0.0130470
736.644	0.0131725
736.722	0.0132355
736.800	0.0130383
736.878	0.0131184
736.956	0.0132472
737.035	0.0133137
737.113	0.0133724
737.191	0.0133978
737.269	0.0134880
737.347	0.0135875
737.425	0.0137883
737.503	0.0137027
737.581	0.0140800
737.660	0.0141547
737.738	0.0142426
737.816	0.0143690
737.894	0.0146966
737.972	0.0147187
738.050	0.0146497
738.128	0.0148180
738.206	0.0149078
738.285	0.0149499
738.363	0.0150926
738.441	0.0152526
738.519	0.0151978
738.597	0.0153061
738.675	0.0153226
738.753	0.0154405
738.831	0.0154612
738.910	0.0152744
738.988	0.0153117
739.066	0.0155042
739.144	0.0155773
739.222	0.0156221
739.300	0.0154577
739.378	0.0155930
739.456	0.0154578
739.535	0.0153891
739.613	0.0155016
739.691	0.0155044
739.769	0.0152607
739.847	0.0151571
739.925	0.0151394
740.003	0.0152473
740.081	0.0150574
740.160	0.0149348
740.238	0.0148309
740.316	0.0148119
740.394	0.0147688
740.472	0.0144662
740.550	0.0144835
740.628	0.0145406
740.706	0.0142426
740.785	0.0142041
740.863	0.0142414
740.941	0.0139994
741.019	0.0139841
741.097	0.0139240
741.175	0.0140943
741.253	0.0137880
741.331	0.0138657
741.410	0.0138007
741.488	0.0138080
741.566	0.0139967
741.644	0.0137329
741.722	0.0136655
741.800	0.0136002
741.878	0.0136286
741.956	0.0135487
742.035	0.0134606
742.113	0.0134721
742.191	0.0133656
742.269	0.0134043
742.347	0.0133491
742.425	0.0132076
742.503	0.0132201
742.581	0.0132102
742.660	0.0132104
742.738	0.0131136
742.816	0.0130740
742.894	0.0130759
742.972	0.0131664
743.050	0.0132282
743.128	0.0134087
743.206	0.0135197
743.285	0.0135525
743.363	0.0135310
743.441	0.0136004
743.519	0.0136445
743.597	0.0137460
743.675	0.0140039
743.753	0.0139121
743.831	0.0140020
743.910	0.0140114
743.988	0.0141595
744.066	0.0142455
744.144	0.0142171
744.222	0.0143358
744.300	0.0144409
744.378	0.0144373
744.456	0.0146715
744.535	0.0146683
744.613	0.0147087
744.691	0.0148244
744.769	0.0147508
744.847	0.0149405
744.925	0.0151508
745.003	0.0151108
745.081	0.0150941
745.160	0.0152483
745.238	0.0150508
745.316	0.0152396
745.394	0.0152565
745.472	0.0152921
745.550	0.0152415
745.628	0.0151941
745.706	0.0151626
745.785	0.0151485
745.863	0.0151862
745.941	0.0149837
746.019	0.0151609
746.097	0.0151824
746.175	0.0150453
746.253	0.0150718
746.331	0.0150281
746.410	0.0149200
746.488	0.0148312
746.566	0.0147649
746.644	0.0148073
746.722	0.0146521
746.800	0.0144799
746.878	0.0144401
746.956	0.0143481
747.035	0.0142654
747.113	0.0141793
747.191	0.0140848
747.269	0.0140878
747.347	0.0138827
747.425	0.0138979
747.503	0.0139677
747.581	0.0137582
747.660	0.0137167
747.738	0.0135853
747.816	0.0136851
747.894	0.0135588
747.972	0.0135367
748.050	0.0134026
748.128	0.0133109
748.206	0.0133826
748.285	0.0132654
748.363	0.0132697
748.441	0.0133920
748.519	0.0133289
748.597	0.0133137
748.675	0.0133681
748.753	0.0133502
748.831	0.0134467
748.910	0.0136274
748.988	0.0136090
749.066	0.0135880
749.144	0.0137228
749.222	0.0137479
749.300	0.0138158
749.378	0.0138976
749.456	0.0138450
749.535	0.0137976
749.613	0.0139321
749.691	0.0140212
749.769	0.0138567
749.847	0.0141143
749.925	0.0140982
750.003	0.0142746
750.081	0.0142614
750.160	0.0143066
750.238	0.0144071
750.316	0.0143275
750.394	0.0142959
750.472	0.0145134
750.550	0.0145142
750.628	0.0147744
750.706	0.0147176
750.785	0.0147038
750.863	0.0147590
750.941	0.0148037
751.019	0.0148594
751.097	0.0149700
751.175	0.0147680
751.253	0.0148862
751.331	0.0149245
751.410	0.0150629
751.488	0.0150047
751.566	0.0149756
751.644	0.0149147
751.722	0.0149972
751.800	0.0149440
751.878	0.0149908
751.956	0.0148957
752.035	0.0148816
752.113	0.0148500
752.191	0.0149643
752.269	0.0150721
752.347	0.0149142
752.425	0.0149865
752.503	0.0148104
752.581	0.0149599
752.660	0.0150047
752.738	0.0150943
752.816	0.0149301
752.894	0.0148328
752.972	0.0148475
753.050	0.0148332
753.128	0.0145793
753.206	0.0147149
753.285	0.0146586
753.363	0.0145466
753.441	0.0145649
753.519	0.0143963
753.597	0.0144559
753.675	0.0143000
753.753	0.0141885
753.831	0.0141661
753.910	0.0141065
753.988	0.0140929
754.066	0.0140995
754.144	0.0140237
754.222	0.0139120
754.300	0.0138218
754.378	0.0138811
754.456	0.0138396
754.535	0.0136431
754.613	0.0137249
754.691	0.0135287
754.769	0.0136128
754.847	0.0135671
754.925	0.0136245
755.003	0.0133489
755.081	0.0134317
755.160	0.0134439
755.238	0.0135281
755.316	0.0134051
755.394	0.0135420
755.472	0.0135070
755.550	0.0135685
755.628	0.0135425
755.706	0.0136695
755.785	0.0135601
755.863	0.0138261
755.941	0.0137451
756.019	0.0138011
756.097	0.0137349
756.175	0.0137951
756.253	0.0138613
756.331	0.0139804
756.410	0.0140647
756.488	0.0139422
756.566	0.0139092
756.644	0.0142289
756.722	0.0142545
756.800	0.0142827
756.878	0.0143649
756.956	0.0143769
757.035	0.0143739
757.113	0.0145470
757.191	0.0144875
757.269	0.0144798
757.347	0.0146113
757.425	0.0146768
757.503	0.0146861
757.581	0.0148129
757.660	0.0148415
757.738	0.0148264
757.816	0.0147169
757.894	0.0149872
757.972	0.0149038
758.050	0.0148199
758.128	0.0147910
758.206	0.0148538
758.285	0.0149123
758.363	0.0148833
758.441	0.0147272
758.519	0.0149108
758.597	0.0148730
758.675	0.0147800
758.753	0.0148116
758.831	0.0148882
758.910	0.0148335
758.988	0.0148444
759.066	0.0148963
759.144	0.0148966
759.222	0.0148965
759.300	0.0148447
759.378	0.0149107
759.456	0.0148852
759.535	0.0148646
759.613	0.0145258
759.691	0.0145592
759.769	0.0144991
759.847	0.0146211
759.925	0.0144975
760.003	0.0144733
760.081	0.0140789
760.160	0.0140814
760.238	0.0139575
760.316	0.0138612
760.394	0.0138251
760.472	0.0138256
760.550	0.0138152
760.628	0.0137553
760.706	0.0137231
760.785	0.0138240
760.863	0.0138955
760.941	0.0137544
761.019	0.0138840
761.097	0.0138992
761.175	0.0139497
761.253	0.0139645
761.331	0.0138946
761.410	0.0139447
761.488	0.0139333
761.566	0.0139622
761.644	0.0139246
761.722	0.0139382
761.800	0.0139342
761.878	0.0139072
761.956	0.0140334
762.035	0.0139799
762.113	0.0138872
762.191	0.0137804
762.269	0.0139178
762.347	0.0139944
762.425	0.0138183
762.503	0.0137807
762.581	0.0136910
762.660	0.0137443
762.738	0.0138399
762.816	0.0138590
762.894	0.0138365
762.972	0.0138812
763.050	0.0138280
763.128	0.0138823
763.206	0.0139605
763.285	0.0141008
763.363	0.0141245
763.441	0.0141149
763.519	0.0142735
763.597	0.0143302
763.675	0.0143716
763.753	0.0144545
763.831	0.0143826
763.910	0.0144173
763.988	0.0145306
764.066	0.0145314
764.144	0.0145782
764.222	0.0146468
764.300	0.0147932
764.378	0.0148641
764.456	0.0148658
764.535	0.0148144
764.613	0.0148202
764.691	0.0148951
764.769	0.0149253
764.847	0.0151131
764.925	0.0149898
765.003	0.0149306
765.081	0.0149384
765.160	0.0149535
765.238	0.0148003
765.316	0.0149232
765.394	0.0147565
765.472	0.0146949
765.550	0.0147308
765.628	0.0146946
765.706	0.0147397
765.785	0.0146621
765.863	0.0147340
765.941	0.0147755
766.019	0.0148395
766.097	0.0147387
766.175	0.0147254
766.253	0.0146953
766.331	0.0146906
766.410	0.0146236
766.488	0.0146401
766.566	0.0146270
766.644	0.0145893
766.722	0.0144796
766.800	0.0144461
766.878	0.0143922
766.956	0.0142327
767.035	0.0140882
767.113	0.0140987
767.191	0.0141249
767.269	0.0138632
767.347	0.0139242
767.425	0.0139687
767.503	0.0136969
767.581	0.0137535
767.660	0.0136996
767.738	0.0137672
767.816	0.0136864
767.894	0.0136383
767.972	0.0136694
768.050	0.0136129
768.128	0.0134789
768.206	0.0135228
768.285	0.0136089
768.363	0.0134473
768.441	0.0135147
768.519	0.0136359
768.597	0.0136092
768.675	0.0135001
768.753	0.0136764
768.831	0.0136678
768.910	0.0135801
768.988	0.0135709
769.066	0.0135476
769.144	0.0136898
769.222	0.0139368
769.300	0.0139104
769.378	0.0137965
769.456	0.0138174
769.535	0.0138608
769.613	0.0139323
769.691	0.0139230
769.769	0.0140452
769.847	0.0140300
769.925	0.0141904
770.003	0.0142231
770.081	0.0142154
770.160	0.0140524
770.238	0.0142940
770.316	0.0142816
770.394	0.0143331
770.472	0.0143365
770.550	0.0143851
770.628	0.0143042
770.706	0.0144448
770.785	0.0145404
770.863	0.0145917
770.941	0.0145239
771.019	0.0145582
771.097	0.0146207
771.175	0.0146011
771.253	0.0147514
771.331	0.0148016
771.410	0.0147187
771.488	0.0148178
771.566	0.0148129
771.644	0.0146941
771.722	0.0148991
771.800	0.0148936
771.878	0.0148953
771.956	0.0148407
772.035	0.0148315
772.113	0.0149016
772.191	0.0148240
772.269	0.0149039
772.347	0.0148286
772.425	0.0147557
772.503	0.0146474
772.581	0.0146699
772.660	0.0148049
772.738	0.0146886
772.816	0.0148239
772.894	0.0147319
772.972	0.0145589
773.050	0.0147694
773.128	0.0146489
773.206	0.0146929
773.285	0.0145876
773.363	0.0145142
773.441	0.0146510
773.519	0.0144214
773.597	0.0142745
773.675	0.0143092
773.753	0.0144529
773.831	0.0144632
773.910	0.0143602
773.988	0.0142224
774.066	0.0142242
774.144	0.0141082
774.222	0.0139970
774.300	0.0140155
774.378	0.0139606
774.456	0.0140041
774.535	0.0139458
774.613	0.0138963
774.691	0.0139607
774.769	0.0138903
774.847	0.0139197
774.925	0.0139735
775.003	0.0139333
775.081	0.0138407
775.160	0.0138570
775.238	0.0138525
775.316	0.0137815
775.394	0.0138889
775.472	0.0136483
775.550	0.0138260
775.628	0.0138137
775.706	0.0137661
775.785	0.0137691
775.863	0.0136150
775.941	0.0136883
776.019	0.0137306
776.097	0.0137104
776.175	0.0136825
776.253	0.0136893
776.331	0.0138295
776.410	0.0136681
776.488	0.0136320
776.566	0.0137712
776.644	0.0138163
776.722	0.0139098
776.800	0.0140847
776.878	0.0140359
776.956	0.0142434
777.035	0.0141911
777.113	0.0142239
777.191	0.0142395
777.269	0.0144096
777.347	0.0144456
777.425	0.0145808
777.503	0.0146049
777.581	0.0145095
777.660	0.0145269
777.738	0.0145768
777.816	0.0145534
777.894	0.0145789
777.972	0.0146790
778.050	0.0146847
778.128	0.0146074
778.206	0.0147447
778.285	0.0148380
778.363	0.0147219
778.441	0.0147309
778.519	0.0146768
778.597	0.0148138
778.675	0.0147789
778.753	0.0148477
778.831	0.0147595
778.910	0.0145879
778.988	0.0147908
779.066	0.0147600
779.144	0.0145718
779.222	0.0147052
779.300	0.0146729
779.378	0.0145872
779.456	0.0146062
779.535	0.0145683
779.613	0.0146661
779.691	0.0145370
779.769	0.0145293
779.847	0.0144316
779.925	0.0145710
780.003	0.0145162
780.081	0.0145703
780.160	0.0144660
780.238	0.0144147
780.316	0.0144788
780.394	0.0144595
780.472	0.0144121
780.550	0.0144588
780.628	0.0144356
780.706	0.0142422
780.785	0.0143774
780.863	0.0143887
780.941	0.0141985
781.019	0.0142848
781.097	0.0141733
781.175	0.0143336
781.253	0.0142068
781.331	0.0142190
781.410	0.0142101
781.488	0.0141412
781.566	0.0142197
781.644	0.0143555
781.722	0.0143152
781.800	0.0142365
781.878	0.0141493
781.956	0.0140154
782.035	0.0140069
782.113	0.0138622
782.191	0.0140297
782.269	0.0140063
782.347	0.0138926
782.425	0.0138898
782.503	0.0137901
782.581	0.0137656
782.660	0.0138901
782.738	0.0138531
782.816	0.0138762
782.894	0.0137653
782.972	0.0138668
783.050	0.0139948
783.128	0.0137483
783.206	0.0138393
783.285	0.0139441
783.363	0.0139529
783.441	0.0139555
783.519	0.0139987
783.597	0.0140848
783.675	0.0140739
783.753	0.0139671
783.831	0.0142132
783.910	0.0142226
783.988	0.0142161
784.066	0.0142320
784.144	0.0143828
784.222	0.0142189
784.300	0.0143053
784.378	0.0143138
784.456	0.0142803
784.535	0.0143420
784.613	0.0143777
784.691	0.0144394
784.769	0.0144067
784.847	0.0145529
784.925	0.0145314
785.003	0.0145494
785.081	0.0146054
785.160	0.0145683
785.238	0.0145900
785.316	0.0146181
785.394	0.0146877
785.472	0.0147902
785.550	0.0147834
785.628	0.0147875
785.706	0.0147308
785.785	0.0147021
785.863	0.0145919
785.941	0.0147128
786.019	0.0146739
786.097	0.0145432
786.175	0.0146303
786.253	0.0146511
786.331	0.0145872
786.410	0.0146271
786.488	0.0144439
786.566	0.0145407
786.644	0.0145955
786.722	0.0145146
786.800	0.0145340
786.878	0.0144871
786.956	0.0144548
787.035	0.0145054
787.113	0.0144659
787.191	0.0143840
787.269	0.0144091
787.347	0.0143274
787.425	0.0143934
787.503	0.0144918
787.581	0.0145098
787.660	0.0145378
787.738	0.0145004
787.816	0.0144310
787.894	0.0142994
787.972	0.0143944
788.050	0.0144138
788.128	0.0143562
788.206	0.0141830
788.285	0.0142658
788.363	0.0142731
788.441	0.0141154
788.519	0.0140724
788.597	0.0141424
788.675	0.0140561
788.753	0.0142039
788.831	0.0141244
788.910	0.0139643
788.988	0.0140734
789.066	0.0139965
789.144	0.0140597
789.222	0.0141066
789.300	0.0139750
789.378	0.0139768
789.456	0.0140359
789.535	0.0140749
789.613	0.0139513
789.691	0.0139874
789.769	0.0139651
789.847	0.0140543
789.925	0.0140161
790.003	0.0139902
790.081	0.0140086
790.160	0.0140567
790.238	0.0139227
790.316	0.0140392
790.394	0.0141521
790.472	0.0141167
790.550	0.0140296
790.628	0.0141024
790.706	0.0141767
790.785	0.0141238
790.863	0.0142250
790.941	0.0142155
791.019	0.0141434
791.097	0.0142968
791.175	0.0142846
791.253	0.0141928
791.331	0.0141436
791.410	0.0141376
791.488	0.0142264
791.566	0.0142169
791.644	0.0141830
791.722	0.0142344
791.800	0.0142210
791.878	0.0143613
791.956	0.0142332
792.035	0.0142522
792.113	0.0143171
792.191	0.0143497
792.269	0.0143660
792.347	0.0144255
792.425	0.0144621
792.503	0.0144547
792.581	0.0145119
792.660	0.0145309
792.738	0.0144828
792.816	0.0145468
792.894	0.0144804
792.972	0.0146606
793.050	0.0145801
793.128	0.0147115
793.206	0.0145851
793.285	0.0147131
793.363	0.0147018
793.441	0.0146422
793.519	0.0146727
793.597	0.0147472
793.675	0.0147498
793.753	0.0148162
793.831	0.0148077
793.910	0.0147677
793.988	0.0147683
794.066	0.0146162
794.144	0.0145856
794.222	0.0146287
794.300	0.0146394
794.378	0.0146044
794.456	0.0145568
794.535	0.0144790
794.613	0.0144967
794.691	0.0144508
794.769	0.0144129
794.847	0.0144551
794.925	0.0145663
795.003	0.0144387
795.081	0.0144373
795.160	0.0143129
795.238	0.0143288
795.316	0.0143592
795.394	0.0141902
795.472	0.0142985
795.550	0.0141880
795.628	0.0141082
795.706	0.0142169
795.785	0.0141167
795.863	0.0141821
795.941	0.0138529
796.019	0.0140356
796.097	0.0140836
796.175	0.0140173
796.253	0.0139423
796.331	0.0141184
796.410	0.0139941
796.488	0.0139209
796.566	0.0139212
796.644	0.0139220
796.722	0.0139653
796.800	0.0141308
796.878	0.0139874
796.956	0.0139616
797.035	0.0140852
797.113	0.0138796
797.191	0.0138796
797.269	0.0139687
797.347	0.0140084
797.425	0.0139163
797.503	0.0139065
797.581	0.0140607
797.660	0.0140037
797.738	0.0138982
797.816	0.0139259
797.894	0.0140504
797.972	0.0141151
798.050	0.0140553
798.128	0.0140829
798.206	0.0140533
798.285	0.0140923
798.363	0.0142677
798.441	0.0142534
798.519	0.0141661
798.597	0.0142596
798.675	0.0142834
798.753	0.0143661
798.831	0.0143674
798.910	0.0143236
798.988	0.0143622
799.066	0.0142594
799.144	0.0144342
799.222	0.0145123
799.300	0.0143755
799.378	0.0144306
799.456	0.0144505
799.535	0.0143832
799.613	0.0143297
799.691	0.0143655
799.769	0.0143858
799.847	0.0142901
799.925	0.0143892
800.003	0.0144494
800.081	0.0143330
800.160	0.0144560
800.238	0.0145090
800.316	0.0144395
800.394	0.0144725
800.472	0.0144627
800.550	0.0144302
800.628	0.0144803
800.706	0.0145874
800.785	0.0145673
800.863	0.0144936
800.941	0.0145095
801.019	0.0144942
801.097	0.0146035
801.175	0.0146435
801.253	0.0145998
801.331	0.0145977
801.410	0.0144313
801.488	0.0145257
801.566	0.0145518
801.644	0.0144589
801.722	0.0146078
801.800	0.0144915
801.878	0.0143806
801.956	0.0144978
802.035	0.0143935
802.113	0.0145516
802.191	0.0143641
802.269	0.0144520
802.347	0.0143192
802.425	0.0143135
802.503	0.0143951
802.581	0.0143872
802.660	0.0142649
802.738	0.0142905
802.816	0.0143660
802.894	0.0141307
802.972	0.0140536
803.050	0.0141103
803.128	0.0141660
803.206	0.0141732
803.285	0.0140798
803.363	0.0139840
803.441	0.0138038
803.519	0.0139661
803.597	0.0139356
803.675	0.0139449
803.753	0.0138529
803.831	0.0138854
803.910	0.0138087
803.988	0.0138120
804.066	0.0138506
804.144	0.0138969
804.222	0.0138792
804.300	0.0138006
804.378	0.0139112
804.456	0.0137904
804.535	0.0138124
804.613	0.0139278
804.691	0.0139156
804.769	0.0138335
804.847	0.0137975
804.925	0.0137151
805.003	0.0137135
805.081	0.0138671
805.160	0.0139571
805.238	0.0139792
805.316	0.0137450
805.394	0.0138584
805.472	0.0139482
805.550	0.0141097
805.628	0.0141012
805.706	0.0141114
805.785	0.0140804
805.863	0.0140786
805.941	0.0141998
806.019	0.0144393
806.097	0.0143142
806.175	0.0143246
806.253	0.0144445
806.331	0.0144593
806.410	0.0143129
806.488	0.0143422
806.566	0.0144051
806.644	0.0144291
806.722	0.0143340
806.800	0.0143781
806.878	0.0143815
806.956	0.0145174
807.035	0.0145348
807.113	0.0144949
807.191	0.0143970
807.269	0.0144615
807.347	0.0145426
807.425	0.0145230
807.503	0.0145649
807.581	0.0144342
807.660	0.0145515
807.738	0.0147058
807.816	0.0146389
807.894	0.0147885
807.972	0.0148005
808.050	0.0147244
808.128	0.0148003
808.206	0.0149402
808.285	0.0148563
808.363	0.0148136
808.441	0.0147092
808.519	0.0146989
808.597	0.0144126
808.675	0.0142680
808.753	0.0144073
808.831	0.0143066
808.910	0.0142356
808.988	0.0142773
809.066	0.0142606
809.144	0.0142595
809.222	0.0142410
809.300	0.0141591
809.378	0.0142088
809.456	0.0142530
809.535	0.0144176
809.613	0.0143259
809.691	0.0143999
809.769	0.0144392
809.847	0.0142502
809.925	0.0143255
810.003	0.0143172
810.081	0.0144287
810.160	0.0143896
810.238	0.0142207
810.316	0.0143987
810.394	0.0142873
810.472	0.0141557
810.550	0.0142672
810.628	0.0140973
810.706	0.0138750
810.785	0.0138164
810.863	0.0137967
810.941	0.0135820
811.019	0.0136411
811.097	0.0136936
811.175	0.0136353
811.253	0.0135162
811.331	0.0134531
811.410	0.0136260
811.488	0.0135734
811.566	0.0137218
811.644	0.0138426
811.722	0.0139418
811.800	0.0138399
811.878	0.0140096
811.956	0.0140877
812.035	0.0142093
812.113	0.0143023
812.191	0.0142792
812.269	0.0143894
812.347	0.0143823
812.425	0.0142777
812.503	0.0143964
812.581	0.0142372
812.660	0.0142609
812.738	0.0144777
812.816	0.0143192
812.894	0.0143139
812.972	0.0142569
813.050	0.0144952
813.128	0.0143852
813.206	0.0144122
813.285	0.0144048
813.363	0.0143429
813.441	0.0143917
813.519	0.0143829
813.597	0.0144240
813.675	0.0143700
813.753	0.0142235
813.831	0.0143632
813.910	0.0143241
813.988	0.0145257
814.066	0.0144387
814.144	0.0144183
814.222	0.0142687
814.300	0.0144156
814.378	0.0144571
814.456	0.0143429
814.535	0.0143717
814.613	0.0144294
814.691	0.0143636
814.769	0.0144774
814.847	0.0144903
814.925	0.0144897
815.003	0.0144646
815.081	0.0146019
815.160	0.0145506
815.238	0.0146422
815.316	0.0147767
815.394	0.0145724
815.472	0.0147566
815.550	0.0147713
815.628	0.0146735
815.706	0.0146256
815.785	0.0147547
815.863	0.0146719
815.941	0.0147067
816.019	0.0146577
816.097	0.0144707
816.175	0.0144032
816.253	0.0145610
816.331	0.0144274
816.410	0.0144069
816.488	0.0145441
816.566	0.0144114
816.644	0.0144494
816.722	0.0144547
816.800	0.0143005
816.878	0.0144286
816.956	0.0144085
817.035	0.0143999
817.113	0.0142697
817.191	0.0142558
817.269	0.0142656
817.347	0.0141863
817.425	0.0139713
817.503	0.0140459
817.581	0.0138298
817.660	0.0139875
817.738	0.0139012
817.816	0.0138212
817.894	0.0138974
817.972	0.0139005
818.050	0.0137833
818.128	0.0137579
818.206	0.0138279
818.285	0.0139057
818.363	0.0138532
818.441	0.0139896
818.519	0.0139034
818.597	0.0139502
818.675	0.0140576
818.753	0.0141932
818.831	0.0141162
818.910	0.0141617
818.988	0.0143473
819.066	0.0142675
819.144	0.0140676
819.222	0.0142625
819.300	0.0143900
819.378	0.0143477
819.456	0.0141862
819.535	0.0142402
819.613	0.0144388
819.691	0.0143390
819.769	0.0142882
819.847	0.0142838
819.925	0.0144737
820.003	0.0143248
820.081	0.0144087
820.160	0.0144262
820.238	0.0144597
820.316	0.0144569
820.394	0.0144167
820.472	0.0144527
820.550	0.0143661
820.628	0.0144012
820.706	0.0144620
820.785	0.0144445
820.863	0.0144557
820.941	0.0144724
821.019	0.0144186
821.097	0.0145904
821.175	0.0144135
821.253	0.0144971
821.331	0.0144948
821.410	0.0144296
821.488	0.0144650
821.566	0.0145537
821.644	0.0142912
821.722	0.0143393
821.800	0.0144173
821.878	0.0143375
821.956	0.0143964
822.035	0.0144833
822.113	0.0142359
822.191	0.0143456
822.269	0.0145390
822.347	0.0144124
822.425	0.0144627
822.503	0.0143967
822.581	0.0141972
822.660	0.0144170
822.738	0.0143221
822.816	0.0143417
822.894	0.0141763
822.972	0.0142942
823.050	0.0142184
823.128	0.0143118
823.206	0.0143919
823.285	0.0142627
823.363	0.0141502
823.441	0.0141515
823.519	0.0144294
823.597	0.0141942
823.675	0.0142208
823.753	0.0142719
823.831	0.0142751
823.910	0.0143004
823.988	0.0143292
824.066	0.0143812
824.144	0.0144093
824.222	0.0143835
824.300	0.0143410
824.378	0.0142732
824.456	0.0142475
824.535	0.0141739
824.613	0.0141894
824.691	0.0142622
824.769	0.0143564
824.847	0.0143107
824.925	0.0142034
825.003	0.0143999
825.081	0.0145322
825.160	0.0143076
825.238	0.0143398
825.316	0.0144306
825.394	0.0143388
825.472	0.0143141
825.550	0.0142894
825.628	0.0142728
825.706	0.0143142
825.785	0.0142448
825.863	0.0142336
825.941	0.0140520
826.019	0.0140568
826.097	0.0140204
826.175	0.0142101
826.253	0.0141959
826.331	0.0139462
826.410	0.0140023
826.488	0.0141760
826.566	0.0140299
826.644	0.0140861
826.722	0.0139990
826.800	0.0140988
826.878	0.0141375
826.956	0.0140075
827.035	0.0141119
827.113	0.0140409
827.191	0.0142429
827.269	0.0139248
827.347	0.0140926
827.425	0.0140341
827.503	0.0138828
827.581	0.0139001
827.660	0.0140575
827.738	0.0139820
827.816	0.0139452
827.894	0.0139801
827.972	0.0139806
828.050	0.0139431
828.128	0.0140408
828.206	0.0140589
828.285	0.0141093
828.363	0.0143329
828.441	0.0144084
828.519	0.0142142
828.597	0.0142764
828.675	0.0145174
828.753	0.0144511
828.831	0.0146210
828.910	0.0148267
828.988	0.0146483
829.066	0.0147970
829.144	0.0147904
829.222	0.0149881
829.300	0.0149071
829.378	0.0147287
829.456	0.0147355
829.535	0.0147977
829.613	0.0147561
829.691	0.0146925
829.769	0.0145396
829.847	0.0144649
829.925	0.0145739
830.003	0.0146227
830.081	0.0145403
830.160	0.0145657
830.238	0.0144900
830.316	0.0144894
830.394	0.0143627
830.472	0.0144714
830.550	0.0145047
830.628	0.0146198
830.706	0.0145003
830.785	0.0145213
830.863	0.0145159
830.941	0.0144450
831.019	0.0144126
831.097	0.0142430
831.175	0.0143172
831.253	0.0143050
831.331	0.0142233
831.410	0.0141812
831.488	0.0139689
831.566	0.0139973
831.644	0.0139690
831.722	0.0138834
831.800	0.0139542
831.878	0.0139333
831.956	0.0139008
832.035	0.0138579
832.113	0.0139597
832.191	0.0139395
832.269	0.0138228
832.347	0.0138721
832.425	0.0141788
832.503	0.0141076
832.581	0.0139300
832.660	0.0141253
832.738	0.0140454
832.816	0.0139217
832.894	0.0139739
832.972	0.0140241
833.050	0.0140077
833.128	0.0138584
833.206	0.0139848
833.285	0.0138744
833.363	0.0139843
833.441	0.0138856
833.519	0.0140096
833.597	0.0140533
833.675	0.0139653
833.753	0.0138605
833.831	0.0138982
833.910	0.0140812
833.988	0.0139994
834.066	0.0139101
834.144	0.0139168
834.222	0.0139041
834.300	0.0139209
834.378	0.0139921
834.456	0.0140607
834.535	0.0139902
834.613	0.0141451
834.691	0.0141973
834.769	0.0142146
834.847	0.0143306
834.925	0.0144256
835.003	0.0143964
835.081	0.0145715
835.160	0.0146929
835.238	0.0148219
835.316	0.0148444
835.394	0.0148804
835.472	0.0149280
835.550	0.0149779
835.628	0.0149503
835.706	0.0150462
835.785	0.0149603
835.863	0.0148471
835.941	0.0147488
836.019	0.0146570
836.097	0.0149019
836.175	0.0147852
836.253	0.0146266
836.331	0.0144876
836.410	0.0145646
836.488	0.0146354
836.566	0.0144982
836.644	0.0144547
836.722	0.0145142
836.800	0.0143580
836.878	0.0142178
836.956	0.0143984
837.035	0.0144308
837.113	0.0143748
837.191	0.0142021
837.269	0.0143150
837.347	0.0144035
837.425	0.0143433
837.503	0.0142312
837.581	0.0142706
837.660	0.0143152
837.738	0.0143076
837.816	0.0141785
837.894	0.0142040
837.972	0.0144007
838.050	0.0143352
838.128	0.0142933
838.206	0.0143358
838.285	0.0143363
838.363	0.0141924
838.441	0.0141778
838.519	0.0140676
838.597	0.0141255
838.675	0.0141861
838.753	0.0142249
838.831	0.0141882
838.910	0.0142094
838.988	0.0142323
839.066	0.0141373
839.144	0.0140314
839.222	0.0141039
839.300	0.0141216
839.378	0.0140422
839.456	0.0140537
839.535	0.0139419
839.613	0.0140030
839.691	0.0140198
839.769	0.0140147
839.847	0.0139757
839.925	0.0140042
840.003	0.0140816
840.081	0.0140289
840.160	0.0139739
840.238	0.0141617
840.316	0.0139757
840.394	0.0140595
840.472	0.0140580
840.550	0.0142570
840.628	0.0143113
840.706	0.0142107
840.785	0.0142165
840.863	0.0142493
840.941	0.0142493
841.019	0.0142710
841.097	0.0143111
841.175	0.0143742
841.253	0.0142651
841.331	0.0141573
841.410	0.0141647
841.488	0.0142608
841.566	0.0141358
841.644	0.0142244
841.722	0.0142899
841.800	0.0141131
841.878	0.0142686
841.956	0.0143337
842.035	0.0144749
842.113	0.0146510
842.191	0.0146514
842.269	0.0147623
842.347	0.0147033
842.425	0.0147578
842.503	0.0148834
842.581	0.0149326
842.660	0.0148569
842.738	0.0147946
842.816	0.0148049
842.894	0.0147938
842.972	0.0147731
843.050	0.0146116
843.128	0.0145528
843.206	0.0144403
843.285	0.0144073
843.363	0.0143344
843.441	0.0143349
843.519	0.0141991
843.597	0.0143248
843.675	0.0142146
843.753	0.0142258
843.831	0.0141997
843.910	0.0141882
843.988	0.0142940
844.066	0.0143465
844.144	0.0142838
844.222	0.0144801
844.300	0.0145076
844.378	0.0144122
844.456	0.0145689
844.535	0.0143976
844.613	0.0144205
844.691	0.0144942
844.769	0.0143889
844.847	0.0144447
844.925	0.0142516
845.003	0.0142382
845.081	0.0142857
845.160	0.0140577
845.238	0.0140720
845.316	0.0140080
845.394	0.0140643
845.472	0.0140010
845.550	0.0139754
845.628	0.0140736
845.706	0.0140444
845.785	0.0139911
845.863	0.0139957
845.941	0.0140034
846.019	0.0140975
846.097	0.0141264
846.175	0.0141975
846.253	0.0142392
846.331	0.0143968
846.410	0.0143994
846.488	0.0143853
846.566	0.0142990
846.644	0.0143235
846.722	0.0144250
846.800	0.0144914
846.878	0.0144420
846.956	0.0145053
847.035	0.0144247
847.113	0.0144194
847.191	0.0143636
847.269	0.0144679
847.347	0.0145246
847.425	0.0144386
847.503	0.0142076
847.581	0.0143116
847.660	0.0144023
847.738	0.0141895
847.816	0.0142947
847.894	0.0141137
847.972	0.0142930
848.050	0.0141437
848.128	0.0140465
848.206	0.0140655
848.285	0.0139297
848.363	0.0142172
848.441	0.0140840
848.519	0.0140437
848.597	0.0141615
848.675	0.0141301
848.753	0.0142351
848.831	0.0143224
848.910	0.0143179
848.988	0.0144154
849.066	0.0144370
849.144	0.0145026
849.222	0.0145554
849.300	0.0145724
849.378	0.0144733
849.456	0.0145522
849.535	0.0146455
849.613	0.0144891
849.691	0.0144337
849.769	0.0145597
849.847	0.0144307
849.925	0.0145670
850.003	0.0144385
850.081	0.0143994
850.160	0.0144881
850.238	0.0145266
850.316	0.0143938
850.394	0.0144459
850.472	0.0144702
850.550	0.0145186
850.628	0.0144118
850.706	0.0143781
850.785	0.0143300
850.863	0.0144106
850.941	0.0144194
851.019	0.0143658
851.097	0.0142647
851.175	0.0143043
851.253	0.0144171
851.331	0.0142207
851.410	0.0142059
851.488	0.0142715
851.566	0.0142042
851.644	0.0141693
851.722	0.0141455
851.800	0.0141020
851.878	0.0142753
851.956	0.0142854
852.035	0.0143092
852.113	0.0142510
852.191	0.0142411
852.269	0.0142341
852.347	0.0143901
852.425	0.0142709
852.503	0.0142714
852.581	0.0143594
852.660	0.0142823
852.738	0.0143144
852.816	0.0143240
852.894	0.0143450
852.972	0.0143603
853.050	0.0144297
853.128	0.0144755
853.206	0.0141895
853.285	0.0144247
853.363	0.0143297
853.441	0.0142834
853.519	0.0143784
853.597	0.0142603
853.675	0.0143573
853.753	0.0144325
853.831	0.0142033
853.910	0.0143902
853.988	0.0143372
854.066	0.0143591
854.144	0.0142663
854.222	0.0142133
854.300	0.0143745
854.378	0.0140741
854.456	0.0143239
854.535	0.0142356
854.613	0.0141994
854.691	0.0143409
854.769	0.0143062
854.847	0.0143510
854.925	0.0142297
855.003	0.0143352
855.081	0.0144038
855.160	0.0144219
855.238	0.0144058
855.316	0.0143462
855.394	0.0144992
855.472	0.0143559
855.550	0.0143953
855.628	0.0143333
855.706	0.0143575
855.785	0.0143438
855.863	0.0143742
855.941	0.0143669
856.019	0.0143691
856.097	0.0143991
856.175	0.0142442
856.253	0.0142912
856.331	0.0141238
856.410	0.0142491
856.488	0.0142268
856.566	0.0142241
856.644	0.0141830
856.722	0.0140688
856.800	0.0142104
856.878	0.0142271
856.956	0.0140311
857.035	0.0140763
857.113	0.0142301
857.191	0.0141214
857.269	0.0142012
857.347	0.0142686
857.425	0.0142923
857.503	0.0143455
857.581	0.0142500
857.660	0.0144072
857.738	0.0144540
857.816	0.0144543
857.894	0.0144959
857.972	0.0145415
858.050	0.0145313
858.128	0.0145792
858.206	0.0144889
858.285	0.0144955
858.363	0.0145299
858.441	0.0143461
858.519	0.0144707
858.597	0.0144620
858.675	0.0146184
858.753	0.0143677
858.831	0.0142824
858.910	0.0143573
858.988	0.0143954
859.066	0.0142532
859.144	0.0143472
859.222	0.0145036
859.300	0.0143354
859.378	0.0144551
859.456	0.0144740
859.535	0.0144145
859.613	0.0143947
859.691	0.0142609
859.769	0.0144245
859.847	0.0144576
859.925	0.0144366
860.003	0.0143565
860.081	0.0143999
860.160	0.0143349
860.238	0.0143549
860.316	0.0143966
860.394	0.0144209
860.472	0.0144081
860.550	0.0144069
860.628	0.0143768
860.706	0.0144184
860.785	0.0144032
860.863	0.0144289
860.941	0.0143484
861.019	0.0143765
861.097	0.0143633
861.175	0.0143365
861.253	0.0144762
861.331	0.0144451
861.410	0.0143816
861.488	0.0143800
861.566	0.0141977
861.644	0.0142365
861.722	0.0142744
861.800	0.0142786
861.878	0.0141941
861.956	0.0142151
862.035	0.0142297
862.113	0.0142239
862.191	0.0141856
862.269	0.0142760
862.347	0.0141626
862.425	0.0141826
862.503	0.0141730
862.581	0.0141454
862.660	0.0141888
862.738	0.0141702
862.816	0.0141044
862.894	0.0140145
862.972	0.0140842
863.050	0.0139868
863.128	0.0140695
863.206	0.0140987
863.285	0.0139012
863.363	0.0139013
863.441	0.0140711
863.519	0.0138172
863.597	0.0139539
863.675	0.0141779
863.753	0.0140089
863.831	0.0141257
863.910	0.0140379
863.988	0.0141101
864.066	0.0141444
864.144	0.0142403
864.222	0.0142748
864.300	0.0145087
864.378	0.0143829
864.456	0.0144434
864.535	0.0144193
864.613	0.0144431
864.691	0.0145268
864.769	0.0145408
864.847	0.0144473
864.925	0.0144590
865.003	0.0144811
865.081	0.0144245
865.160	0.0143908
865.238	0.0143843
865.316	0.0142584
865.394	0.0144397
865.472	0.0140998
865.550	0.0141091
865.628	0.0142984
865.706	0.0142521
865.785	0.0141612
865.863	0.0142408
865.941	0.0143058
866.019	0.0142946
866.097	0.0144954
866.175	0.0143419
866.253	0.0145089
866.331	0.0146604
866.410	0.0146754
866.488	0.0146599
866.566	0.0147697
866.644	0.0148394
866.722	0.0147639
866.800	0.0146999
866.878	0.0147593
866.956	0.0148264
867.035	0.0146519
867.113	0.0147211
867.191	0.0147420
867.269	0.0147139
867.347	0.0145132
867.425	0.0144529
867.503	0.0144286
867.581	0.0143523
867.660	0.0142942
867.738	0.0142928
867.816	0.0142062
867.894	0.0141773
867.972	0.0140826
868.050	0.0142110
868.128	0.0142599
868.206	0.0142344
868.285	0.0141316
868.363	0.0140990
868.441	0.0139977
868.519	0.0140236
868.597	0.0141384
868.675	0.0141165
868.753	0.0140691
868.831	0.0141364
868.910	0.0141659
868.988	0.0141252
869.066	0.0140961
869.144	0.0140274
869.222	0.0141582
869.300	0.0140957
869.378	0.0140023
869.456	0.0141759
869.535	0.0141853
869.613	0.0142145
869.691	0.0140842
869.769	0.0141216
869.847	0.0142700
869.925	0.0141230
870.003	0.0141274
870.081	0.0140975
870.160	0.0143530
870.238	0.0144511
870.316	0.0143118
870.394	0.0142825
870.472	0.0145215
870.550	0.0144802
870.628	0.0144386
870.706	0.0144076
870.785	0.0143862
870.863	0.0143349
870.941	0.0144721
871.019	0.0143957
871.097	0.0143390
871.175	0.0143304
871.253	0.0143610
871.331	0.0142540
871.410	0.0143705
871.488	0.0143837
871.566	0.0143375
871.644	0.0143385
871.722	0.0144552
871.800	0.0144979
871.878	0.0142575
871.956	0.0144015
872.035	0.0144574
872.113	0.0143642
872.191	0.0143875
872.269	0.0144633
872.347	0.0144385
872.425	0.0144784
872.503	0.0145483
872.581	0.0143697
872.660	0.0143220
872.738	0.0145213
872.816	0.0144465
872.894	0.0145163
872.972	0.0144064
873.050	0.0144860
873.128	0.0143552
873.206	0.0142505
873.285	0.0142602
873.363	0.0142564
873.441	0.0143771
873.519	0.0144361
873.597	0.0143314
873.675	0.0143229
873.753	0.0143633
873.831	0.0143364
873.910	0.0144325
873.988	0.0143848
874.066	0.0144035
874.144	0.0143610
874.222	0.0143684
874.300	0.0143047
874.378	0.0143347
874.456	0.0143787
874.535	0.0142670
874.613	0.0143729
874.691	0.0144046
874.769	0.0143692
874.847	0.0143527
874.925	0.0143483
875.003	0.0144843
875.081	0.0143448
875.160	0.0143993
875.238	0.0143491
875.316	0.0143230
875.394	0.0144581
875.472	0.0144291
875.550	0.0143566
875.628	0.0143764
875.706	0.0143026
875.785	0.0143168
875.863	0.0143009
875.941	0.0141080
876.019	0.0141121
876.097	0.0142542
876.175	0.0142988
876.253	0.0143034
876.331	0.0141668
876.410	0.0141901
876.488	0.0141354
876.566	0.0141851
876.644	0.0140157
876.722	0.0142395
876.800	0.0141035
876.878	0.0140981
876.956	0.0140842
877.035	0.0140125
877.113	0.0141844
877.191	0.0141886
877.269	0.0142553
877.347	0.0142287
877.425	0.0140873
877.503	0.0142482
877.581	0.0141945
877.660	0.0141690
877.738	0.0142002
877.816	0.0142979
877.894	0.0141936
877.972	0.0142268
878.050	0.0142726
878.128	0.0141532
878.206	0.0142919
878.285	0.0141348
878.363	0.0142892
878.441	0.0142757
878.519	0.0142914
878.597	0.0143342
878.675	0.0142448
878.753	0.0142838
878.831	0.0142489
878.910	0.0142667
878.988	0.0142247
879.066	0.0144335
879.144	0.0143697
879.222	0.0142513
879.300	0.0143271
879.378	0.0143971
879.456	0.0143963
879.535	0.0145138
879.613	0.0145368
879.691	0.0143784
879.769	0.0143680
879.847	0.0143488
879.925	0.0141860
880.003	0.0141885
880.081	0.0143449
880.160	0.0144350
880.238	0.0143147
880.316	0.0142926
880.394	0.0142230
880.472	0.0141911
880.550	0.0142448
880.628	0.0142849
880.706	0.0144769
880.785	0.0144541
880.863	0.0144799
880.941	0.0144876
881.019	0.0144624
881.097	0.0144395
881.175	0.0144259
881.253	0.0145574
881.331	0.0145258
881.410	0.0145040
881.488	0.0144650
881.566	0.0142996
881.644	0.0143532
881.722	0.0144870
881.800	0.0144540
881.878	0.0144109
881.956	0.0145020
882.035	0.0144302
882.113	0.0142994
882.191	0.0142918
882.269	0.0143977
882.347	0.0143124
882.425	0.0143661
882.503	0.0142902
882.581	0.0143175
882.660	0.0143914
882.738	0.0143269
882.816	0.0142103
882.894	0.0142001
882.972	0.0142110
883.050	0.0142472
883.128	0.0142478
883.206	0.0141752
883.285	0.0143241
883.363	0.0143941
883.441	0.0143245
883.519	0.0142202
883.597	0.0143230
883.675	0.0141394
883.753	0.0143356
883.831	0.0143450
883.910	0.0142274
883.988	0.0142287
884.066	0.0142667
884.144	0.0141955
884.222	0.0142317
884.300	0.0141378
884.378	0.0141257
884.456	0.0141194
884.535	0.0142048
884.613	0.0141296
884.691	0.0141669
884.769	0.0142386
884.847	0.0142947
884.925	0.0143224
885.003	0.0142739
885.081	0.0143298
885.160	0.0143501
885.238	0.0140958
885.316	0.0142566
885.394	0.0141649
885.472	0.0142195
885.550	0.0139706
885.628	0.0141895
885.706	0.0142114
885.785	0.0141847
885.863	0.0141094
885.941	0.0140382
886.019	0.0141785
886.097	0.0141205
886.175	0.0141576
886.253	0.0142336
886.331	0.0143102
886.410	0.0142227
886.488	0.0143672
886.566	0.0143095
886.644	0.0142442
886.722	0.0143788
886.800	0.0143124
886.878	0.0143146
886.956	0.0143337
887.035	0.0143894
887.113	0.0142855
887.191	0.0144769
887.269	0.0144886
887.347	0.0143679
887.425	0.0144075
887.503	0.0143125
887.581	0.0143860
887.660	0.0143392
887.738	0.0143999
887.816	0.0145074
887.894	0.0145055
887.972	0.0143919
888.050	0.0143517
888.128	0.0144554
888.206	0.0144471
888.285	0.0145046
888.363	0.0145333
888.441	0.0144033
888.519	0.0144847
888.597	0.0144915
888.675	0.0143902
888.753	0.0142645
888.831	0.0143556
888.910	0.0142191
888.988	0.0142322
889.066	0.0143227
889.144	0.0142031
889.222	0.0142073
889.300	0.0141846
889.378	0.0141840
889.456	0.0142692
889.535	0.0141517
889.613	0.0141923
889.691	0.0142630
889.769	0.0142980
889.847	0.0142783
889.925	0.0143092
890.003	0.0141997
890.081	0.0140968
890.160	0.0140708
890.238	0.0142856
890.316	0.0142250
890.394	0.0141962
890.472	0.0141422
890.550	0.0142471
890.628	0.0140403
890.706	0.0140828
890.785	0.0140865
890.863	0.0140341
890.941	0.0141848
891.019	0.0140534
891.097	0.0139676
891.175	0.0140828
891.253	0.0142457
891.331	0.0141779
891.410	0.0140422
891.488	0.0142234
891.566	0.0141717
891.644	0.0141556
891.722	0.0141615
891.800	0.0141365
891.878	0.0140819
891.956	0.0142315
892.035	0.0142390
892.113	0.0141078
892.191	0.0141528
892.269	0.0142212
892.347	0.0140631
892.425	0.0143736
892.503	0.0141925
892.581	0.0142299
892.660	0.0142216
892.738	0.0142599
892.816	0.0142389
892.894	0.0142017
892.972	0.0143077
893.050	0.0142690
893.128	0.0143357
893.206	0.0143296
893.285	0.0143227
893.363	0.0142427
893.441	0.0142601
893.519	0.0141522
893.597	0.0142228
893.675	0.0143709
893.753	0.0141730
893.831	0.0142253
893.910	0.0142814
893.988	0.0142490
894.066	0.0142260
894.144	0.0143510
894.222	0.0143428
894.300	0.0142160
894.378	0.0142525
894.456	0.0143415
894.535	0.0143365
894.613	0.0144048
894.691	0.0143591
894.769	0.0142947
894.847	0.0142766
894.925	0.0142705
895.003	0.0143561
895.081	0.0140903
895.160	0.0141483
895.238	0.0142493
895.316	0.0143990
895.394	0.0142200
895.472	0.0142059
895.550	0.0143153
895.628	0.0143683
895.706	0.0144095
895.785	0.0142265
895.863	0.0143780
895.941	0.0145445
896.019	0.0143854
896.097	0.0145161
896.175	0.0144588
896.253	0.0144958
896.331	0.0144610
896.410	0.0143543
896.488	0.0145161
896.566	0.0143143
896.644	0.0142756
896.722	0.0143431
896.800	0.0142782
896.878	0.0142139
896.956	0.0142564
897.035	0.0142307
897.113	0.0141605
897.191	0.0142085
897.269	0.0140779
897.347	0.0141416
897.425	0.0141594
897.503	0.0141659
897.581	0.0141454
897.660	0.0145216
897.738	0.0142833
897.816	0.0143293
897.894	0.0144209
897.972	0.0142013
898.050	0.0142544
898.128	0.0140945
898.206	0.0143195
898.285	0.0142674
898.363	0.0142671
898.441	0.0142660
898.519	0.0142340
898.597	0.0142661
898.675	0.0142213
898.753	0.0142500
898.831	0.0143748
898.910	0.0143056
898.988	0.0143121
899.066	0.0143388
899.144	0.0142361
899.222	0.0140932
899.300	0.0141807
899.378	0.0141483
899.456	0.0141598
899.535	0.0142123
899.613	0.0141262
899.691	0.0141631
899.769	0.0141212
899.847	0.0140220
899.925	0.0141115
900.003	0.0141624
900.081	0.0140227
900.160	0.0140871
900.238	0.0140092
900.316	0.0140338
900.394	0.0140948
900.472	0.0140581
900.550	0.0141997
900.628	0.0141071
900.706	0.0141125
900.785	0.0141620
900.863	0.0140435
900.941	0.0141667
901.019	0.0142055
901.097	0.0142953
901.175	0.0142581
901.253	0.0142896
901.331	0.0142944
901.410	0.0143252
901.488	0.0143169
901.566	0.0143517
901.644	0.0143620
901.722	0.0143048
901.800	0.0143187
901.878	0.0143141
901.956	0.0141963
902.035	0.0142040
902.113	0.0141100
902.191	0.0139497
902.269	0.0141220
902.347	0.0140868
902.425	0.0139481
902.503	0.0140983
902.581	0.0142137
902.660	0.0142809
902.738	0.0143534
902.816	0.0144982
902.894	0.0144578
902.972	0.0145145
903.050	0.0146410
903.128	0.0146453
903.206	0.0146708
903.285	0.0146741
903.363	0.0147032
903.441	0.0147030
903.519	0.0144154
903.597	0.0145004
903.675	0.0143681
903.753	0.0143154
903.831	0.0142472
903.910	0.0142300
903.988	0.0140505
904.066	0.0140667
904.144	0.0140696
904.222	0.0140043
904.300	0.0138275
904.378	0.0139408
904.456	0.0138046
904.535	0.0138446
904.613	0.0139936
904.691	0.0139252
904.769	0.0140646
904.847	0.0141592
904.925	0.0143050
905.003	0.0143192
905.081	0.0143758
905.160	0.0145419
905.238	0.0144839
905.316	0.0144386
905.394	0.0142973
905.472	0.0140591
905.550	0.0139838
905.628	0.0136462
905.706	0.0135855
905.785	0.0135356
905.863	0.0135931
905.941	0.0135704
906.019	0.0135933
906.097	0.0136550
906.175	0.0139109
906.253	0.0142487
906.331	0.0141700
906.410	0.0143053
906.488	0.0146550
906.566	0.0148584
906.644	0.0147779
906.722	0.0149142
906.800	0.0150805
906.878	0.0149804
906.956	0.0148809
907.035	0.0149599
907.113	0.0148698
907.191	0.0149166
907.269	0.0147978
907.347	0.0146969
907.425	0.0146433
907.503	0.0144760
907.581	0.0144473
907.660	0.0144457
907.738	0.0143780
907.816	0.0142085
907.894	0.0141652
907.972	0.0141289
908.050	0.0142010
908.128	0.0139208
908.206	0.0139281
908.285	0.0139110
908.363	0.0137936
908.441	0.0136628
908.519	0.0136803
908.597	0.0135300
908.675	0.0135890
908.753	0.0137201
908.831	0.0135854
908.910	0.0136582
908.988	0.0136115
909.066	0.0137014
909.144	0.0137605
909.222	0.0138279
909.300	0.0139222
909.378	0.0139969
909.456	0.0140820
909.535	0.0142404
909.613	0.0143593
909.691	0.0144458
909.769	0.0145111
909.847	0.0145866
909.925	0.0147737
910.003	0.0147612
910.081	0.0148122
910.160	0.0148772
910.238	0.0150719
910.316	0.0149783
910.394	0.0149468
910.472	0.0148638
910.550	0.0149567
910.628	0.0148250
910.706	0.0147689
910.785	0.0147481
910.863	0.0145889
910.941	0.0143749
911.019	0.0144767
911.097	0.0143744
911.175	0.0143591
911.253	0.0142700
911.331	0.0142003
911.410	0.0143292
911.488	0.0141901
911.566	0.0140720
911.644	0.0141017
911.722	0.0140191
911.800	0.0139265
911.878	0.0138481
911.956	0.0139582
912.035	0.0138450
912.113	0.0140137
912.191	0.0139773
912.269	0.0140672
912.347	0.0138519
912.425	0.0139520
912.503	0.0140481
912.581	0.0139372
912.660	0.0140395
912.738	0.0141689
912.816	0.0141152
912.894	0.0142617
912.972	0.0141010
913.050	0.0141306
913.128	0.0142336
913.206	0.0142033
913.285	0.0142148
913.363	0.0142225
913.441	0.0142358
913.519	0.0141551
913.597	0.0142432
913.675	0.0143965
913.753	0.0143098
913.831	0.0144319
913.910	0.0143431
913.988	0.0144543
914.066	0.0144610
914.144	0.0143765
914.222	0.0145428
914.300	0.0144948
914.378	0.0146671
914.456	0.0145583
914.535	0.0145096
914.613	0.0146572
914.691	0.0144619
914.769	0.0145927
914.847	0.0146215
914.925	0.0146072
915.003	0.0144978
915.081	0.0143841
915.160	0.0143602
915.238	0.0144050
915.316	0.0145428
915.394	0.0145131
915.472	0.0144713
915.550	0.0144695
915.628	0.0143092
915.706	0.0142721
915.785	0.0142192
915.863	0.0142721
915.941	0.0142103
916.019	0.0143708
916.097	0.0142670
916.175	0.0142749
916.253	0.0143037
916.331	0.0141873
916.410	0.0142653
916.488	0.0144480
916.566	0.0143974
916.644	0.0143147
916.722	0.0142064
916.800	0.0142069
916.878	0.0141171
916.956	0.0141936
917.035	0.0141309
917.113	0.0141386
917.191	0.0140450
917.269	0.0140873
917.347	0.0140285
917.425	0.0140778
917.503	0.0140144
917.581	0.0139856
917.660	0.0141228
917.738	0.0141080
917.816	0.0141582
917.894	0.0141754
917.972	0.0140855
918.050	0.0141412
918.128	0.0141026
918.206	0.0142516
918.285	0.0142879
918.363	0.0143687
918.441	0.0144171
918.519	0.0145432
918.597	0.0144029
918.675	0.0146705
918.753	0.0147050
918.831	0.0146441
918.910	0.0146988
918.988	0.0147119
919.066	0.0146755
919.144	0.0146004
919.222	0.0145348
919.300	0.0145793
919.378	0.0146111
919.456	0.0144929
919.535	0.0142841
919.613	0.0143211
919.691	0.0142563
919.769	0.0143784
919.847	0.0143143
919.925	0.0142526
920.003	0.0143212
920.081	0.0143657
920.160	0.0143773
920.238	0.0144310
920.316	0.0143483
920.394	0.0143235
920.472	0.0141653
920.550	0.0142142
920.628	0.0141700
920.706	0.0140672
920.785	0.0140507
920.863	0.0140520
920.941	0.0137845
921.019	0.0138560
921.097	0.0138181
921.175	0.0137655
921.253	0.0138184
921.331	0.0138621
921.410	0.0139890
921.488	0.0139460
921.566	0.0141135
921.644	0.0140135
921.722	0.0140899
921.800	0.0141577
921.878	0.0142563
921.956	0.0142287
922.035	0.0141965
922.113	0.0142564
922.191	0.0142318
922.269	0.0141834
922.347	0.0142177
922.425	0.0140406
922.503	0.0139597
922.581	0.0140125
922.660	0.0140193
922.738	0.0140047
922.816	0.0139794
922.894	0.0139561
922.972	0.0140009
923.050	0.0141460
923.128	0.0141754
923.206	0.0142079
923.285	0.0142999
923.363	0.0143589
923.441	0.0143375
923.519	0.0144072
923.597	0.0145043
923.675	0.0145728
923.753	0.0146695
923.831	0.0146514
923.910	0.0148251
923.988	0.0147716
924.066	0.0149362
924.144	0.0149051
924.222	0.0147566
924.300	0.0147226
924.378	0.0146697
924.456	0.0147624
924.535	0.0146362
924.613	0.0145098
924.691	0.0145247
924.769	0.0146305
924.847	0.0143916
924.925	0.0144253
925.003	0.0143774
925.081	0.0143633
925.160	0.0142740
925.238	0.0143713
925.316	0.0143793
925.394	0.0143670
925.472	0.0143651
925.550	0.0143731
925.628	0.0143141
925.706	0.0143537
925.785	0.0142417
925.863	0.0142434
925.941	0.0142179
926.019	0.0141473
926.097	0.0141738
926.175	0.0141859
926.253	0.0141680
926.331	0.0141236
926.410	0.0141224
926.488	0.0141366
926.566	0.0141544
926.644	0.0141515
926.722	0.0141288
926.800	0.0142764
926.878	0.0142315
926.956	0.0142037
927.035	0.0142660
927.113	0.0143540
927.191	0.0143710
927.269	0.0143877
927.347	0.0143524
927.425	0.0144026
927.503	0.0143330
927.581	0.0144141
927.660	0.0143340
927.738	0.0143126
927.816	0.0142817
927.894	0.0142613
927.972	0.0141917
928.050	0.0142031
928.128	0.0141055
928.206	0.0139630
928.285	0.0139441
928.363	0.0142102
928.441	0.0141457
928.519	0.0139420
928.597	0.0140149
928.675	0.0139100
928.753	0.0140104
928.831	0.0141523
928.910	0.0141541
928.988	0.0141436
929.066	0.0142275
929.144	0.0142220
929.222	0.0143465
929.300	0.0143999
929.378	0.0144491
929.456	0.0144805
929.535	0.0146312
929.613	0.0145313
929.691	0.0145424
929.769	0.0144998
929.847	0.0145553
929.925	0.0144813
930.003	0.0144717
930.081	0.0145058
930.160	0.0144698
930.238	0.0144636
930.316	0.0145122
930.394	0.0142853
930.472	0.0144169
930.550	0.0144743
930.628	0.0143106
930.706	0.0143962
930.785	0.0143689
930.863	0.0143600
930.941	0.0144860
931.019	0.0144648
931.097	0.0144279
931.175	0.0144820
931.253	0.0144634
931.331	0.0145168
931.410	0.0144776
931.488	0.0142645
931.566	0.0144666
931.644	0.0144655
931.722	0.0146622
931.800	0.0144376
931.878	0.0145245
931.956	0.0145190
932.035	0.0144556
932.113	0.0143648
932.191	0.0142962
932.269	0.0145170
932.347	0.0146021
932.425	0.0144685
932.503	0.0143732
932.581	0.0143013
932.660	0.0141180
932.738	0.0142171
932.816	0.0142590
932.894	0.0142565
932.972	0.0141901
933.050	0.0141149
933.128	0.0142150
933.206	0.0142717
933.285	0.0140257
933.363	0.0141902
933.441	0.0142105
933.519	0.0140877
933.597	0.0141615
933.675	0.0140813
933.753	0.0141766
933.831	0.0141982
933.910	0.0141268
933.988	0.0141000
934.066	0.0140346
934.144	0.0142001
934.222	0.0140528
934.300	0.0142085
934.378	0.0143839
934.456	0.0143037
934.535	0.0143333
934.613	0.0142996
934.691	0.0142915
934.769	0.0143571
934.847	0.0142899
934.925	0.0143560
935.003	0.0143807
935.081	0.0144138
935.160	0.0144763
935.238	0.0145179
935.316	0.0144927
935.394	0.0143277
935.472	0.0144806
935.550	0.0143874
935.628	0.0145091
935.706	0.0146439
935.785	0.0143784
935.863	0.0144005
935.941	0.0144482
936.019	0.0144170
936.097	0.0144500
936.175	0.0144746
936.253	0.0142361
936.331	0.0144324
936.410	0.0143776
936.488	0.0144656
936.566	0.0142825
936.644	0.0143360
936.722	0.0144109
936.800	0.0144270
936.878	0.0144218
936.956	0.0143767
937.035	0.0143324
937.113	0.0142905
937.191	0.0142367
937.269	0.0143333
937.347	0.0142220
937.425	0.0141596
937.503	0.0141973
937.581	0.0141058
937.660	0.0141717
937.738	0.0141808
937.816	0.0141953
937.894	0.0141602
937.972	0.0141100
938.050	0.0141690
938.128	0.0142329
938.206	0.0142436
938.285	0.0143500
938.363	0.0144485
938.441	0.0142326
938.519	0.0144025
938.597	0.0144286
938.675	0.0145475
938.753	0.0145603
938.831	0.0143830
938.910	0.0144216
938.988	0.0143771
939.066	0.0143853
939.144	0.0143877
939.222	0.0144161
939.300	0.0143088
939.378	0.0142683
939.456	0.0142821
939.535	0.0142159
939.613	0.0142422
939.691	0.0142132
939.769	0.0144156
939.847	0.0143213
939.925	0.0143518
940.003	0.0143265
940.081	0.0143893
940.160	0.0145200
940.238	0.0144672
940.316	0.0144249
940.394	0.0145413
940.472	0.0146053
940.550	0.0145599
940.628	0.0144837
940.706	0.0144601
940.785	0.0145208
940.863	0.0144703
940.941	0.0145383
941.019	0.0144228
941.097	0.0142879
941.175	0.0143510
941.253	0.0142550
941.331	0.0141085
941.410	0.0142483
941.488	0.0141863
941.566	0.0140982
941.644	0.0140460
941.722	0.0140478
941.800	0.0142147
941.878	0.0142017
941.956	0.0141048
942.035	0.0141630
942.113	0.0141890
942.191	0.0142064
942.269	0.0142778
942.347	0.0141563
942.425	0.0141878
942.503	0.0142944
942.581	0.0141548
942.660	0.0141958
942.738	0.0143102
942.816	0.0142651
942.894	0.0142283
942.972	0.0141952
943.050	0.0142053
943.128	0.0142834
943.206	0.0142326
943.285	0.0142713
943.363	0.0143338
943.441	0.0144919
943.519	0.0142356
943.597	0.0144391
943.675	0.0144368
943.753	0.0143300
943.831	0.0143014
943.910	0.0142384
943.988	0.0142795
944.066	0.0143008
944.144	0.0144336
944.222	0.0142662
944.300	0.0142158
944.378	0.0141887
944.456	0.0142368
944.535	0.0141464
944.613	0.0141819
944.691	0.0141941
944.769	0.0142449
944.847	0.0143024
944.925	0.0143058
945.003	0.0143560
945.081	0.0144595
945.160	0.0143850
945.238	0.0144247
945.316	0.0144259
945.394	0.0145014
945.472	0.0145263
945.550	0.0145376
945.628	0.0144900
945.706	0.0144719
945.785	0.0144659
945.863	0.0145054
945.941	0.0145047
946.019	0.0145026
946.097	0.0143959
946.175	0.0144305
946.253	0.0144335
946.331	0.0142718
946.410	0.0142503
946.488	0.0143459
946.566	0.0143537
946.644	0.0141283
946.722	0.0140305
946.800	0.0140828
946.878	0.0142370
946.956	0.0142155
947.035	0.0143092
947.113	0.0144341
947.191	0.0144984
947.269	0.0143985
947.347	0.0145641
947.425	0.0144577
947.503	0.0144131
947.581	0.0143846
947.660	0.0144446
947.738	0.0143734
947.816	0.0142888
947.894	0.0142867
947.972	0.0141245
948.050	0.0141923
948.128	0.0140367
948.206	0.0140078
948.285	0.0140405
948.363	0.0140166
948.441	0.0140102
948.519	0.0139987
948.597	0.0139687
948.675	0.0138593
948.753	0.0140064
948.831	0.0142863
948.910	0.0142052
948.988	0.0142780
949.066	0.0144629
949.144	0.0144354
949.222	0.0146130
949.300	0.0146442
949.378	0.0147087
949.456	0.0147832
949.535	0.0146062
949.613	0.0145115
949.691	0.0145645
949.769	0.0144485
949.847	0.0143932
949.925	0.0144572
950.003	0.0142811
950.081	0.0142545
950.160	0.0141866
950.238	0.0141673
950.316	0.0140373
950.394	0.0142247
950.472	0.0142333
950.550	0.0141767
950.628	0.0141861
950.706	0.0141604
950.785	0.0141274
950.863	0.0141823
950.941	0.0142034
951.019	0.0141977
951.097	0.0141505
951.175	0.0140945
951.253	0.0141444
951.331	0.0142446
951.410	0.0141997
951.488	0.0142769
951.566	0.0141756
951.644	0.0141709
951.722	0.0141323
951.800	0.0142542
951.878	0.0142760
951.956	0.0141833
952.035	0.0141892
952.113	0.0144063
952.191	0.0143448
952.269	0.0142129
952.347	0.0143182
952.425	0.0143242
952.503	0.0141766
952.581	0.0142040
952.660	0.0141262
952.738	0.0142654
952.816	0.0141727
952.894	0.0142686
952.972	0.0142558
953.050	0.0143688
953.128	0.0142065
953.206	0.0141427
953.285	0.0142597
953.363	0.0140352
953.441	0.0141866
953.519	0.0142742
953.597	0.0144040
953.675	0.0143549
953.753	0.0143501
953.831	0.0143935
953.910	0.0143742
953.988	0.0144202
954.066	0.0143807
954.144	0.0144141
954.222	0.0145522
954.300	0.0143678
954.378	0.0144000
954.456	0.0144865
954.535	0.0144501
954.613	0.0142545
954.691	0.0145579
954.769	0.0145650
954.847	0.0145506
954.925	0.0144694
955.003	0.0146404
955.081	0.0145286
955.160	0.0144790
955.238	0.0144946
955.316	0.0144052
955.394	0.0143612
955.472	0.0143993
955.550	0.0143387
955.628	0.0143346
955.706	0.0144564
955.785	0.0143762
955.863	0.0143005
955.941	0.0142246
956.019	0.0142545
956.097	0.0140156
956.175	0.0140642
956.253	0.0141867
956.331	0.0143567
956.410	0.0141433
956.488	0.0140897
956.566	0.0142358
956.644	0.0143018
956.722	0.0143333
956.800	0.0143525
956.878	0.0143511
956.956	0.0142621
957.035	0.0145199
957.113	0.0145595
957.191	0.0143932
957.269	0.0144585
957.347	0.0144833
957.425	0.0144969
957.503	0.0145096
957.581	0.0145017
957.660	0.0143827
957.738	0.0143698
957.816	0.0144165
957.894	0.0145033
957.972	0.0144413
958.050	0.0143414
958.128	0.0145612
958.206	0.0144610
958.285	0.0144273
958.363	0.0144960
958.441	0.0142622
958.519	0.0144184
958.597	0.0144188
958.675	0.0144449
958.753	0.0145198
958.831	0.0142887
958.910	0.0143220
958.988	0.0143645
959.066	0.0142422
959.144	0.0143297
959.222	0.0143901
959.300	0.0141319
959.378	0.0141595
959.456	0.0140495
959.535	0.0141111
959.613	0.0141515
959.691	0.0139810
959.769	0.0139670
959.847	0.0140278
959.925	0.0140369
960.003	0.0139110
960.081	0.0140502
960.160	0.0140118
960.238	0.0139165
960.316	0.0141286
960.394	0.0142308
960.472	0.0142240
960.550	0.0142735
960.628	0.0142355
960.706	0.0142170
960.785	0.0144112
960.863	0.0143814
960.941	0.0143468
961.019	0.0142252
961.097	0.0143898
961.175	0.0142941
961.253	0.0142338
961.331	0.0142207
961.410	0.0143675
961.488	0.0142460
961.566	0.0142754
961.644	0.0143373
961.722	0.0143634
961.800	0.0145301
961.878	0.0144828
961.956	0.0144021
962.035	0.0145419
962.113	0.0145815
962.191	0.0144553
962.269	0.0144621
962.347	0.0147066
962.425	0.0145908
962.503	0.0145575
962.581	0.0146782
962.660	0.0144411
962.738	0.0146839
962.816	0.0148045
962.894	0.0145572
962.972	0.0145042
963.050	0.0144125
963.128	0.0143600
963.206	0.0145000
963.285	0.0143223
963.363	0.0142029
963.441	0.0143203
963.519	0.0141158
963.597	0.0139973
963.675	0.0141726
963.753	0.0140582
963.831	0.0138510
963.910	0.0141049
963.988	0.0139839
964.066	0.0138938
964.144	0.0140919
964.222	0.0140971
964.300	0.0141616
964.378	0.0141027
964.456	0.0139756
964.535	0.0142039
964.613	0.0140836
964.691	0.0142090
964.769	0.0142193
964.847	0.0139949
964.925	0.0141100
965.003	0.0141436
965.081	0.0140171
965.160	0.0141077
965.238	0.0140780
965.316	0.0140570
965.394	0.0139903
965.472	0.0139900
965.550	0.0139963
965.628	0.0139551
965.706	0.0139639
965.785	0.0141116
965.863	0.0141129
965.941	0.0141186
966.019	0.0141563
966.097	0.0141182
966.175	0.0141986
966.253	0.0143249
966.331	0.0143411
966.410	0.0143723
966.488	0.0144332
966.566	0.0142349
966.644	0.0145399
966.722	0.0144656
966.800	0.0143434
966.878	0.0144855
966.956	0.0144948
967.035	0.0143162
967.113	0.0142845
967.191	0.0144018
967.269	0.0143221
967.347	0.0143620
967.425	0.0143052
967.503	0.0142203
967.581	0.0143282
967.660	0.0143224
967.738	0.0143140
967.816	0.0144198
967.894	0.0144640
967.972	0.0144537
968.050	0.0145974
968.128	0.0145325
968.206	0.0146049
968.285	0.0145519
968.363	0.0145250
968.441	0.0146646
968.519	0.0147058
968.597	0.0145694
968.675	0.0145067
968.753	0.0145361
968.831	0.0143216
968.910	0.0142963
968.988	0.0143575
969.066	0.0144335
969.144	0.0142525
969.222	0.0143455
969.300	0.0142157
969.378	0.0141739
969.456	0.0140520
969.535	0.0141256
969.613	0.0141801
969.691	0.0143652
969.769	0.0143019
969.847	0.0141989
969.925	0.0143578
970.003	0.0145218
970.081	0.0144853
970.160	0.0144501
970.238	0.0145007
970.316	0.0143160
970.394	0.0145229
970.472	0.0142999
970.550	0.0143747
970.628	0.0141683
970.706	0.0143033
970.785	0.0142687
970.863	0.0140916
970.941	0.0140968
971.019	0.0142452
971.097	0.0142255
971.175	0.0141330
971.253	0.0142493
971.331	0.0142667
971.410	0.0141428
971.488	0.0142493
971.566	0.0143260
971.644	0.0143048
971.722	0.0143629
971.800	0.0143031
971.878	0.0143282
971.956	0.0142965
972.035	0.0142335
972.113	0.0142518
972.191	0.0144203
972.269	0.0143269
972.347	0.0142444
972.425	0.0144785
972.503	0.0142741
972.581	0.0143068
972.660	0.0142813
972.738	0.0142623
972.816	0.0142426
972.894	0.0142960
972.972	0.0141714
973.050	0.0142162
973.128	0.0141563
973.206	0.0141680
973.285	0.0141341
973.363	0.0141782
973.441	0.0140794
973.519	0.0141719
973.597	0.0140253
973.675	0.0142405
973.753	0.0140865
973.831	0.0142101
973.910	0.0141116
973.988	0.0140134
974.066	0.0141898
974.144	0.0142009
974.222	0.0140331
974.300	0.0140961
974.378	0.0142130
974.456	0.0141136
974.535	0.0140021
974.613	0.0142322
974.691	0.0142204
974.769	0.0142432
974.847	0.0142434
974.925	0.0144337
975.003	0.0143539
975.081	0.0143144
975.160	0.0143303
975.238	0.0142043
975.316	0.0142450
975.394	0.0142136
975.472	0.0142892
975.550	0.0142297
975.628	0.0142072
975.706	0.0142049
975.785	0.0141348
975.863	0.0140919
975.941	0.0142715
976.019	0.0142142
976.097	0.0142974
976.175	0.0141106
976.253	0.0142099
976.331	0.0144120
976.410	0.0144136
976.488	0.0143431
976.566	0.0145953
976.644	0.0146074
976.722	0.0145595
976.800	0.0145238
976.878	0.0145750
976.956	0.0144845
977.035	0.0144640
977.113	0.0144733
977.191	0.0144366
977.269	0.0144729
977.347	0.0143674
977.425	0.0143126
977.503	0.0141606
977.581	0.0141340
977.660	0.0141339
977.738	0.0141887
977.816	0.0140451
977.894	0.0141418
977.972	0.0141069
978.050	0.0139951
978.128	0.0140754
978.206	0.0141953
978.285	0.0140806
978.363	0.0141249
978.441	0.0140878
978.519	0.0141940
978.597	0.0143209
978.675	0.0142442
978.753	0.0140925
978.831	0.0140996
978.910	0.0141692
978.988	0.0141850
979.066	0.0142682
979.144	0.0142295
979.222	0.0142126
979.300	0.0143742
979.378	0.0143042
979.456	0.0142349
979.535	0.0142858
979.613	0.0143484
979.691	0.0143038
979.769	0.0141926
979.847	0.0144077
979.925	0.0143343
