05/03/2022	20:32:42	Ver.	4.1	UNKNOWN
Optical Delay	660.003261	Delta X		0.078125	Sweeps	1	Scan Rate	0/0
Coordinates	Axis 1	NaN	Axis 2	NaN	Axis 3	NaN	Axis 4	NaN	Axis 5	NaN	Axis 6	0.000000
TX Power	0.000000	RX Power	0.000000

660.003	0.0142205
660.081	0.0142085
660.160	0.0142690
660.238	0.0142006
660.316	0.0142227
660.394	0.0142642
660.472	0.0143034
660.550	0.0143539
660.628	0.0142813
660.706	0.0143041
660.785	0.0141430
660.863	0.0142101
660.941	0.0142068
661.019	0.0144724
661.097	0.0142696
661.175	0.0141486
661.253	0.0142141
661.331	0.0142766
661.410	0.0143924
661.488	0.0141003
661.566	0.0141820
661.644	0.0141501
661.722	0.0143156
661.800	0.0143018
661.878	0.0142110
661.956	0.0141190
662.035	0.0142200
662.113	0.0142038
662.191	0.0141390
662.269	0.0141704
662.347	0.0143784
662.425	0.0142275
662.503	0.0142403
662.581	0.0142809
662.660	0.0142635
662.738	0.0141975
662.816	0.0142730
662.894	0.0143265
662.972	0.0142473
663.050	0.0141682
663.128	0.0143239
663.206	0.0143127
663.285	0.0144282
663.363	0.0143196
663.441	0.0141583
663.519	0.0142389
663.597	0.0142709
663.675	0.0142657
663.753	0.0143756
663.831	0.0143838
663.910	0.0143646
663.988	0.0143380
664.066	0.0143211
664.144	0.0143005
664.222	0.0143770
664.300	0.0143127
664.378	0.0141483
664.456	0.0142445
664.535	0.0142307
664.613	0.0142746
664.691	0.0143800
664.769	0.0142591
664.847	0.0142187
664.925	0.0143197
665.003	0.0143269
665.081	0.0143542
665.160	0.0143238
665.238	0.0142471
665.316	0.0144697
665.394	0.0143516
665.472	0.0142786
665.550	0.0143786
665.628	0.0142712
665.706	0.0143752
665.785	0.0144350
665.863	0.0142989
665.941	0.0144073
666.019	0.0142451
666.097	0.0143565
666.175	0.0144365
666.253	0.0142467
666.331	0.0143375
666.410	0.0142471
666.488	0.0142097
666.566	0.0143037
666.644	0.0143686
666.722	0.0143250
666.800	0.0142685
666.878	0.0144169
666.956	0.0143291
667.035	0.0142731
667.113	0.0143479
667.191	0.0142403
667.269	0.0142794
667.347	0.0141671
667.425	0.0142694
667.503	0.0143919
667.581	0.0144073
667.660	0.0142470
667.738	0.0142862
667.816	0.0141897
667.894	0.0143431
667.972	0.0143762
668.050	0.0142098
668.128	0.0143185
668.206	0.0142196
668.285	0.0143214
668.363	0.0144215
668.441	0.0142081
668.519	0.0143228
668.597	0.0143459
668.675	0.0142244
668.753	0.0142795
668.831	0.0144146
668.910	0.0142992
668.988	0.0144597
669.066	0.0143276
669.144	0.0142873
669.222	0.0143564
669.300	0.0142875
669.378	0.0143066
669.456	0.0142866
669.535	0.0143270
669.613	0.0142511
669.691	0.0143604
669.769	0.0144636
669.847	0.0143311
669.925	0.0142957
670.003	0.0143278
670.081	0.0144341
670.160	0.0144070
670.238	0.0142918
670.316	0.0144001
670.394	0.0141943
670.472	0.0141794
670.550	0.0143194
670.628	0.0142705
670.706	0.0142799
670.785	0.0142114
670.863	0.0144570
670.941	0.0143330
671.019	0.0141573
671.097	0.0143012
671.175	0.0141273
671.253	0.0144016
671.331	0.0143218
671.410	0.0142960
671.488	0.0141617
671.566	0.0142619
671.644	0.0141830
671.722	0.0140797
671.800	0.0142223
671.878	0.0143680
671.956	0.0143266
672.035	0.0142895
672.113	0.0142648
672.191	0.0142690
672.269	0.0141783
672.347	0.0142728
672.425	0.0143430
672.503	0.0141907
672.581	0.0142292
672.660	0.0143217
672.738	0.0142230
672.816	0.0142419
672.894	0.0142803
672.972	0.0142740
673.050	0.0142915
673.128	0.0141881
673.206	0.0141979
673.285	0.0143183
673.363	0.0143160
673.441	0.0142419
673.519	0.0142842
673.597	0.0143454
673.675	0.0143044
673.753	0.0143328
673.831	0.0143639
673.910	0.0143172
673.988	0.0142255
674.066	0.0142291
674.144	0.0141423
674.222	0.0142679
674.300	0.0142406
674.378	0.0143340
674.456	0.0143037
674.535	0.0143856
674.613	0.0142663
674.691	0.0142429
674.769	0.0142826
674.847	0.0143056
674.925	0.0141753
675.003	0.0143899
675.081	0.0143239
675.160	0.0142821
675.238	0.0141028
675.316	0.0141512
675.394	0.0143266
675.472	0.0143052
675.550	0.0141348
675.628	0.0142769
675.706	0.0141669
675.785	0.0142178
675.863	0.0141606
675.941	0.0141803
676.019	0.0142448
676.097	0.0142107
676.175	0.0143004
676.253	0.0140375
676.331	0.0142234
676.410	0.0142342
676.488	0.0141068
676.566	0.0143356
676.644	0.0141766
676.722	0.0141267
676.800	0.0142255
676.878	0.0143419
676.956	0.0142070
677.035	0.0141125
677.113	0.0143217
677.191	0.0141696
677.269	0.0141579
677.347	0.0140351
677.425	0.0141899
677.503	0.0142493
677.581	0.0143292
677.660	0.0142440
677.738	0.0143347
677.816	0.0142760
677.894	0.0143118
677.972	0.0143453
678.050	0.0142452
678.128	0.0142159
678.206	0.0144123
678.285	0.0143105
678.363	0.0141698
678.441	0.0142286
678.519	0.0142609
678.597	0.0142773
678.675	0.0143563
678.753	0.0142676
678.831	0.0141699
678.910	0.0140861
678.988	0.0143700
679.066	0.0142516
679.144	0.0142550
679.222	0.0141553
679.300	0.0142413
679.378	0.0144579
679.456	0.0142902
679.535	0.0141821
679.613	0.0142876
679.691	0.0142429
679.769	0.0143372
679.847	0.0143188
679.925	0.0144168
680.003	0.0142428
680.081	0.0142133
680.160	0.0142837
680.238	0.0142722
680.316	0.0142857
680.394	0.0142546
680.472	0.0143808
680.550	0.0143972
680.628	0.0142317
680.706	0.0143230
680.785	0.0142341
680.863	0.0142687
680.941	0.0142572
681.019	0.0142857
681.097	0.0142319
681.175	0.0142154
681.253	0.0143456
681.331	0.0142015
681.410	0.0144100
681.488	0.0142685
681.566	0.0142471
681.644	0.0142613
681.722	0.0143255
681.800	0.0142737
681.878	0.0143005
681.956	0.0142971
682.035	0.0143531
682.113	0.0143163
682.191	0.0142773
682.269	0.0143568
682.347	0.0142943
682.425	0.0142550
682.503	0.0142976
682.581	0.0143720
682.660	0.0143219
682.738	0.0140874
682.816	0.0142324
682.894	0.0143202
682.972	0.0142446
683.050	0.0143494
683.128	0.0142902
683.206	0.0142937
683.285	0.0142156
683.363	0.0143362
683.441	0.0143889
683.519	0.0142624
683.597	0.0141718
683.675	0.0141193
683.753	0.0143348
683.831	0.0143726
683.910	0.0143112
683.988	0.0142909
684.066	0.0142294
684.144	0.0143040
684.222	0.0142963
684.300	0.0142989
684.378	0.0143481
684.456	0.0143363
684.535	0.0143909
684.613	0.0141829
684.691	0.0142658
684.769	0.0142863
684.847	0.0141904
684.925	0.0142867
685.003	0.0142240
685.081	0.0142346
685.160	0.0142578
685.238	0.0142278
685.316	0.0142359
685.394	0.0143266
685.472	0.0141757
685.550	0.0141282
685.628	0.0141304
685.706	0.0142345
685.785	0.0143110
685.863	0.0142387
685.941	0.0142699
686.019	0.0142856
686.097	0.0143274
686.175	0.0143731
686.253	0.0143408
686.331	0.0143550
686.410	0.0143010
686.488	0.0144598
686.566	0.0144728
686.644	0.0144048
686.722	0.0144138
686.800	0.0145234
686.878	0.0143929
686.956	0.0141660
687.035	0.0143014
687.113	0.0143602
687.191	0.0142221
687.269	0.0141468
687.347	0.0142944
687.425	0.0141563
687.503	0.0141331
687.581	0.0140964
687.660	0.0140648
687.738	0.0141259
687.816	0.0140599
687.894	0.0140817
687.972	0.0141026
688.050	0.0140388
688.128	0.0141109
688.206	0.0141765
688.285	0.0142676
688.363	0.0140974
688.441	0.0142200
688.519	0.0142141
688.597	0.0142706
688.675	0.0142008
688.753	0.0142818
688.831	0.0143592
688.910	0.0144540
688.988	0.0143635
689.066	0.0144053
689.144	0.0144819
689.222	0.0145644
689.300	0.0145605
689.378	0.0143416
689.456	0.0144517
689.535	0.0145227
689.613	0.0145584
689.691	0.0145943
689.769	0.0145098
689.847	0.0144273
689.925	0.0143816
690.003	0.0142273
690.081	0.0142700
690.160	0.0142214
690.238	0.0142819
690.316	0.0141215
690.394	0.0142586
690.472	0.0141201
690.550	0.0141370
690.628	0.0141192
690.706	0.0140494
690.785	0.0141008
690.863	0.0141254
690.941	0.0141122
691.019	0.0142551
691.097	0.0141406
691.175	0.0141287
691.253	0.0141723
691.331	0.0141771
691.410	0.0142616
691.488	0.0141767
691.566	0.0141133
691.644	0.0140829
691.722	0.0141953
691.800	0.0141961
691.878	0.0140969
691.956	0.0141389
692.035	0.0142789
692.113	0.0142038
692.191	0.0142485
692.269	0.0142332
692.347	0.0143239
692.425	0.0142911
692.503	0.0142953
692.581	0.0143848
692.660	0.0144937
692.738	0.0144749
692.816	0.0144091
692.894	0.0144908
692.972	0.0145067
693.050	0.0145210
693.128	0.0146859
693.206	0.0146416
693.285	0.0147346
693.363	0.0146474
693.441	0.0147253
693.519	0.0147178
693.597	0.0147282
693.675	0.0147457
693.753	0.0146375
693.831	0.0145784
693.910	0.0145181
693.988	0.0143508
694.066	0.0144406
694.144	0.0142674
694.222	0.0142764
694.300	0.0140675
694.378	0.0139361
694.456	0.0140806
694.535	0.0140376
694.613	0.0137629
694.691	0.0138237
694.769	0.0138332
694.847	0.0137665
694.925	0.0137485
695.003	0.0138051
695.081	0.0139098
695.160	0.0138905
695.238	0.0140072
695.316	0.0139316
695.394	0.0141560
695.472	0.0141296
695.550	0.0142121
695.628	0.0143195
695.706	0.0144060
695.785	0.0144109
695.863	0.0144027
695.941	0.0145941
696.019	0.0145414
696.097	0.0147177
696.175	0.0146237
696.253	0.0145484
696.331	0.0145812
696.410	0.0147131
696.488	0.0145584
696.566	0.0145933
696.644	0.0144965
696.722	0.0144692
696.800	0.0144410
696.878	0.0144705
696.956	0.0145818
697.035	0.0145021
697.113	0.0146613
697.191	0.0145535
697.269	0.0144691
697.347	0.0145902
697.425	0.0144007
697.503	0.0143509
697.581	0.0145289
697.660	0.0146555
697.738	0.0145691
697.816	0.0144878
697.894	0.0146450
697.972	0.0146381
698.050	0.0145654
698.128	0.0146783
698.206	0.0146013
698.285	0.0147285
698.363	0.0146775
698.441	0.0145777
698.519	0.0146175
698.597	0.0144569
698.675	0.0144192
698.753	0.0143834
698.831	0.0142897
698.910	0.0140968
698.988	0.0140784
699.066	0.0139996
699.144	0.0140897
699.222	0.0138568
699.300	0.0138837
699.378	0.0137702
699.456	0.0138320
699.535	0.0138457
699.613	0.0137327
699.691	0.0137922
699.769	0.0139390
699.847	0.0137650
699.925	0.0139252
700.003	0.0140558
700.081	0.0140250
700.160	0.0140144
700.238	0.0142705
700.316	0.0143491
700.394	0.0142811
700.472	0.0143716
700.550	0.0143536
700.628	0.0145551
700.706	0.0144561
700.785	0.0145385
700.863	0.0147422
700.941	0.0147542
701.019	0.0146210
701.097	0.0146999
701.175	0.0146408
701.253	0.0145702
701.331	0.0144685
701.410	0.0143919
701.488	0.0141586
701.566	0.0141106
701.644	0.0139370
701.722	0.0140388
701.800	0.0140981
701.878	0.0139503
701.956	0.0138876
702.035	0.0140997
702.113	0.0140726
702.191	0.0141627
702.269	0.0142535
702.347	0.0144662
702.425	0.0144432
702.503	0.0145029
702.581	0.0144945
702.660	0.0146985
702.738	0.0148064
702.816	0.0147479
702.894	0.0146805
702.972	0.0145895
703.050	0.0147377
703.128	0.0147628
703.206	0.0148401
703.285	0.0147755
703.363	0.0146329
703.441	0.0145818
703.519	0.0145846
703.597	0.0143507
703.675	0.0142230
703.753	0.0143004
703.831	0.0143134
703.910	0.0143037
703.988	0.0143012
704.066	0.0142839
704.144	0.0141704
704.222	0.0141312
704.300	0.0142004
704.378	0.0141986
704.456	0.0142000
704.535	0.0140260
704.613	0.0140698
704.691	0.0139981
704.769	0.0139223
704.847	0.0138242
704.925	0.0139821
705.003	0.0136528
705.081	0.0136192
705.160	0.0137421
705.238	0.0136514
705.316	0.0135793
705.394	0.0136919
705.472	0.0136319
705.550	0.0137390
705.628	0.0138301
705.706	0.0137100
705.785	0.0139070
705.863	0.0137440
705.941	0.0138934
706.019	0.0139752
706.097	0.0141003
706.175	0.0141952
706.253	0.0145397
706.331	0.0144009
706.410	0.0144386
706.488	0.0146575
706.566	0.0145620
706.644	0.0145449
706.722	0.0146870
706.800	0.0145903
706.878	0.0144780
706.956	0.0143488
707.035	0.0144202
707.113	0.0142667
707.191	0.0143320
707.269	0.0139653
707.347	0.0139941
707.425	0.0139337
707.503	0.0139453
707.581	0.0139636
707.660	0.0138288
707.738	0.0140227
707.816	0.0140632
707.894	0.0140591
707.972	0.0141840
708.050	0.0141821
708.128	0.0141756
708.206	0.0144860
708.285	0.0146014
708.363	0.0146185
708.441	0.0145188
708.519	0.0147015
708.597	0.0147142
708.675	0.0148034
708.753	0.0148634
708.831	0.0146700
708.910	0.0145367
708.988	0.0146609
709.066	0.0146215
709.144	0.0142348
709.222	0.0142669
709.300	0.0141074
709.378	0.0142796
709.456	0.0143221
709.535	0.0141252
709.613	0.0140937
709.691	0.0142651
709.769	0.0142719
709.847	0.0141270
709.925	0.0144072
710.003	0.0143320
710.081	0.0142348
710.160	0.0142922
710.238	0.0143668
710.316	0.0144355
710.394	0.0142587
710.472	0.0142576
710.550	0.0140108
710.628	0.0138012
710.706	0.0139041
710.785	0.0139327
710.863	0.0136177
710.941	0.0135515
711.019	0.0136492
711.097	0.0135389
711.175	0.0134275
711.253	0.0136816
711.331	0.0135883
711.410	0.0136507
711.488	0.0137333
711.566	0.0139218
711.644	0.0138469
711.722	0.0140409
711.800	0.0141356
711.878	0.0143102
711.956	0.0144758
712.035	0.0145560
712.113	0.0146265
712.191	0.0145821
712.269	0.0145832
712.347	0.0146574
712.425	0.0147169
712.503	0.0145727
712.581	0.0145995
712.660	0.0145705
712.738	0.0144971
712.816	0.0146560
712.894	0.0145255
712.972	0.0143967
713.050	0.0143158
713.128	0.0143417
713.206	0.0141011
713.285	0.0140964
713.363	0.0142718
713.441	0.0140929
713.519	0.0142168
713.597	0.0142899
713.675	0.0144177
713.753	0.0142960
713.831	0.0144157
713.910	0.0145852
713.988	0.0146542
714.066	0.0145982
714.144	0.0148226
714.222	0.0149248
714.300	0.0148733
714.378	0.0150185
714.456	0.0149340
714.535	0.0149743
714.613	0.0149821
714.691	0.0149254
714.769	0.0148051
714.847	0.0147189
714.925	0.0146832
715.003	0.0145687
715.081	0.0144959
715.160	0.0143442
715.238	0.0143789
715.316	0.0141209
715.394	0.0141505
715.472	0.0141336
715.550	0.0142610
715.628	0.0142422
715.706	0.0143642
715.785	0.0143786
715.863	0.0143668
715.941	0.0143155
716.019	0.0144822
716.097	0.0144880
716.175	0.0143896
716.253	0.0144833
716.331	0.0144823
716.410	0.0142981
716.488	0.0143130
716.566	0.0143150
716.644	0.0140392
716.722	0.0138899
716.800	0.0137804
716.878	0.0137189
716.956	0.0136184
717.035	0.0135139
717.113	0.0134612
717.191	0.0134333
717.269	0.0135224
717.347	0.0135825
717.425	0.0136752
717.503	0.0137540
717.581	0.0138580
717.660	0.0140826
717.738	0.0141883
717.816	0.0144240
717.894	0.0144191
717.972	0.0145290
718.050	0.0144824
718.128	0.0145942
718.206	0.0148003
718.285	0.0146077
718.363	0.0145829
718.441	0.0145507
718.519	0.0146551
718.597	0.0144050
718.675	0.0143968
718.753	0.0144205
718.831	0.0143776
718.910	0.0142657
718.988	0.0144778
719.066	0.0142957
719.144	0.0142371
719.222	0.0142239
719.300	0.0144246
719.378	0.0144199
719.456	0.0143379
719.535	0.0144380
719.613	0.0145684
719.691	0.0145235
719.769	0.0147642
719.847	0.0147824
719.925	0.0147100
720.003	0.0147076
720.081	0.0147357
720.160	0.0149175
720.238	0.0147409
720.316	0.0148728
720.394	0.0148445
720.472	0.0148452
720.550	0.0148369
720.628	0.0148379
720.706	0.0147563
720.785	0.0148508
720.863	0.0147552
720.941	0.0145960
721.019	0.0145207
721.097	0.0145949
721.175	0.0146323
721.253	0.0144971
721.331	0.0143286
721.410	0.0142143
721.488	0.0141494
721.566	0.0141975
721.644	0.0141599
721.722	0.0142027
721.800	0.0140919
721.878	0.0140006
721.956	0.0141132
722.035	0.0140213
722.113	0.0141342
722.191	0.0140061
722.269	0.0139776
722.347	0.0141184
722.425	0.0140552
722.503	0.0138834
722.581	0.0139738
722.660	0.0139336
722.738	0.0139091
722.816	0.0136853
722.894	0.0135965
722.972	0.0136647
723.050	0.0135201
723.128	0.0134910
723.206	0.0135255
723.285	0.0135387
723.363	0.0134026
723.441	0.0134894
723.519	0.0135875
723.597	0.0138274
723.675	0.0138834
723.753	0.0138900
723.831	0.0140518
723.910	0.0141809
723.988	0.0141456
724.066	0.0143419
724.144	0.0142612
724.222	0.0142063
724.300	0.0143374
724.378	0.0143734
724.456	0.0144685
724.535	0.0143057
724.613	0.0143848
724.691	0.0142326
724.769	0.0141726
724.847	0.0141735
724.925	0.0141434
725.003	0.0141744
725.081	0.0141500
725.160	0.0142529
725.238	0.0142919
725.316	0.0142729
725.394	0.0143584
725.472	0.0144389
725.550	0.0145601
725.628	0.0146761
725.706	0.0147701
725.785	0.0146880
725.863	0.0148158
725.941	0.0148315
726.019	0.0148305
726.097	0.0149467
726.175	0.0148450
726.253	0.0146713
726.331	0.0146701
726.410	0.0147684
726.488	0.0147712
726.566	0.0147444
726.644	0.0146169
726.722	0.0145577
726.800	0.0145135
726.878	0.0145123
726.956	0.0145576
727.035	0.0143798
727.113	0.0144009
727.191	0.0143897
727.269	0.0145007
727.347	0.0144072
727.425	0.0144004
727.503	0.0143504
727.581	0.0142463
727.660	0.0141618
727.738	0.0142424
727.816	0.0139944
727.894	0.0141395
727.972	0.0140372
728.050	0.0138126
728.128	0.0138354
728.206	0.0139266
728.285	0.0135615
728.363	0.0134918
728.441	0.0137418
728.519	0.0135789
728.597	0.0135247
728.675	0.0134802
728.753	0.0134290
728.831	0.0133877
728.910	0.0134377
728.988	0.0133810
729.066	0.0134280
729.144	0.0135830
729.222	0.0136183
729.300	0.0135915
729.378	0.0137033
729.456	0.0136736
729.535	0.0137041
729.613	0.0138413
729.691	0.0140026
729.769	0.0140721
729.847	0.0139838
729.925	0.0142056
730.003	0.0140392
730.081	0.0139788
730.160	0.0141002
730.238	0.0141392
730.316	0.0141972
730.394	0.0142399
730.472	0.0140709
730.550	0.0141851
730.628	0.0139638
730.706	0.0142455
730.785	0.0141875
730.863	0.0141084
730.941	0.0142301
731.019	0.0141550
731.097	0.0143916
731.175	0.0143642
731.253	0.0144573
731.331	0.0144377
731.410	0.0144331
731.488	0.0146320
731.566	0.0147338
731.644	0.0146634
731.722	0.0147893
731.800	0.0148997
731.878	0.0148653
731.956	0.0149907
732.035	0.0149835
732.113	0.0151103
732.191	0.0150089
732.269	0.0149346
732.347	0.0150068
732.425	0.0149729
732.503	0.0148192
732.581	0.0148466
732.660	0.0147762
732.738	0.0146658
732.816	0.0146751
732.894	0.0146009
732.972	0.0145393
733.050	0.0145275
733.128	0.0143788
733.206	0.0144920
733.285	0.0145258
733.363	0.0145772
733.441	0.0143663
733.519	0.0144385
733.597	0.0144572
733.675	0.0144361
733.753	0.0143813
733.831	0.0144765
733.910	0.0143762
733.988	0.0143494
734.066	0.0142702
734.144	0.0141122
734.222	0.0140940
734.300	0.0140543
734.378	0.0139436
734.456	0.0137785
734.535	0.0136473
734.613	0.0134910
734.691	0.0135023
734.769	0.0134886
734.847	0.0133932
734.925	0.0133002
735.003	0.0134263
735.081	0.0134338
735.160	0.0136480
735.238	0.0136452
735.316	0.0137305
735.394	0.0136762
735.472	0.0137708
735.550	0.0138103
735.628	0.0139572
735.706	0.0139399
735.785	0.0139257
735.863	0.0141204
735.941	0.0141043
736.019	0.0142917
736.097	0.0141592
736.175	0.0141159
736.253	0.0142493
736.331	0.0143578
736.410	0.0142870
736.488	0.0142311
736.566	0.0143172
736.644	0.0142541
736.722	0.0141875
736.800	0.0142452
736.878	0.0142173
736.956	0.0142375
737.035	0.0142970
737.113	0.0142560
737.191	0.0144337
737.269	0.0145349
737.347	0.0145933
737.425	0.0145933
737.503	0.0146947
737.581	0.0146450
737.660	0.0146703
737.738	0.0147076
737.816	0.0149393
737.894	0.0147928
737.972	0.0148675
738.050	0.0149831
738.128	0.0150633
738.206	0.0149670
738.285	0.0150365
738.363	0.0147635
738.441	0.0147203
738.519	0.0148928
738.597	0.0147340
738.675	0.0145728
738.753	0.0145032
738.831	0.0143699
738.910	0.0144857
738.988	0.0144216
739.066	0.0143876
739.144	0.0144831
739.222	0.0144778
739.300	0.0144975
739.378	0.0145889
739.456	0.0145968
739.535	0.0145274
739.613	0.0145228
739.691	0.0144669
739.769	0.0145656
739.847	0.0146628
739.925	0.0145798
740.003	0.0143906
740.081	0.0144331
740.160	0.0142738
740.238	0.0141486
740.316	0.0140405
740.394	0.0139210
740.472	0.0139573
740.550	0.0135582
740.628	0.0136730
740.706	0.0136480
740.785	0.0136006
740.863	0.0136043
740.941	0.0135017
741.019	0.0135088
741.097	0.0135835
741.175	0.0136250
741.253	0.0135317
741.331	0.0134854
741.410	0.0135603
741.488	0.0136905
741.566	0.0137074
741.644	0.0137256
741.722	0.0137305
741.800	0.0137686
741.878	0.0138697
741.956	0.0139577
742.035	0.0139510
742.113	0.0138749
742.191	0.0140794
742.269	0.0141934
742.347	0.0143853
742.425	0.0141608
742.503	0.0143292
742.581	0.0142316
742.660	0.0142158
742.738	0.0143633
742.816	0.0142832
742.894	0.0144817
742.972	0.0144646
743.050	0.0143781
743.128	0.0144786
743.206	0.0144477
743.285	0.0144781
743.363	0.0146253
743.441	0.0144562
743.519	0.0146585
743.597	0.0147284
743.675	0.0148677
743.753	0.0148154
743.831	0.0149510
743.910	0.0149472
743.988	0.0149943
744.066	0.0149731
744.144	0.0150426
744.222	0.0150348
744.300	0.0149509
744.378	0.0149880
744.456	0.0149683
744.535	0.0149266
744.613	0.0148096
744.691	0.0147894
744.769	0.0146868
744.847	0.0145138
744.925	0.0144553
745.003	0.0144714
745.081	0.0143375
745.160	0.0143589
745.238	0.0143547
745.316	0.0143174
745.394	0.0142955
745.472	0.0143879
745.550	0.0143464
745.628	0.0143835
745.706	0.0143365
745.785	0.0145364
745.863	0.0143767
745.941	0.0143384
746.019	0.0144383
746.097	0.0140938
746.175	0.0140290
746.253	0.0140577
746.331	0.0139844
746.410	0.0137453
746.488	0.0137193
746.566	0.0138250
746.644	0.0137516
746.722	0.0137202
746.800	0.0136541
746.878	0.0136876
746.956	0.0135147
747.035	0.0135666
747.113	0.0136150
747.191	0.0136066
747.269	0.0134946
747.347	0.0137121
747.425	0.0137003
747.503	0.0135610
747.581	0.0135290
747.660	0.0134843
747.738	0.0134021
747.816	0.0134964
747.894	0.0135696
747.972	0.0135523
748.050	0.0136055
748.128	0.0135904
748.206	0.0135145
748.285	0.0138767
748.363	0.0138574
748.441	0.0138567
748.519	0.0138289
748.597	0.0140514
748.675	0.0142477
748.753	0.0143327
748.831	0.0143097
748.910	0.0142638
748.988	0.0142771
749.066	0.0144083
749.144	0.0144485
749.222	0.0144762
749.300	0.0145081
749.378	0.0145634
749.456	0.0145469
749.535	0.0147308
749.613	0.0145882
749.691	0.0146772
749.769	0.0146034
749.847	0.0147661
749.925	0.0149062
750.003	0.0149170
750.081	0.0149573
750.160	0.0149737
750.238	0.0150249
750.316	0.0149655
750.394	0.0151357
750.472	0.0151337
750.550	0.0151521
750.628	0.0150475
750.706	0.0148224
750.785	0.0148531
750.863	0.0147432
750.941	0.0144660
751.019	0.0145128
751.097	0.0144348
751.175	0.0143108
751.253	0.0142644
751.331	0.0143025
751.410	0.0142869
751.488	0.0142318
751.566	0.0143483
751.644	0.0142911
751.722	0.0141939
751.800	0.0143050
751.878	0.0143214
751.956	0.0142264
752.035	0.0141825
752.113	0.0141357
752.191	0.0141696
752.269	0.0140372
752.347	0.0141032
752.425	0.0138996
752.503	0.0139592
752.581	0.0138381
752.660	0.0139254
752.738	0.0137420
752.816	0.0137881
752.894	0.0136900
752.972	0.0136637
753.050	0.0137481
753.128	0.0136205
753.206	0.0135949
753.285	0.0135561
753.363	0.0134919
753.441	0.0135667
753.519	0.0136093
753.597	0.0136048
753.675	0.0135435
753.753	0.0135522
753.831	0.0136516
753.910	0.0136000
753.988	0.0136117
754.066	0.0135604
754.144	0.0137897
754.222	0.0138075
754.300	0.0136742
754.378	0.0139601
754.456	0.0140000
754.535	0.0140257
754.613	0.0140795
754.691	0.0141361
754.769	0.0142942
754.847	0.0142336
754.925	0.0143586
755.003	0.0144072
755.081	0.0146123
755.160	0.0146349
755.238	0.0144216
755.316	0.0144868
755.394	0.0145534
755.472	0.0144890
755.550	0.0145827
755.628	0.0147545
755.706	0.0145720
755.785	0.0146867
755.863	0.0147167
755.941	0.0149004
756.019	0.0149207
756.097	0.0149288
756.175	0.0149374
756.253	0.0151224
756.331	0.0151225
756.410	0.0151922
756.488	0.0152750
756.566	0.0152704
756.644	0.0151662
756.722	0.0152381
756.800	0.0151637
756.878	0.0151598
756.956	0.0151783
757.035	0.0151742
757.113	0.0151276
757.191	0.0148477
757.269	0.0147083
757.347	0.0147417
757.425	0.0146140
757.503	0.0145347
757.581	0.0143935
757.660	0.0143165
757.738	0.0143620
757.816	0.0143719
757.894	0.0142239
757.972	0.0142038
758.050	0.0141184
758.128	0.0140656
758.206	0.0141954
758.285	0.0139008
758.363	0.0137971
758.441	0.0139307
758.519	0.0137887
758.597	0.0137561
758.675	0.0137135
758.753	0.0137044
758.831	0.0136552
758.910	0.0136589
758.988	0.0134083
759.066	0.0135393
759.144	0.0136855
759.222	0.0134091
759.300	0.0133251
759.378	0.0134570
759.456	0.0132510
759.535	0.0131572
759.613	0.0131577
759.691	0.0131982
759.769	0.0131161
759.847	0.0132642
759.925	0.0133084
760.003	0.0132154
760.081	0.0132165
760.160	0.0133366
760.238	0.0134711
760.316	0.0134530
760.394	0.0133735
760.472	0.0134621
760.550	0.0136179
760.628	0.0135887
760.706	0.0137605
760.785	0.0138658
760.863	0.0139333
760.941	0.0140352
761.019	0.0142384
761.097	0.0142277
761.175	0.0142819
761.253	0.0144482
761.331	0.0144759
761.410	0.0144610
761.488	0.0145945
761.566	0.0144750
761.644	0.0146800
761.722	0.0145774
761.800	0.0145471
761.878	0.0147281
761.956	0.0147191
762.035	0.0148293
762.113	0.0147709
762.191	0.0147598
762.269	0.0148540
762.347	0.0148606
762.425	0.0150394
762.503	0.0150491
762.581	0.0150089
762.660	0.0150709
762.738	0.0152230
762.816	0.0153359
762.894	0.0153234
762.972	0.0152197
763.050	0.0152683
763.128	0.0153938
763.206	0.0151064
763.285	0.0152208
763.363	0.0150919
763.441	0.0149228
763.519	0.0150990
763.597	0.0149187
763.675	0.0147927
763.753	0.0146594
763.831	0.0147678
763.910	0.0145724
763.988	0.0143198
764.066	0.0141234
764.144	0.0142732
764.222	0.0142671
764.300	0.0141724
764.378	0.0141030
764.456	0.0141135
764.535	0.0139674
764.613	0.0139129
764.691	0.0138819
764.769	0.0137907
764.847	0.0138751
764.925	0.0138990
765.003	0.0136454
765.081	0.0136723
765.160	0.0138905
765.238	0.0137241
765.316	0.0135715
765.394	0.0135854
765.472	0.0135191
765.550	0.0135691
765.628	0.0135258
765.706	0.0134012
765.785	0.0134331
765.863	0.0132506
765.941	0.0132481
766.019	0.0132136
766.097	0.0130774
766.175	0.0132317
766.253	0.0133479
766.331	0.0132304
766.410	0.0131939
766.488	0.0133257
766.566	0.0134296
766.644	0.0134705
766.722	0.0134534
766.800	0.0135300
766.878	0.0137882
766.956	0.0138686
767.035	0.0136849
767.113	0.0138322
767.191	0.0139606
767.269	0.0139274
767.347	0.0141003
767.425	0.0141754
767.503	0.0143163
767.581	0.0144048
767.660	0.0143047
767.738	0.0143276
767.816	0.0145671
767.894	0.0145826
767.972	0.0144643
768.050	0.0147550
768.128	0.0146561
768.206	0.0146380
768.285	0.0147140
768.363	0.0146826
768.441	0.0149447
768.519	0.0149220
768.597	0.0148986
768.675	0.0150951
768.753	0.0150902
768.831	0.0152495
768.910	0.0151364
768.988	0.0151623
769.066	0.0153254
769.144	0.0152435
769.222	0.0154774
769.300	0.0154166
769.378	0.0154260
769.456	0.0153961
769.535	0.0152357
769.613	0.0152730
769.691	0.0153277
769.769	0.0153308
769.847	0.0154406
769.925	0.0150419
770.003	0.0150442
770.081	0.0150187
770.160	0.0149403
770.238	0.0148169
770.316	0.0145878
770.394	0.0144941
770.472	0.0145065
770.550	0.0144907
770.628	0.0143919
770.706	0.0141553
770.785	0.0140235
770.863	0.0140845
770.941	0.0140025
771.019	0.0138626
771.097	0.0139022
771.175	0.0138535
771.253	0.0136925
771.331	0.0136677
771.410	0.0136971
771.488	0.0136703
771.566	0.0136192
771.644	0.0137309
771.722	0.0137239
771.800	0.0135340
771.878	0.0135316
771.956	0.0134850
772.035	0.0135035
772.113	0.0134374
772.191	0.0132030
772.269	0.0132786
772.347	0.0132727
772.425	0.0132542
772.503	0.0131218
772.581	0.0132552
772.660	0.0133002
772.738	0.0132999
772.816	0.0132270
772.894	0.0133743
772.972	0.0135240
773.050	0.0133533
773.128	0.0133904
773.206	0.0134968
773.285	0.0136211
773.363	0.0136867
773.441	0.0135806
773.519	0.0137136
773.597	0.0139175
773.675	0.0139021
773.753	0.0138524
773.831	0.0140408
773.910	0.0140904
773.988	0.0141980
774.066	0.0140939
774.144	0.0141280
774.222	0.0143041
774.300	0.0143065
774.378	0.0145179
774.456	0.0146060
774.535	0.0145319
774.613	0.0146458
774.691	0.0146564
774.769	0.0148607
774.847	0.0149121
774.925	0.0149345
775.003	0.0150476
775.081	0.0152147
775.160	0.0151848
775.238	0.0151817
775.316	0.0154995
775.394	0.0155324
775.472	0.0154523
775.550	0.0156297
775.628	0.0155128
775.706	0.0155847
775.785	0.0156671
775.863	0.0155430
775.941	0.0155049
776.019	0.0156145
776.097	0.0156752
776.175	0.0154205
776.253	0.0154086
776.331	0.0153338
776.410	0.0152668
776.488	0.0151797
776.566	0.0151530
776.644	0.0149705
776.722	0.0148711
776.800	0.0147906
776.878	0.0145038
776.956	0.0144903
777.035	0.0142673
777.113	0.0140769
777.191	0.0141256
777.269	0.0139810
777.347	0.0138904
777.425	0.0139659
777.503	0.0139053
777.581	0.0138145
777.660	0.0137158
777.738	0.0135882
777.816	0.0135542
777.894	0.0137486
777.972	0.0137054
778.050	0.0135925
778.128	0.0135067
778.206	0.0135384
778.285	0.0135088
778.363	0.0135221
778.441	0.0134766
778.519	0.0133657
778.597	0.0133785
778.675	0.0133924
778.753	0.0132356
778.831	0.0131621
778.910	0.0133475
778.988	0.0133636
779.066	0.0131831
779.144	0.0131823
779.222	0.0133371
779.300	0.0132899
779.378	0.0133115
779.456	0.0134193
779.535	0.0134822
779.613	0.0135605
779.691	0.0136436
779.769	0.0137646
779.847	0.0137163
779.925	0.0136986
780.003	0.0138961
780.081	0.0139656
780.160	0.0141115
780.238	0.0140865
780.316	0.0140976
780.394	0.0142165
780.472	0.0141671
780.550	0.0142880
780.628	0.0142547
780.706	0.0143514
780.785	0.0143202
780.863	0.0143545
780.941	0.0143237
781.019	0.0143665
781.097	0.0145574
781.175	0.0145267
781.253	0.0145836
781.331	0.0146522
781.410	0.0148033
781.488	0.0148800
781.566	0.0148220
781.644	0.0149995
781.722	0.0150849
781.800	0.0151029
781.878	0.0150962
781.956	0.0152659
782.035	0.0152932
782.113	0.0153034
782.191	0.0152545
782.269	0.0153777
782.347	0.0153652
782.425	0.0154049
782.503	0.0151460
782.581	0.0151825
782.660	0.0151814
782.738	0.0150586
782.816	0.0150202
782.894	0.0150573
782.972	0.0150182
783.050	0.0149922
783.128	0.0146882
783.206	0.0146815
783.285	0.0146346
783.363	0.0145724
783.441	0.0143398
783.519	0.0142447
783.597	0.0140081
783.675	0.0140557
783.753	0.0141006
783.831	0.0139655
783.910	0.0137608
783.988	0.0137514
784.066	0.0136973
784.144	0.0137134
784.222	0.0136616
784.300	0.0136451
784.378	0.0136356
784.456	0.0135092
784.535	0.0135503
784.613	0.0135233
784.691	0.0135137
784.769	0.0133894
784.847	0.0133921
784.925	0.0134045
785.003	0.0135659
785.081	0.0132845
785.160	0.0133590
785.238	0.0134119
785.316	0.0132777
785.394	0.0133972
785.472	0.0132310
785.550	0.0131915
785.628	0.0133823
785.706	0.0132845
785.785	0.0133302
785.863	0.0134441
785.941	0.0136091
786.019	0.0134639
786.097	0.0135547
786.175	0.0135139
786.253	0.0136710
786.331	0.0137513
786.410	0.0137759
786.488	0.0138670
786.566	0.0138541
786.644	0.0139702
786.722	0.0140182
786.800	0.0141225
786.878	0.0141185
786.956	0.0141209
787.035	0.0141025
787.113	0.0142246
787.191	0.0141339
787.269	0.0141691
787.347	0.0142921
787.425	0.0142007
787.503	0.0142698
787.581	0.0144000
787.660	0.0144515
787.738	0.0143861
787.816	0.0145035
787.894	0.0145409
787.972	0.0146522
788.050	0.0147254
788.128	0.0146875
788.206	0.0147724
788.285	0.0148029
788.363	0.0148282
788.441	0.0149377
788.519	0.0149065
788.597	0.0150668
788.675	0.0151377
788.753	0.0151880
788.831	0.0151153
788.910	0.0153049
788.988	0.0152784
789.066	0.0153507
789.144	0.0154181
789.222	0.0153312
789.300	0.0151968
789.378	0.0152078
789.456	0.0152503
789.535	0.0152464
789.613	0.0149632
789.691	0.0150639
789.769	0.0150433
789.847	0.0149731
789.925	0.0149380
790.003	0.0148177
790.081	0.0146536
790.160	0.0144548
790.238	0.0144908
790.316	0.0143776
790.394	0.0144229
790.472	0.0143475
790.550	0.0141326
790.628	0.0142149
790.706	0.0141197
790.785	0.0141132
790.863	0.0139870
790.941	0.0140181
791.019	0.0139726
791.097	0.0141508
791.175	0.0138573
791.253	0.0138261
791.331	0.0139303
791.410	0.0138077
791.488	0.0139702
791.566	0.0137453
791.644	0.0137842
791.722	0.0138076
791.800	0.0137218
791.878	0.0135331
791.956	0.0134665
792.035	0.0134085
792.113	0.0133340
792.191	0.0133278
792.269	0.0133604
792.347	0.0133620
792.425	0.0134076
792.503	0.0134631
792.581	0.0134464
792.660	0.0135560
792.738	0.0136678
792.816	0.0135956
792.894	0.0137249
792.972	0.0137224
793.050	0.0139896
793.128	0.0139968
793.206	0.0141325
793.285	0.0140873
793.363	0.0142871
793.441	0.0142820
793.519	0.0142487
793.597	0.0141738
793.675	0.0142786
793.753	0.0142754
793.831	0.0143595
793.910	0.0143494
793.988	0.0143755
794.066	0.0144115
794.144	0.0145419
794.222	0.0145377
794.300	0.0145033
794.378	0.0147176
794.456	0.0147195
794.535	0.0146384
794.613	0.0147155
794.691	0.0147398
794.769	0.0148455
794.847	0.0148325
794.925	0.0149442
795.003	0.0149703
795.081	0.0149220
795.160	0.0148956
795.238	0.0149811
795.316	0.0150615
795.394	0.0149998
795.472	0.0150608
795.550	0.0150439
795.628	0.0150257
795.706	0.0152480
795.785	0.0151817
795.863	0.0150970
795.941	0.0150386
796.019	0.0151379
796.097	0.0151479
796.175	0.0151398
796.253	0.0152412
796.331	0.0151481
796.410	0.0150628
796.488	0.0150414
796.566	0.0148858
796.644	0.0150017
796.722	0.0147938
796.800	0.0147509
796.878	0.0147721
796.956	0.0147126
797.035	0.0145456
797.113	0.0143340
797.191	0.0143026
797.269	0.0143794
797.347	0.0142266
797.425	0.0141269
797.503	0.0140165
797.581	0.0139921
797.660	0.0140176
797.738	0.0140314
797.816	0.0138805
797.894	0.0138765
797.972	0.0138153
798.050	0.0138246
798.128	0.0138180
798.206	0.0138742
798.285	0.0136629
798.363	0.0137249
798.441	0.0137643
798.519	0.0136809
798.597	0.0135090
798.675	0.0135793
798.753	0.0136084
798.831	0.0134139
798.910	0.0133310
798.988	0.0134118
799.066	0.0135041
799.144	0.0135638
799.222	0.0136513
799.300	0.0137049
799.378	0.0136819
799.456	0.0137327
799.535	0.0138283
799.613	0.0139258
799.691	0.0140205
799.769	0.0141788
799.847	0.0142088
799.925	0.0141960
800.003	0.0142570
800.081	0.0142601
800.160	0.0143050
800.238	0.0144272
800.316	0.0144746
800.394	0.0143884
800.472	0.0143319
800.550	0.0143073
800.628	0.0143273
800.706	0.0144703
800.785	0.0143164
800.863	0.0144409
800.941	0.0144565
801.019	0.0144199
801.097	0.0144547
801.175	0.0144270
801.253	0.0143616
801.331	0.0142939
801.410	0.0145665
801.488	0.0145061
801.566	0.0145748
801.644	0.0145477
801.722	0.0146512
801.800	0.0145605
801.878	0.0145502
801.956	0.0146073
802.035	0.0146650
802.113	0.0148515
802.191	0.0148353
802.269	0.0147649
802.347	0.0148718
802.425	0.0148025
802.503	0.0150265
802.581	0.0149777
802.660	0.0148816
802.738	0.0150003
802.816	0.0149943
802.894	0.0148264
802.972	0.0149171
803.050	0.0148007
803.128	0.0148518
803.206	0.0147882
803.285	0.0147584
803.363	0.0148631
803.441	0.0147484
803.519	0.0145166
803.597	0.0144726
803.675	0.0145498
803.753	0.0146269
803.831	0.0144534
803.910	0.0143266
803.988	0.0142861
804.066	0.0142248
804.144	0.0141360
804.222	0.0141706
804.300	0.0140482
804.378	0.0139819
804.456	0.0139998
804.535	0.0139562
804.613	0.0137006
804.691	0.0140696
804.769	0.0139512
804.847	0.0137738
804.925	0.0137326
805.003	0.0137003
805.081	0.0136326
805.160	0.0137501
805.238	0.0137547
805.316	0.0135430
805.394	0.0134713
805.472	0.0135817
805.550	0.0136379
805.628	0.0135619
805.706	0.0135221
805.785	0.0136181
805.863	0.0135571
805.941	0.0135959
806.019	0.0137701
806.097	0.0138499
806.175	0.0138099
806.253	0.0137918
806.331	0.0138774
806.410	0.0139647
806.488	0.0141398
806.566	0.0139930
806.644	0.0139920
806.722	0.0142012
806.800	0.0141054
806.878	0.0140131
806.956	0.0142582
807.035	0.0140845
807.113	0.0140677
807.191	0.0141190
807.269	0.0141442
807.347	0.0140897
807.425	0.0140783
807.503	0.0140311
807.581	0.0142015
807.660	0.0143090
807.738	0.0140512
807.816	0.0142201
807.894	0.0141889
807.972	0.0141890
808.050	0.0143066
808.128	0.0143655
808.206	0.0142959
808.285	0.0143092
808.363	0.0144418
808.441	0.0145605
808.519	0.0145770
808.597	0.0145927
808.675	0.0146292
808.753	0.0146222
808.831	0.0146181
808.910	0.0145313
808.988	0.0146640
809.066	0.0146131
809.144	0.0145784
809.222	0.0147594
809.300	0.0147240
809.378	0.0148640
809.456	0.0147236
809.535	0.0148801
809.613	0.0148225
809.691	0.0148701
809.769	0.0148898
809.847	0.0149432
809.925	0.0148701
810.003	0.0148692
810.081	0.0149491
810.160	0.0148198
810.238	0.0147253
810.316	0.0146784
810.394	0.0146090
810.472	0.0147137
810.550	0.0146309
810.628	0.0144788
810.706	0.0144614
810.785	0.0144778
810.863	0.0143253
810.941	0.0142046
811.019	0.0140977
811.097	0.0139993
811.175	0.0140691
811.253	0.0140046
811.331	0.0140411
811.410	0.0140262
811.488	0.0140047
811.566	0.0138976
811.644	0.0139513
811.722	0.0140288
811.800	0.0141022
811.878	0.0140656
811.956	0.0139368
812.035	0.0139452
812.113	0.0141635
812.191	0.0140432
812.269	0.0139631
812.347	0.0139495
812.425	0.0139070
812.503	0.0139656
812.581	0.0137589
812.660	0.0138103
812.738	0.0138576
812.816	0.0138020
812.894	0.0137836
812.972	0.0138241
813.050	0.0139468
813.128	0.0140166
813.206	0.0140905
813.285	0.0140090
813.363	0.0140784
813.441	0.0141186
813.519	0.0140993
813.597	0.0139751
813.675	0.0141384
813.753	0.0140440
813.831	0.0139559
813.910	0.0139911
813.988	0.0141650
814.066	0.0140342
814.144	0.0138728
814.222	0.0138933
814.300	0.0139106
814.378	0.0140543
814.456	0.0141695
814.535	0.0141357
814.613	0.0140786
814.691	0.0140295
814.769	0.0141269
814.847	0.0141898
814.925	0.0141652
815.003	0.0141402
815.081	0.0143058
815.160	0.0143061
815.238	0.0145181
815.316	0.0144904
815.394	0.0146250
815.472	0.0146073
815.550	0.0146950
815.628	0.0148476
815.706	0.0148883
815.785	0.0150522
815.863	0.0149805
815.941	0.0149323
816.019	0.0151052
816.097	0.0150967
816.175	0.0150625
816.253	0.0151632
816.331	0.0151162
816.410	0.0150021
816.488	0.0150299
816.566	0.0151038
816.644	0.0150117
816.722	0.0149757
816.800	0.0151319
816.878	0.0149819
816.956	0.0149172
817.035	0.0147372
817.113	0.0146865
817.191	0.0147368
817.269	0.0146091
817.347	0.0144875
817.425	0.0145233
817.503	0.0144955
817.581	0.0142416
817.660	0.0142534
817.738	0.0141832
817.816	0.0141473
817.894	0.0139910
817.972	0.0140752
818.050	0.0140774
818.128	0.0140656
818.206	0.0140491
818.285	0.0139953
818.363	0.0140265
818.441	0.0139417
818.519	0.0141064
818.597	0.0140348
818.675	0.0139658
818.753	0.0139762
818.831	0.0138687
818.910	0.0138788
818.988	0.0139513
819.066	0.0137659
819.144	0.0136599
819.222	0.0139277
819.300	0.0136609
819.378	0.0137543
819.456	0.0137402
819.535	0.0135886
819.613	0.0136514
819.691	0.0138393
819.769	0.0137563
819.847	0.0137733
819.925	0.0139453
820.003	0.0139975
820.081	0.0139859
820.160	0.0140456
820.238	0.0140102
820.316	0.0142160
820.394	0.0141689
820.472	0.0142822
820.550	0.0141327
820.628	0.0142397
820.706	0.0142361
820.785	0.0142911
820.863	0.0142677
820.941	0.0140715
821.019	0.0141906
821.097	0.0143112
821.175	0.0143343
821.253	0.0142343
821.331	0.0143118
821.410	0.0143691
821.488	0.0144028
821.566	0.0144521
821.644	0.0144153
821.722	0.0146559
821.800	0.0145050
821.878	0.0147025
821.956	0.0146117
822.035	0.0147688
822.113	0.0147173
822.191	0.0146423
822.269	0.0146876
822.347	0.0146799
822.425	0.0146720
822.503	0.0147281
822.581	0.0148705
822.660	0.0149313
822.738	0.0148211
822.816	0.0149131
822.894	0.0147542
822.972	0.0147703
823.050	0.0149803
823.128	0.0148681
823.206	0.0148281
823.285	0.0148485
823.363	0.0147736
823.441	0.0148498
823.519	0.0148370
823.597	0.0148533
823.675	0.0147874
823.753	0.0146425
823.831	0.0145983
823.910	0.0146583
823.988	0.0146082
824.066	0.0145663
824.144	0.0144344
824.222	0.0144142
824.300	0.0142323
824.378	0.0142691
824.456	0.0141983
824.535	0.0140694
824.613	0.0140495
824.691	0.0139700
824.769	0.0140271
824.847	0.0139039
824.925	0.0138457
825.003	0.0140073
825.081	0.0139786
825.160	0.0138650
825.238	0.0136768
825.316	0.0138080
825.394	0.0139292
825.472	0.0139009
825.550	0.0137932
825.628	0.0137123
825.706	0.0139570
825.785	0.0137180
825.863	0.0137019
825.941	0.0137117
826.019	0.0138857
826.097	0.0137214
826.175	0.0137065
826.253	0.0137791
826.331	0.0138865
826.410	0.0139474
826.488	0.0140047
826.566	0.0138873
826.644	0.0139540
826.722	0.0139552
826.800	0.0140080
826.878	0.0140896
826.956	0.0140741
827.035	0.0141298
827.113	0.0142909
827.191	0.0142181
827.269	0.0142844
827.347	0.0142140
827.425	0.0142065
827.503	0.0142664
827.581	0.0143365
827.660	0.0142301
827.738	0.0142801
827.816	0.0141619
827.894	0.0143202
827.972	0.0142815
828.050	0.0143121
828.128	0.0140727
828.206	0.0141466
828.285	0.0142899
828.363	0.0143217
828.441	0.0143562
828.519	0.0143897
828.597	0.0143887
828.675	0.0143020
828.753	0.0143083
828.831	0.0142013
828.910	0.0142884
828.988	0.0143934
829.066	0.0143748
829.144	0.0142859
829.222	0.0143130
829.300	0.0144465
829.378	0.0143076
829.456	0.0144424
829.535	0.0143218
829.613	0.0144534
829.691	0.0144936
829.769	0.0144976
829.847	0.0144302
829.925	0.0144724
830.003	0.0145446
830.081	0.0144013
830.160	0.0144286
830.238	0.0144639
830.316	0.0145876
830.394	0.0146085
830.472	0.0145374
830.550	0.0146181
830.628	0.0144653
830.706	0.0144840
830.785	0.0145590
830.863	0.0144630
830.941	0.0145700
831.019	0.0144688
831.097	0.0145149
831.175	0.0144501
831.253	0.0145262
831.331	0.0143439
831.410	0.0144193
831.488	0.0143388
831.566	0.0144683
831.644	0.0142981
831.722	0.0143831
831.800	0.0142651
831.878	0.0142355
831.956	0.0142355
832.035	0.0142348
832.113	0.0142746
832.191	0.0142522
832.269	0.0142774
832.347	0.0144125
832.425	0.0141174
832.503	0.0140555
832.581	0.0141599
832.660	0.0141188
832.738	0.0141434
832.816	0.0142651
832.894	0.0141164
832.972	0.0139228
833.050	0.0141343
833.128	0.0140325
833.206	0.0140589
833.285	0.0141093
833.363	0.0140713
833.441	0.0142722
833.519	0.0142245
833.597	0.0142740
833.675	0.0141348
833.753	0.0140893
833.831	0.0142229
833.910	0.0143469
833.988	0.0143134
834.066	0.0143488
834.144	0.0143375
834.222	0.0144599
834.300	0.0144994
834.378	0.0143485
834.456	0.0143900
834.535	0.0142882
834.613	0.0143481
834.691	0.0143223
834.769	0.0142027
834.847	0.0142310
834.925	0.0143472
835.003	0.0142798
835.081	0.0142445
835.160	0.0142860
835.238	0.0141859
835.316	0.0140339
835.394	0.0141630
835.472	0.0142681
835.550	0.0141839
835.628	0.0143298
835.706	0.0143118
835.785	0.0141863
835.863	0.0142318
835.941	0.0143264
836.019	0.0142437
836.097	0.0142965
836.175	0.0142369
836.253	0.0144028
836.331	0.0143994
836.410	0.0143760
836.488	0.0144656
836.566	0.0144984
836.644	0.0145451
836.722	0.0145694
836.800	0.0145335
836.878	0.0145760
836.956	0.0145601
837.035	0.0147456
837.113	0.0145706
837.191	0.0144926
837.269	0.0144608
837.347	0.0145003
837.425	0.0146578
837.503	0.0144740
837.581	0.0144229
837.660	0.0143757
837.738	0.0144443
837.816	0.0144094
837.894	0.0142776
837.972	0.0143512
838.050	0.0143008
838.128	0.0143087
838.206	0.0143201
838.285	0.0143207
838.363	0.0141255
838.441	0.0142081
838.519	0.0140991
838.597	0.0141687
838.675	0.0141154
838.753	0.0139864
838.831	0.0139452
838.910	0.0140894
838.988	0.0140412
839.066	0.0140215
839.144	0.0140272
839.222	0.0140749
839.300	0.0140617
839.378	0.0139655
839.456	0.0140341
839.535	0.0139886
839.613	0.0141710
839.691	0.0140732
839.769	0.0142097
839.847	0.0141833
839.925	0.0140845
840.003	0.0138707
840.081	0.0139786
840.160	0.0142133
840.238	0.0140443
840.316	0.0142106
840.394	0.0141580
840.472	0.0141444
840.550	0.0141338
840.628	0.0141252
840.706	0.0140957
840.785	0.0140319
840.863	0.0141072
840.941	0.0139682
841.019	0.0141753
841.097	0.0142835
841.175	0.0142495
841.253	0.0142249
841.331	0.0143170
841.410	0.0142947
841.488	0.0142733
841.566	0.0142416
841.644	0.0143529
841.722	0.0142750
841.800	0.0142188
841.878	0.0141702
841.956	0.0140932
842.035	0.0141573
842.113	0.0141491
842.191	0.0141879
842.269	0.0141798
842.347	0.0142490
842.425	0.0142574
842.503	0.0142875
842.581	0.0142232
842.660	0.0142226
842.738	0.0142839
842.816	0.0142720
842.894	0.0144126
842.972	0.0142677
843.050	0.0143150
843.128	0.0143507
843.206	0.0142319
843.285	0.0141586
843.363	0.0143717
843.441	0.0144263
843.519	0.0143932
843.597	0.0143155
843.675	0.0144755
843.753	0.0143934
843.831	0.0145071
843.910	0.0144792
843.988	0.0146413
844.066	0.0145833
844.144	0.0146024
844.222	0.0145948
844.300	0.0145340
844.378	0.0145661
844.456	0.0145255
844.535	0.0144067
844.613	0.0144910
844.691	0.0144724
844.769	0.0144865
844.847	0.0143829
844.925	0.0144809
845.003	0.0144705
845.081	0.0145192
845.160	0.0145113
845.238	0.0144242
845.316	0.0144272
845.394	0.0143914
845.472	0.0142535
845.550	0.0141941
845.628	0.0144280
845.706	0.0143964
845.785	0.0143752
845.863	0.0143520
845.941	0.0143245
846.019	0.0143457
846.097	0.0143484
846.175	0.0144206
846.253	0.0144167
846.331	0.0144017
846.410	0.0142304
846.488	0.0143040
846.566	0.0142561
846.644	0.0142031
846.722	0.0142413
846.800	0.0141310
846.878	0.0141908
846.956	0.0143256
847.035	0.0141802
847.113	0.0142558
847.191	0.0143176
847.269	0.0142843
847.347	0.0143520
847.425	0.0142942
847.503	0.0142675
847.581	0.0141732
847.660	0.0143491
847.738	0.0143143
847.816	0.0142369
847.894	0.0142892
847.972	0.0143347
848.050	0.0144900
848.128	0.0142781
848.206	0.0143325
848.285	0.0144229
848.363	0.0143070
848.441	0.0143707
848.519	0.0143694
848.597	0.0142895
848.675	0.0143457
848.753	0.0142675
848.831	0.0141241
848.910	0.0142651
848.988	0.0142120
849.066	0.0141949
849.144	0.0142149
849.222	0.0141190
849.300	0.0141470
849.378	0.0140825
849.456	0.0140726
849.535	0.0139639
849.613	0.0141193
849.691	0.0139967
849.769	0.0141049
849.847	0.0138544
849.925	0.0140481
850.003	0.0140955
850.081	0.0140359
850.160	0.0140956
850.238	0.0140526
850.316	0.0141093
850.394	0.0141496
850.472	0.0141610
850.550	0.0142815
850.628	0.0142087
850.706	0.0143628
850.785	0.0141767
850.863	0.0144936
850.941	0.0143924
851.019	0.0143688
851.097	0.0143735
851.175	0.0145422
851.253	0.0144408
851.331	0.0145464
851.410	0.0145197
851.488	0.0145142
851.566	0.0143325
851.644	0.0144118
851.722	0.0144243
851.800	0.0145155
851.878	0.0143551
851.956	0.0144286
852.035	0.0144308
852.113	0.0144762
852.191	0.0144120
852.269	0.0143611
852.347	0.0144090
852.425	0.0143309
852.503	0.0143436
852.581	0.0143419
852.660	0.0143874
852.738	0.0144362
852.816	0.0143469
852.894	0.0143397
852.972	0.0143532
853.050	0.0144241
853.128	0.0142965
853.206	0.0143820
853.285	0.0143353
853.363	0.0143936
853.441	0.0144596
853.519	0.0144142
853.597	0.0142051
853.675	0.0142704
853.753	0.0142480
853.831	0.0142948
853.910	0.0143643
853.988	0.0141982
854.066	0.0141724
854.144	0.0141846
854.222	0.0141917
854.300	0.0141322
854.378	0.0141815
854.456	0.0141348
854.535	0.0142334
854.613	0.0140547
854.691	0.0141057
854.769	0.0142683
854.847	0.0142061
854.925	0.0141856
855.003	0.0141546
855.081	0.0142205
855.160	0.0141128
855.238	0.0141346
855.316	0.0142558
855.394	0.0142309
855.472	0.0141422
855.550	0.0140594
855.628	0.0141248
855.706	0.0139534
855.785	0.0141269
855.863	0.0140952
855.941	0.0140369
856.019	0.0141122
856.097	0.0138539
856.175	0.0138660
856.253	0.0139764
856.331	0.0140838
856.410	0.0140000
856.488	0.0139559
856.566	0.0140334
856.644	0.0140649
856.722	0.0140346
856.800	0.0141180
856.878	0.0140678
856.956	0.0140670
857.035	0.0142791
857.113	0.0141474
857.191	0.0142239
857.269	0.0142136
857.347	0.0140618
857.425	0.0142413
857.503	0.0143163
857.581	0.0144038
857.660	0.0144749
857.738	0.0143359
857.816	0.0143297
857.894	0.0143960
857.972	0.0144830
858.050	0.0145580
858.128	0.0144695
858.206	0.0145229
858.285	0.0144744
858.363	0.0146539
858.441	0.0144647
858.519	0.0144982
858.597	0.0145317
858.675	0.0145603
858.753	0.0144939
858.831	0.0144248
858.910	0.0146774
858.988	0.0146201
859.066	0.0146001
859.144	0.0145152
859.222	0.0145638
859.300	0.0147753
859.378	0.0146865
859.456	0.0145548
859.535	0.0145712
859.613	0.0145471
859.691	0.0145277
859.769	0.0144917
859.847	0.0143792
859.925	0.0144619
860.003	0.0144769
860.081	0.0143230
860.160	0.0144222
860.238	0.0145190
860.316	0.0144431
860.394	0.0142708
860.472	0.0144714
860.550	0.0144245
860.628	0.0143584
860.706	0.0143315
860.785	0.0142635
860.863	0.0142320
860.941	0.0142928
861.019	0.0141536
861.097	0.0141116
861.175	0.0141316
861.253	0.0141251
861.331	0.0140473
861.410	0.0140585
861.488	0.0140949
861.566	0.0139967
861.644	0.0139977
861.722	0.0141743
861.800	0.0141312
861.878	0.0140682
861.956	0.0140000
862.035	0.0141068
862.113	0.0141928
862.191	0.0141034
862.269	0.0140993
862.347	0.0141460
862.425	0.0141119
862.503	0.0140548
862.581	0.0140253
862.660	0.0141084
862.738	0.0140080
862.816	0.0138897
862.894	0.0141071
862.972	0.0141259
863.050	0.0140969
863.128	0.0138754
863.206	0.0139248
863.285	0.0139847
863.363	0.0139783
863.441	0.0138790
863.519	0.0140258
863.597	0.0139611
863.675	0.0139861
863.753	0.0139373
863.831	0.0139684
863.910	0.0139163
863.988	0.0139057
864.066	0.0140973
864.144	0.0141231
864.222	0.0142255
864.300	0.0143814
864.378	0.0142426
864.456	0.0143478
864.535	0.0143980
864.613	0.0144942
864.691	0.0144594
864.769	0.0146465
864.847	0.0146358
864.925	0.0146811
865.003	0.0146098
865.081	0.0147050
865.160	0.0147460
865.238	0.0145956
865.316	0.0146037
865.394	0.0147732
865.472	0.0146716
865.550	0.0145551
865.628	0.0146643
865.706	0.0145824
865.785	0.0146241
865.863	0.0145785
865.941	0.0146019
866.019	0.0144969
866.097	0.0144635
866.175	0.0145182
866.253	0.0146444
866.331	0.0145283
866.410	0.0145251
866.488	0.0144603
866.566	0.0144856
866.644	0.0144491
866.722	0.0144567
866.800	0.0143766
866.878	0.0142378
866.956	0.0143178
867.035	0.0144366
867.113	0.0143356
867.191	0.0142722
867.269	0.0142459
867.347	0.0142835
867.425	0.0142564
867.503	0.0142017
867.581	0.0141627
867.660	0.0141724
867.738	0.0141328
867.816	0.0139621
867.894	0.0140230
867.972	0.0139629
868.050	0.0138414
868.128	0.0140053
868.206	0.0138850
868.285	0.0138551
868.363	0.0139201
868.441	0.0138875
868.519	0.0139860
868.597	0.0139438
868.675	0.0138181
868.753	0.0139632
868.831	0.0139880
868.910	0.0139036
868.988	0.0139569
869.066	0.0140373
869.144	0.0141549
869.222	0.0139092
869.300	0.0140482
869.378	0.0141715
869.456	0.0140851
869.535	0.0140804
869.613	0.0141520
869.691	0.0140898
869.769	0.0142463
869.847	0.0141920
869.925	0.0142429
870.003	0.0141272
870.081	0.0142650
870.160	0.0143294
870.238	0.0142053
870.316	0.0142480
870.394	0.0141129
870.472	0.0141350
870.550	0.0141822
870.628	0.0140170
870.706	0.0142249
870.785	0.0141271
870.863	0.0142702
870.941	0.0142453
871.019	0.0143195
871.097	0.0143052
871.175	0.0143956
871.253	0.0144749
871.331	0.0145181
871.410	0.0143803
871.488	0.0145290
871.566	0.0144978
871.644	0.0146355
871.722	0.0146577
871.800	0.0147832
871.878	0.0146455
871.956	0.0147587
872.035	0.0147801
872.113	0.0147394
872.191	0.0148031
872.269	0.0148819
872.347	0.0147789
872.425	0.0148002
872.503	0.0149359
872.581	0.0147745
872.660	0.0146352
872.738	0.0147083
872.816	0.0147079
872.894	0.0144393
872.972	0.0145654
873.050	0.0145073
873.128	0.0145368
873.206	0.0145058
873.285	0.0144112
873.363	0.0144741
873.441	0.0144165
873.519	0.0143985
873.597	0.0142455
873.675	0.0143877
873.753	0.0143504
873.831	0.0142439
873.910	0.0142635
873.988	0.0142591
874.066	0.0140636
874.144	0.0142791
874.222	0.0144005
874.300	0.0141871
874.378	0.0140934
874.456	0.0140475
874.535	0.0140192
874.613	0.0139999
874.691	0.0140446
874.769	0.0140271
874.847	0.0141094
874.925	0.0139772
875.003	0.0139790
875.081	0.0139452
875.160	0.0140374
875.238	0.0139591
875.316	0.0138418
875.394	0.0138515
875.472	0.0139052
875.550	0.0139491
875.628	0.0139832
875.706	0.0139774
875.785	0.0139337
875.863	0.0140002
875.941	0.0139005
876.019	0.0139993
876.097	0.0138874
876.175	0.0140260
876.253	0.0141412
876.331	0.0140633
876.410	0.0141621
876.488	0.0141364
876.566	0.0140051
876.644	0.0141223
876.722	0.0141297
876.800	0.0140861
876.878	0.0141055
876.956	0.0139378
877.035	0.0140840
877.113	0.0141358
877.191	0.0140252
877.269	0.0140913
877.347	0.0141356
877.425	0.0141302
877.503	0.0140752
877.581	0.0141119
877.660	0.0140908
877.738	0.0142025
877.816	0.0141886
877.894	0.0142250
877.972	0.0141856
878.050	0.0141788
878.128	0.0141718
878.206	0.0142281
878.285	0.0142123
878.363	0.0144162
878.441	0.0143942
878.519	0.0144892
878.597	0.0144317
878.675	0.0144108
878.753	0.0145461
878.831	0.0146706
878.910	0.0147350
878.988	0.0145185
879.066	0.0147318
879.144	0.0147176
879.222	0.0147048
879.300	0.0146042
879.378	0.0146034
879.456	0.0147537
879.535	0.0146771
879.613	0.0145668
879.691	0.0147084
879.769	0.0146529
879.847	0.0146155
879.925	0.0146462
880.003	0.0145266
880.081	0.0144765
880.160	0.0144971
880.238	0.0143920
880.316	0.0143282
880.394	0.0144681
880.472	0.0144039
880.550	0.0143716
880.628	0.0141940
880.706	0.0142703
880.785	0.0143696
880.863	0.0143192
880.941	0.0142209
881.019	0.0142217
881.097	0.0142861
881.175	0.0140546
881.253	0.0140916
881.331	0.0141682
881.410	0.0140291
881.488	0.0141415
881.566	0.0141143
881.644	0.0140509
881.722	0.0140525
881.800	0.0140034
881.878	0.0140181
881.956	0.0139538
882.035	0.0140742
882.113	0.0140642
882.191	0.0140308
882.269	0.0139891
882.347	0.0139738
882.425	0.0140087
882.503	0.0140803
882.581	0.0140904
882.660	0.0140075
882.738	0.0140338
882.816	0.0140167
882.894	0.0143180
882.972	0.0139833
883.050	0.0140800
883.128	0.0141874
883.206	0.0142621
883.285	0.0142809
883.363	0.0140498
883.441	0.0141869
883.519	0.0141869
883.597	0.0142614
883.675	0.0141592
883.753	0.0141311
883.831	0.0142586
883.910	0.0142004
883.988	0.0141504
884.066	0.0142204
884.144	0.0141996
884.222	0.0142043
884.300	0.0142726
884.378	0.0141942
884.456	0.0140878
884.535	0.0142239
884.613	0.0143043
884.691	0.0142551
884.769	0.0141958
884.847	0.0143261
884.925	0.0144576
885.003	0.0143403
885.081	0.0145164
885.160	0.0144748
885.238	0.0145557
885.316	0.0145918
885.394	0.0145358
885.472	0.0146268
885.550	0.0145890
885.628	0.0146106
885.706	0.0147204
885.785	0.0147675
885.863	0.0147068
885.941	0.0147727
886.019	0.0147013
886.097	0.0147591
886.175	0.0148283
886.253	0.0148501
886.331	0.0147009
886.410	0.0148071
886.488	0.0147586
886.566	0.0145673
886.644	0.0146150
886.722	0.0145931
886.800	0.0145542
886.878	0.0145939
886.956	0.0144068
887.035	0.0144698
887.113	0.0144308
887.191	0.0143605
887.269	0.0143851
887.347	0.0142883
887.425	0.0142406
887.503	0.0142818
887.581	0.0143087
887.660	0.0140976
887.738	0.0140136
887.816	0.0142369
887.894	0.0140313
887.972	0.0139524
888.050	0.0141884
888.128	0.0140721
888.206	0.0140169
888.285	0.0141047
888.363	0.0140181
888.441	0.0140047
888.519	0.0140012
888.597	0.0141055
888.675	0.0140939
888.753	0.0141241
888.831	0.0138656
888.910	0.0139514
888.988	0.0140665
889.066	0.0140414
889.144	0.0138582
889.222	0.0139500
889.300	0.0138658
889.378	0.0138819
889.456	0.0138313
889.535	0.0139692
889.613	0.0138496
889.691	0.0137804
889.769	0.0140269
889.847	0.0140482
889.925	0.0140219
890.003	0.0139570
890.081	0.0139410
890.160	0.0140873
890.238	0.0140177
890.316	0.0141268
890.394	0.0142464
890.472	0.0142087
890.550	0.0143068
890.628	0.0142252
890.706	0.0141966
890.785	0.0141531
890.863	0.0140167
890.941	0.0141754
891.019	0.0142037
891.097	0.0142114
891.175	0.0143003
891.253	0.0141560
891.331	0.0143323
891.410	0.0143653
891.488	0.0144693
891.566	0.0143385
891.644	0.0143449
891.722	0.0143472
891.800	0.0142506
891.878	0.0144044
891.956	0.0143185
892.035	0.0144193
892.113	0.0143657
892.191	0.0143954
892.269	0.0144868
892.347	0.0144863
892.425	0.0144050
892.503	0.0146109
892.581	0.0145827
892.660	0.0146343
892.738	0.0145474
892.816	0.0145518
892.894	0.0145282
892.972	0.0146952
893.050	0.0146565
893.128	0.0147546
893.206	0.0146880
893.285	0.0145129
893.363	0.0148491
893.441	0.0147864
893.519	0.0148710
893.597	0.0148051
893.675	0.0146741
893.753	0.0145036
893.831	0.0144465
893.910	0.0144958
893.988	0.0144729
894.066	0.0145326
894.144	0.0145551
894.222	0.0144674
894.300	0.0144481
894.378	0.0144415
894.456	0.0143366
894.535	0.0143465
894.613	0.0144482
894.691	0.0143855
894.769	0.0143803
894.847	0.0141492
894.925	0.0143546
895.003	0.0141743
895.081	0.0141494
895.160	0.0141741
895.238	0.0141783
895.316	0.0141859
895.394	0.0142870
895.472	0.0141653
895.550	0.0140107
895.628	0.0140064
895.706	0.0140153
895.785	0.0139697
895.863	0.0141119
895.941	0.0140334
896.019	0.0140353
896.097	0.0139967
896.175	0.0141445
896.253	0.0141109
896.331	0.0142300
896.410	0.0140967
896.488	0.0139692
896.566	0.0141221
896.644	0.0141486
896.722	0.0141774
896.800	0.0141325
896.878	0.0141510
896.956	0.0140842
897.035	0.0142084
897.113	0.0140969
897.191	0.0142014
897.269	0.0142482
897.347	0.0141834
897.425	0.0141815
897.503	0.0141666
897.581	0.0143043
897.660	0.0142366
897.738	0.0141784
897.816	0.0141469
897.894	0.0141069
897.972	0.0142272
898.050	0.0142195
898.128	0.0141286
898.206	0.0141136
898.285	0.0141866
898.363	0.0141894
898.441	0.0142322
898.519	0.0142349
898.597	0.0142246
898.675	0.0142732
898.753	0.0142096
898.831	0.0141116
898.910	0.0144250
898.988	0.0145582
899.066	0.0143812
899.144	0.0144836
899.222	0.0143135
899.300	0.0144437
899.378	0.0143954
899.456	0.0144765
899.535	0.0145770
899.613	0.0144914
899.691	0.0143179
899.769	0.0144297
899.847	0.0144632
899.925	0.0144938
900.003	0.0145743
900.081	0.0144481
900.160	0.0144099
900.238	0.0144873
900.316	0.0144194
900.394	0.0144697
900.472	0.0144947
900.550	0.0144623
900.628	0.0143688
900.706	0.0143473
900.785	0.0143411
900.863	0.0143489
900.941	0.0142712
901.019	0.0143895
901.097	0.0143481
901.175	0.0144133
901.253	0.0142724
901.331	0.0142400
901.410	0.0143162
901.488	0.0142595
901.566	0.0143834
901.644	0.0142099
901.722	0.0141944
901.800	0.0142435
901.878	0.0141598
901.956	0.0141986
902.035	0.0141043
902.113	0.0143057
902.191	0.0142235
902.269	0.0140414
902.347	0.0140591
902.425	0.0141276
902.503	0.0141142
902.581	0.0141505
902.660	0.0142065
902.738	0.0141759
902.816	0.0140130
902.894	0.0139582
902.972	0.0139133
903.050	0.0139729
903.128	0.0139490
903.206	0.0139575
903.285	0.0139065
903.363	0.0139479
903.441	0.0139171
903.519	0.0137581
903.597	0.0138913
903.675	0.0138826
903.753	0.0137759
903.831	0.0138797
903.910	0.0139767
903.988	0.0139534
904.066	0.0138232
904.144	0.0140486
904.222	0.0141082
904.300	0.0140805
904.378	0.0141061
904.456	0.0141125
904.535	0.0140759
904.613	0.0142435
904.691	0.0141798
904.769	0.0143105
904.847	0.0142544
904.925	0.0142056
905.003	0.0143137
905.081	0.0143615
905.160	0.0143280
905.238	0.0144310
905.316	0.0144618
905.394	0.0146252
905.472	0.0143253
905.550	0.0143379
905.628	0.0145042
905.706	0.0144435
905.785	0.0144562
905.863	0.0146070
905.941	0.0143404
906.019	0.0144463
906.097	0.0144973
906.175	0.0145379
906.253	0.0145077
906.331	0.0142860
906.410	0.0144653
906.488	0.0143082
906.566	0.0143974
906.644	0.0142818
906.722	0.0144128
906.800	0.0143095
906.878	0.0143005
906.956	0.0143449
907.035	0.0144725
907.113	0.0143884
907.191	0.0144495
907.269	0.0143884
907.347	0.0144096
907.425	0.0144483
907.503	0.0144261
907.581	0.0143858
907.660	0.0143325
907.738	0.0144432
907.816	0.0142039
907.894	0.0142868
907.972	0.0143031
908.050	0.0142625
908.128	0.0142168
908.206	0.0140701
908.285	0.0142114
908.363	0.0140589
908.441	0.0140656
908.519	0.0139847
908.597	0.0141328
908.675	0.0139295
908.753	0.0138314
908.831	0.0139436
908.910	0.0140388
908.988	0.0140711
909.066	0.0138492
909.144	0.0139673
909.222	0.0141524
909.300	0.0139780
909.378	0.0139238
909.456	0.0140326
909.535	0.0141037
909.613	0.0141379
909.691	0.0139676
909.769	0.0141330
909.847	0.0139767
909.925	0.0140582
910.003	0.0140161
910.081	0.0141216
910.160	0.0141836
910.238	0.0143549
910.316	0.0142834
910.394	0.0143639
910.472	0.0143685
910.550	0.0144044
910.628	0.0143911
910.706	0.0142960
910.785	0.0142844
910.863	0.0143481
910.941	0.0143625
911.019	0.0145513
911.097	0.0144859
911.175	0.0144160
911.253	0.0144651
911.331	0.0143628
911.410	0.0143278
911.488	0.0145267
911.566	0.0144389
911.644	0.0144387
911.722	0.0144270
911.800	0.0143922
911.878	0.0143998
911.956	0.0144238
912.035	0.0145368
912.113	0.0145251
912.191	0.0145570
912.269	0.0144824
912.347	0.0145857
912.425	0.0144958
912.503	0.0145985
912.581	0.0144700
912.660	0.0145165
912.738	0.0145182
912.816	0.0143587
912.894	0.0143986
912.972	0.0145292
913.050	0.0143877
913.128	0.0143938
913.206	0.0144010
913.285	0.0143777
913.363	0.0143769
913.441	0.0142885
913.519	0.0143165
913.597	0.0143254
913.675	0.0143793
913.753	0.0142498
913.831	0.0142434
913.910	0.0144279
913.988	0.0143973
914.066	0.0143256
914.144	0.0142435
914.222	0.0142353
914.300	0.0141639
914.378	0.0142094
914.456	0.0143890
914.535	0.0142462
914.613	0.0142245
914.691	0.0141793
914.769	0.0141960
914.847	0.0142742
914.925	0.0143106
915.003	0.0143684
915.081	0.0143153
915.160	0.0142899
915.238	0.0142252
915.316	0.0141894
915.394	0.0143628
915.472	0.0143445
915.550	0.0141227
915.628	0.0142884
915.706	0.0141907
915.785	0.0140496
915.863	0.0143374
915.941	0.0142616
916.019	0.0141325
916.097	0.0142211
916.175	0.0142635
916.253	0.0141133
916.331	0.0142886
916.410	0.0142581
916.488	0.0142666
916.566	0.0143584
916.644	0.0142221
916.722	0.0142508
916.800	0.0143408
916.878	0.0142715
916.956	0.0144337
917.035	0.0143752
917.113	0.0143209
917.191	0.0143483
917.269	0.0142265
917.347	0.0142603
917.425	0.0144100
917.503	0.0144092
917.581	0.0143501
917.660	0.0143084
917.738	0.0142490
917.816	0.0143977
917.894	0.0142069
917.972	0.0142820
918.050	0.0142779
918.128	0.0143958
918.206	0.0142502
918.285	0.0142861
918.363	0.0144145
918.441	0.0142880
918.519	0.0144334
918.597	0.0144439
918.675	0.0143881
918.753	0.0144509
918.831	0.0143837
918.910	0.0144628
918.988	0.0144367
919.066	0.0144930
919.144	0.0144050
919.222	0.0144115
919.300	0.0144381
919.378	0.0143298
919.456	0.0145340
919.535	0.0145111
919.613	0.0144260
919.691	0.0143395
919.769	0.0142323
919.847	0.0143434
919.925	0.0143755
920.003	0.0144219
920.081	0.0143580
920.160	0.0142989
920.238	0.0142949
920.316	0.0143333
920.394	0.0141993
920.472	0.0142224
920.550	0.0141403
920.628	0.0142783
920.706	0.0142859
920.785	0.0142398
920.863	0.0143514
920.941	0.0141708
921.019	0.0143273
921.097	0.0143368
921.175	0.0142385
921.253	0.0143697
921.331	0.0143436
921.410	0.0144421
921.488	0.0143134
921.566	0.0143633
921.644	0.0145490
921.722	0.0145168
921.800	0.0145756
921.878	0.0145722
921.956	0.0145159
922.035	0.0145850
922.113	0.0145591
922.191	0.0145185
922.269	0.0145248
922.347	0.0144434
922.425	0.0144320
922.503	0.0145562
922.581	0.0145371
922.660	0.0143720
922.738	0.0144369
922.816	0.0145463
922.894	0.0144160
922.972	0.0144473
923.050	0.0144218
923.128	0.0143367
923.206	0.0145237
923.285	0.0143659
923.363	0.0144230
923.441	0.0143660
923.519	0.0143450
923.597	0.0143729
923.675	0.0143151
923.753	0.0142416
923.831	0.0142078
923.910	0.0143602
923.988	0.0144352
924.066	0.0142485
924.144	0.0141955
924.222	0.0142293
924.300	0.0141854
924.378	0.0141257
924.456	0.0142368
924.535	0.0142667
924.613	0.0141127
924.691	0.0142069
924.769	0.0143458
924.847	0.0142188
924.925	0.0141696
925.003	0.0141863
925.081	0.0140868
925.160	0.0142146
925.238	0.0143582
925.316	0.0142160
925.394	0.0141816
925.472	0.0142213
925.550	0.0141982
925.628	0.0141423
925.706	0.0139102
925.785	0.0141028
925.863	0.0140143
925.941	0.0140359
926.019	0.0141331
926.097	0.0138856
926.175	0.0140770
926.253	0.0142535
926.331	0.0139822
926.410	0.0139418
926.488	0.0139185
926.566	0.0140926
926.644	0.0141536
926.722	0.0141555
926.800	0.0142123
926.878	0.0141935
926.956	0.0141474
927.035	0.0140178
927.113	0.0142445
927.191	0.0141488
927.269	0.0142045
927.347	0.0141689
927.425	0.0141345
927.503	0.0140769
927.581	0.0142236
927.660	0.0141005
927.738	0.0140910
927.816	0.0140960
927.894	0.0141953
927.972	0.0142164
928.050	0.0142426
928.128	0.0141709
928.206	0.0141928
928.285	0.0141620
928.363	0.0142254
928.441	0.0141961
928.519	0.0142773
928.597	0.0141396
928.675	0.0141112
928.753	0.0142992
928.831	0.0143416
928.910	0.0143262
928.988	0.0143774
929.066	0.0142052
929.144	0.0140839
929.222	0.0143347
929.300	0.0143668
929.378	0.0143412
929.456	0.0141681
929.535	0.0143386
929.613	0.0142220
929.691	0.0141628
929.769	0.0141694
929.847	0.0142479
929.925	0.0142529
930.003	0.0142275
930.081	0.0142448
930.160	0.0140777
930.238	0.0142622
930.316	0.0142804
930.394	0.0142776
930.472	0.0141837
930.550	0.0140687
930.628	0.0142356
930.706	0.0142032
930.785	0.0141523
930.863	0.0142029
930.941	0.0142784
931.019	0.0143909
931.097	0.0144075
931.175	0.0142175
931.253	0.0142000
931.331	0.0143329
931.410	0.0142345
931.488	0.0143277
931.566	0.0142529
931.644	0.0143053
931.722	0.0142386
931.800	0.0142011
931.878	0.0142974
931.956	0.0141695
932.035	0.0141771
932.113	0.0141341
932.191	0.0140822
932.269	0.0141840
932.347	0.0141454
932.425	0.0140205
932.503	0.0140409
932.581	0.0138890
932.660	0.0142136
932.738	0.0141125
932.816	0.0140194
932.894	0.0142110
932.972	0.0143597
933.050	0.0141127
933.128	0.0140957
933.206	0.0141153
933.285	0.0141271
933.363	0.0142435
933.441	0.0141932
933.519	0.0141698
933.597	0.0142864
933.675	0.0141985
933.753	0.0143578
933.831	0.0143940
933.910	0.0143624
933.988	0.0143760
934.066	0.0144042
934.144	0.0142636
934.222	0.0144096
934.300	0.0144353
934.378	0.0142450
934.456	0.0143442
934.535	0.0142786
934.613	0.0142826
934.691	0.0141810
934.769	0.0144109
934.847	0.0142756
934.925	0.0141930
935.003	0.0142372
935.081	0.0142043
935.160	0.0143822
935.238	0.0143998
935.316	0.0143839
935.394	0.0144527
935.472	0.0144458
935.550	0.0144761
935.628	0.0144867
935.706	0.0145220
935.785	0.0144540
935.863	0.0143065
935.941	0.0144199
936.019	0.0145344
936.097	0.0144096
936.175	0.0145175
936.253	0.0145730
936.331	0.0144023
936.410	0.0145072
936.488	0.0145303
936.566	0.0142863
936.644	0.0142950
936.722	0.0143471
936.800	0.0142766
936.878	0.0142953
936.956	0.0143758
937.035	0.0142409
937.113	0.0142664
937.191	0.0143356
937.269	0.0143074
937.347	0.0143990
937.425	0.0141826
937.503	0.0142237
937.581	0.0141707
937.660	0.0143623
937.738	0.0142623
937.816	0.0141382
937.894	0.0143385
937.972	0.0140247
938.050	0.0142274
938.128	0.0140766
938.206	0.0141833
938.285	0.0142117
938.363	0.0142669
938.441	0.0143315
938.519	0.0142214
938.597	0.0141266
938.675	0.0142963
938.753	0.0142490
938.831	0.0142876
938.910	0.0141544
938.988	0.0143060
939.066	0.0143185
939.144	0.0141872
939.222	0.0142532
939.300	0.0141537
939.378	0.0142513
939.456	0.0142546
939.535	0.0143052
939.613	0.0142204
939.691	0.0143093
939.769	0.0143628
939.847	0.0143946
939.925	0.0142635
940.003	0.0143644
940.081	0.0143949
940.160	0.0141767
940.238	0.0143186
940.316	0.0143157
940.394	0.0143392
940.472	0.0143475
940.550	0.0143245
940.628	0.0142965
940.706	0.0143256
940.785	0.0143372
940.863	0.0143363
940.941	0.0143231
941.019	0.0142033
941.097	0.0143396
941.175	0.0142914
941.253	0.0143068
941.331	0.0143588
941.410	0.0142872
941.488	0.0142918
941.566	0.0143528
941.644	0.0141958
941.722	0.0141981
941.800	0.0142556
941.878	0.0141447
941.956	0.0142924
942.035	0.0142157
942.113	0.0141558
942.191	0.0142034
942.269	0.0143422
942.347	0.0143268
942.425	0.0141326
942.503	0.0143730
942.581	0.0144238
942.660	0.0142616
942.738	0.0142141
942.816	0.0143249
942.894	0.0144242
942.972	0.0144597
943.050	0.0143970
943.128	0.0145961
943.206	0.0145285
943.285	0.0144357
943.363	0.0145435
943.441	0.0146659
943.519	0.0145828
943.597	0.0146244
943.675	0.0145612
943.753	0.0144639
943.831	0.0144900
943.910	0.0144530
943.988	0.0145426
944.066	0.0145251
944.144	0.0144328
944.222	0.0144404
944.300	0.0143478
944.378	0.0144319
944.456	0.0142474
944.535	0.0143995
944.613	0.0142043
944.691	0.0142358
944.769	0.0143910
944.847	0.0141666
944.925	0.0141309
945.003	0.0140401
945.081	0.0143285
945.160	0.0142390
945.238	0.0141920
945.316	0.0139848
945.394	0.0140969
945.472	0.0141763
945.550	0.0141030
945.628	0.0140771
945.706	0.0142310
945.785	0.0141747
945.863	0.0141079
945.941	0.0141898
946.019	0.0142334
946.097	0.0141176
946.175	0.0141877
946.253	0.0141043
946.331	0.0142152
946.410	0.0143096
946.488	0.0141388
946.566	0.0141241
946.644	0.0142104
946.722	0.0140302
946.800	0.0141125
946.878	0.0141396
946.956	0.0142154
947.035	0.0141919
947.113	0.0141593
947.191	0.0142314
947.269	0.0143188
947.347	0.0142316
947.425	0.0143108
947.503	0.0143259
947.581	0.0143569
947.660	0.0143092
947.738	0.0143224
947.816	0.0143799
947.894	0.0145523
947.972	0.0142834
948.050	0.0143664
948.128	0.0144032
948.206	0.0144160
948.285	0.0144290
948.363	0.0143496
948.441	0.0143668
948.519	0.0142057
948.597	0.0142388
948.675	0.0142724
948.753	0.0142760
948.831	0.0142399
948.910	0.0142067
948.988	0.0142996
949.066	0.0141624
949.144	0.0141217
949.222	0.0140910
949.300	0.0142515
949.378	0.0143616
949.456	0.0142603
949.535	0.0143308
949.613	0.0140868
949.691	0.0142294
949.769	0.0142825
949.847	0.0143192
949.925	0.0144691
950.003	0.0143469
950.081	0.0142175
950.160	0.0144205
950.238	0.0142758
950.316	0.0142347
950.394	0.0142717
950.472	0.0142839
950.550	0.0143079
950.628	0.0143430
950.706	0.0141934
950.785	0.0142149
950.863	0.0142267
950.941	0.0141730
951.019	0.0140845
951.097	0.0140183
951.175	0.0140920
951.253	0.0140548
951.331	0.0140660
951.410	0.0142147
951.488	0.0140335
951.566	0.0140370
951.644	0.0140838
951.722	0.0141785
951.800	0.0140646
951.878	0.0140491
951.956	0.0140649
952.035	0.0140530
952.113	0.0141591
952.191	0.0140873
952.269	0.0140434
952.347	0.0142522
952.425	0.0141394
952.503	0.0142300
952.581	0.0142480
952.660	0.0140861
952.738	0.0141187
952.816	0.0142547
952.894	0.0142896
952.972	0.0141808
953.050	0.0141235
953.128	0.0142159
953.206	0.0143704
953.285	0.0143423
953.363	0.0141734
953.441	0.0141547
953.519	0.0142239
953.597	0.0141428
953.675	0.0141831
953.753	0.0141975
953.831	0.0143999
953.910	0.0143533
953.988	0.0141286
954.066	0.0143535
954.144	0.0143205
954.222	0.0143485
954.300	0.0143697
954.378	0.0144025
954.456	0.0143797
954.535	0.0143272
954.613	0.0144812
954.691	0.0144839
954.769	0.0144298
954.847	0.0144287
954.925	0.0145001
955.003	0.0143803
955.081	0.0143829
955.160	0.0142223
955.238	0.0143670
955.316	0.0144048
955.394	0.0142834
955.472	0.0143506
955.550	0.0142378
955.628	0.0142942
955.706	0.0141823
955.785	0.0142409
955.863	0.0140446
955.941	0.0140829
956.019	0.0140166
956.097	0.0141305
956.175	0.0140147
956.253	0.0141132
956.331	0.0141170
956.410	0.0140968
956.488	0.0142055
956.566	0.0141002
956.644	0.0139961
956.722	0.0139944
956.800	0.0140340
956.878	0.0141100
956.956	0.0140448
957.035	0.0140960
957.113	0.0142206
957.191	0.0142342
957.269	0.0143148
957.347	0.0142312
957.425	0.0141625
957.503	0.0142749
957.581	0.0142598
957.660	0.0141602
957.738	0.0144195
957.816	0.0143995
957.894	0.0142858
957.972	0.0142842
958.050	0.0141835
958.128	0.0143039
958.206	0.0143683
958.285	0.0143074
958.363	0.0144682
958.441	0.0143703
958.519	0.0142779
958.597	0.0143458
958.675	0.0144444
958.753	0.0143841
958.831	0.0144118
958.910	0.0143468
958.988	0.0143819
959.066	0.0143536
959.144	0.0144751
959.222	0.0142849
959.300	0.0143304
959.378	0.0144550
959.456	0.0144160
959.535	0.0145085
959.613	0.0144622
959.691	0.0144552
959.769	0.0145184
959.847	0.0144150
959.925	0.0143727
960.003	0.0143996
960.081	0.0143369
960.160	0.0144789
960.238	0.0142488
960.316	0.0143216
960.394	0.0143408
960.472	0.0144139
960.550	0.0143323
960.628	0.0141884
960.706	0.0143816
960.785	0.0142953
960.863	0.0142390
960.941	0.0141982
961.019	0.0142158
961.097	0.0142281
961.175	0.0142448
961.253	0.0142659
961.331	0.0142589
961.410	0.0141661
961.488	0.0142029
961.566	0.0141791
961.644	0.0141359
961.722	0.0141628
961.800	0.0141084
961.878	0.0141573
961.956	0.0141711
962.035	0.0141617
962.113	0.0142770
962.191	0.0142518
962.269	0.0141535
962.347	0.0142783
962.425	0.0142603
962.503	0.0142616
962.581	0.0141498
962.660	0.0140942
962.738	0.0140864
962.816	0.0142130
962.894	0.0141883
962.972	0.0143238
963.050	0.0143626
963.128	0.0143163
963.206	0.0141953
963.285	0.0142386
963.363	0.0143928
963.441	0.0143134
963.519	0.0142073
963.597	0.0143391
963.675	0.0143978
963.753	0.0142850
963.831	0.0142632
963.910	0.0144231
963.988	0.0145016
964.066	0.0144444
964.144	0.0145116
964.222	0.0145170
964.300	0.0145195
964.378	0.0144230
964.456	0.0145277
964.535	0.0144241
964.613	0.0146140
964.691	0.0144080
964.769	0.0145090
964.847	0.0147131
964.925	0.0146941
965.003	0.0146323
965.081	0.0147668
965.160	0.0145650
965.238	0.0144966
965.316	0.0145138
965.394	0.0146250
965.472	0.0144724
965.550	0.0145444
965.628	0.0145108
965.706	0.0145473
965.785	0.0145067
965.863	0.0144379
965.941	0.0144261
966.019	0.0144904
966.097	0.0145030
966.175	0.0143391
966.253	0.0143643
966.331	0.0142953
966.410	0.0142867
966.488	0.0144064
966.566	0.0143579
966.644	0.0142691
966.722	0.0142973
966.800	0.0143192
966.878	0.0142846
966.956	0.0142340
967.035	0.0142534
967.113	0.0141571
967.191	0.0141776
967.269	0.0143490
967.347	0.0141631
967.425	0.0141300
967.503	0.0140122
967.581	0.0140850
967.660	0.0140716
967.738	0.0139301
967.816	0.0140420
967.894	0.0140395
967.972	0.0141702
968.050	0.0140638
968.128	0.0139804
968.206	0.0139974
968.285	0.0141520
968.363	0.0140891
968.441	0.0140603
968.519	0.0139868
968.597	0.0141652
968.675	0.0141744
968.753	0.0141068
968.831	0.0142347
968.910	0.0142926
968.988	0.0144137
969.066	0.0142719
969.144	0.0142103
969.222	0.0142871
969.300	0.0143285
969.378	0.0143783
969.456	0.0143521
969.535	0.0142704
969.613	0.0144823
969.691	0.0145196
969.769	0.0145468
969.847	0.0143817
969.925	0.0145208
970.003	0.0145496
970.081	0.0144485
970.160	0.0144616
970.238	0.0143964
970.316	0.0144839
970.394	0.0145066
970.472	0.0143417
970.550	0.0144762
970.628	0.0144862
970.706	0.0144846
970.785	0.0144792
970.863	0.0143551
970.941	0.0143363
971.019	0.0144073
971.097	0.0144526
971.175	0.0143324
971.253	0.0144706
971.331	0.0145476
971.410	0.0145749
971.488	0.0144153
971.566	0.0146510
971.644	0.0144138
971.722	0.0144025
971.800	0.0144438
971.878	0.0145411
971.956	0.0144022
972.035	0.0143871
972.113	0.0144164
972.191	0.0144489
972.269	0.0143804
972.347	0.0144099
972.425	0.0145019
972.503	0.0143704
972.581	0.0142400
972.660	0.0142788
972.738	0.0142509
972.816	0.0142542
972.894	0.0143069
972.972	0.0142884
973.050	0.0140961
973.128	0.0141077
973.206	0.0141501
973.285	0.0141578
973.363	0.0140054
973.441	0.0141788
973.519	0.0141196
973.597	0.0140884
973.675	0.0139842
973.753	0.0140424
973.831	0.0141469
973.910	0.0141471
973.988	0.0140546
974.066	0.0140049
974.144	0.0139630
974.222	0.0139887
974.300	0.0140932
974.378	0.0139412
974.456	0.0140692
974.535	0.0139426
974.613	0.0138250
974.691	0.0138958
974.769	0.0140739
974.847	0.0140290
974.925	0.0139571
975.003	0.0140608
975.081	0.0140606
975.160	0.0141854
975.238	0.0140666
975.316	0.0140913
975.394	0.0141511
975.472	0.0142393
975.550	0.0142456
975.628	0.0143770
975.706	0.0144653
975.785	0.0143272
975.863	0.0143513
975.941	0.0143802
976.019	0.0144444
976.097	0.0145416
976.175	0.0144909
976.253	0.0145335
976.331	0.0146453
976.410	0.0144714
976.488	0.0143613
976.566	0.0144396
976.644	0.0146808
976.722	0.0144014
976.800	0.0144969
976.878	0.0146854
976.956	0.0145068
977.035	0.0143817
977.113	0.0144320
977.191	0.0143987
977.269	0.0143728
977.347	0.0143982
977.425	0.0144996
977.503	0.0144320
977.581	0.0143702
977.660	0.0144215
977.738	0.0143778
977.816	0.0144492
977.894	0.0144936
977.972	0.0144579
978.050	0.0144389
978.128	0.0143122
978.206	0.0144165
978.285	0.0144325
978.363	0.0143415
978.441	0.0144196
978.519	0.0144583
978.597	0.0143744
978.675	0.0144016
978.753	0.0142699
978.831	0.0142443
978.910	0.0142328
978.988	0.0141191
979.066	0.0140628
979.144	0.0141344
979.222	0.0142207
979.300	0.0141003
979.378	0.0141299
979.456	0.0141061
979.535	0.0140611
979.613	0.0140453
979.691	0.0140963
979.769	0.0140775
979.847	0.0140994
979.925	0.0141853
