05/03/2022	20:37:17	Ver.	4.1	UNKNOWN
Optical Delay	660.003261	Delta X		0.078125	Sweeps	1	Scan Rate	0/0
Coordinates	Axis 1	NaN	Axis 2	NaN	Axis 3	NaN	Axis 4	NaN	Axis 5	NaN	Axis 6	0.000000
TX Power	0.000000	RX Power	0.000000

660.003	0.0144879
660.081	0.0145171
660.160	0.0145264
660.238	0.0144701
660.316	0.0143710
660.394	0.0144820
660.472	0.0145930
660.550	0.0145596
660.628	0.0145544
660.706	0.0145933
660.785	0.0143782
660.863	0.0144717
660.941	0.0144979
661.019	0.0145102
661.097	0.0145347
661.175	0.0143391
661.253	0.0144947
661.331	0.0143595
661.410	0.0145877
661.488	0.0145087
661.566	0.0145244
661.644	0.0144639
661.722	0.0145419
661.800	0.0145018
661.878	0.0145703
661.956	0.0145421
662.035	0.0144684
662.113	0.0146045
662.191	0.0145381
662.269	0.0144446
662.347	0.0145081
662.425	0.0144080
662.503	0.0144778
662.581	0.0144658
662.660	0.0146940
662.738	0.0144630
662.816	0.0143949
662.894	0.0143602
662.972	0.0144901
663.050	0.0143804
663.128	0.0143141
663.206	0.0144836
663.285	0.0144393
663.363	0.0144748
663.441	0.0145339
663.519	0.0145122
663.597	0.0145972
663.675	0.0144337
663.753	0.0144484
663.831	0.0145627
663.910	0.0145419
663.988	0.0144698
664.066	0.0145509
664.144	0.0145206
664.222	0.0145313
664.300	0.0143980
664.378	0.0145963
664.456	0.0145203
664.535	0.0144888
664.613	0.0146501
664.691	0.0144788
664.769	0.0144405
664.847	0.0144793
664.925	0.0145355
665.003	0.0146239
665.081	0.0145638
665.160	0.0144404
665.238	0.0147138
665.316	0.0145606
665.394	0.0145484
665.472	0.0146243
665.550	0.0146161
665.628	0.0145686
665.706	0.0145046
665.785	0.0146040
665.863	0.0145779
665.941	0.0145551
666.019	0.0146126
666.097	0.0145358
666.175	0.0144119
666.253	0.0143265
666.331	0.0144157
666.410	0.0144447
666.488	0.0144963
666.566	0.0144753
666.644	0.0145719
666.722	0.0144038
666.800	0.0143861
666.878	0.0143784
666.956	0.0143668
667.035	0.0143796
667.113	0.0144440
667.191	0.0143790
667.269	0.0145804
667.347	0.0145139
667.425	0.0146189
667.503	0.0144419
667.581	0.0144909
667.660	0.0144934
667.738	0.0145264
667.816	0.0144712
667.894	0.0144962
667.972	0.0144401
668.050	0.0144904
668.128	0.0144988
668.206	0.0144930
668.285	0.0145261
668.363	0.0145303
668.441	0.0146022
668.519	0.0144855
668.597	0.0145322
668.675	0.0144599
668.753	0.0145678
668.831	0.0145679
668.910	0.0145564
668.988	0.0146365
669.066	0.0144117
669.144	0.0145598
669.222	0.0144238
669.300	0.0144592
669.378	0.0144350
669.456	0.0144885
669.535	0.0144746
669.613	0.0144747
669.691	0.0143714
669.769	0.0143858
669.847	0.0144588
669.925	0.0144063
670.003	0.0145923
670.081	0.0145069
670.160	0.0144320
670.238	0.0144825
670.316	0.0143513
670.394	0.0143792
670.472	0.0143584
670.550	0.0144527
670.628	0.0144156
670.706	0.0145211
670.785	0.0144181
670.863	0.0143942
670.941	0.0143378
671.019	0.0143815
671.097	0.0144232
671.175	0.0143575
671.253	0.0143499
671.331	0.0144425
671.410	0.0143821
671.488	0.0144374
671.566	0.0143510
671.644	0.0144940
671.722	0.0143833
671.800	0.0144797
671.878	0.0144381
671.956	0.0144066
672.035	0.0144470
672.113	0.0144202
672.191	0.0144486
672.269	0.0143595
672.347	0.0143369
672.425	0.0144635
672.503	0.0144926
672.581	0.0142500
672.660	0.0143991
672.738	0.0144899
672.816	0.0143270
672.894	0.0144062
672.972	0.0143694
673.050	0.0144162
673.128	0.0144361
673.206	0.0145345
673.285	0.0144595
673.363	0.0144552
673.441	0.0144212
673.519	0.0142961
673.597	0.0143713
673.675	0.0144272
673.753	0.0144630
673.831	0.0144266
673.910	0.0144599
673.988	0.0145345
674.066	0.0143747
674.144	0.0144283
674.222	0.0144494
674.300	0.0145020
674.378	0.0144736
674.456	0.0144671
674.535	0.0143570
674.613	0.0143722
674.691	0.0144606
674.769	0.0144506
674.847	0.0143745
674.925	0.0144621
675.003	0.0144997
675.081	0.0145518
675.160	0.0145004
675.238	0.0145063
675.316	0.0144263
675.394	0.0143922
675.472	0.0144408
675.550	0.0145228
675.628	0.0144765
675.706	0.0145181
675.785	0.0145136
675.863	0.0144242
675.941	0.0144813
676.019	0.0144791
676.097	0.0145652
676.175	0.0145457
676.253	0.0145114
676.331	0.0144302
676.410	0.0144535
676.488	0.0144391
676.566	0.0144179
676.644	0.0144229
676.722	0.0144699
676.800	0.0144186
676.878	0.0144194
676.956	0.0144382
677.035	0.0145446
677.113	0.0144235
677.191	0.0143549
677.269	0.0143909
677.347	0.0145318
677.425	0.0145267
677.503	0.0144631
677.581	0.0144283
677.660	0.0144231
677.738	0.0144859
677.816	0.0144144
677.894	0.0145450
677.972	0.0145156
678.050	0.0145213
678.128	0.0144655
678.206	0.0146529
678.285	0.0144988
678.363	0.0146254
678.441	0.0145554
678.519	0.0145766
678.597	0.0145718
678.675	0.0145568
678.753	0.0146373
678.831	0.0146540
678.910	0.0145422
678.988	0.0145272
679.066	0.0146152
679.144	0.0144894
679.222	0.0144443
679.300	0.0145218
679.378	0.0146107
679.456	0.0147342
679.535	0.0146970
679.613	0.0147076
679.691	0.0145910
679.769	0.0146605
679.847	0.0146474
679.925	0.0146806
680.003	0.0146619
680.081	0.0146149
680.160	0.0147781
680.238	0.0146693
680.316	0.0145217
680.394	0.0146772
680.472	0.0146130
680.550	0.0145661
680.628	0.0146845
680.706	0.0148013
680.785	0.0146101
680.863	0.0145947
680.941	0.0146770
681.019	0.0146447
681.097	0.0145818
681.175	0.0146476
681.253	0.0145160
681.331	0.0145286
681.410	0.0144890
681.488	0.0144685
681.566	0.0146073
681.644	0.0146645
681.722	0.0146579
681.800	0.0147637
681.878	0.0146942
681.956	0.0146358
682.035	0.0147196
682.113	0.0147657
682.191	0.0147374
682.269	0.0147005
682.347	0.0147541
682.425	0.0147246
682.503	0.0146639
682.581	0.0146025
682.660	0.0146900
682.738	0.0146874
682.816	0.0144398
682.894	0.0146182
682.972	0.0145078
683.050	0.0144534
683.128	0.0144620
683.206	0.0142567
683.285	0.0144499
683.363	0.0143965
683.441	0.0143892
683.519	0.0144523
683.597	0.0144381
683.675	0.0143306
683.753	0.0143143
683.831	0.0143066
683.910	0.0144054
683.988	0.0145309
684.066	0.0144933
684.144	0.0144478
684.222	0.0144176
684.300	0.0144215
684.378	0.0144965
684.456	0.0144967
684.535	0.0144579
684.613	0.0145152
684.691	0.0146968
684.769	0.0145618
684.847	0.0145334
684.925	0.0144613
685.003	0.0145123
685.081	0.0145667
685.160	0.0146593
685.238	0.0146228
685.316	0.0145834
685.394	0.0145939
685.472	0.0145436
685.550	0.0145686
685.628	0.0144979
685.706	0.0145408
685.785	0.0145015
685.863	0.0145465
685.941	0.0145935
686.019	0.0145107
686.097	0.0144211
686.175	0.0143358
686.253	0.0143626
686.331	0.0143343
686.410	0.0143591
686.488	0.0143324
686.566	0.0142713
686.644	0.0143395
686.722	0.0143791
686.800	0.0143888
686.878	0.0144312
686.956	0.0144398
687.035	0.0144239
687.113	0.0145092
687.191	0.0144329
687.269	0.0144534
687.347	0.0145438
687.425	0.0144562
687.503	0.0145426
687.581	0.0145668
687.660	0.0145847
687.738	0.0144579
687.816	0.0144305
687.894	0.0144669
687.972	0.0143808
688.050	0.0143875
688.128	0.0144681
688.206	0.0144683
688.285	0.0143684
688.363	0.0144080
688.441	0.0145338
688.519	0.0144976
688.597	0.0144028
688.675	0.0144901
688.753	0.0143641
688.831	0.0143975
688.910	0.0144730
688.988	0.0145274
689.066	0.0144821
689.144	0.0145100
689.222	0.0146646
689.300	0.0147095
689.378	0.0147214
689.456	0.0146152
689.535	0.0146786
689.613	0.0145853
689.691	0.0146107
689.769	0.0145668
689.847	0.0145779
689.925	0.0144854
690.003	0.0144626
690.081	0.0143394
690.160	0.0143832
690.238	0.0144752
690.316	0.0142356
690.394	0.0142357
690.472	0.0140807
690.550	0.0141677
690.628	0.0142662
690.706	0.0141517
690.785	0.0141758
690.863	0.0142747
690.941	0.0140929
691.019	0.0141793
691.097	0.0141624
691.175	0.0142567
691.253	0.0142546
691.331	0.0142263
691.410	0.0142395
691.488	0.0142344
691.566	0.0144051
691.644	0.0142991
691.722	0.0144282
691.800	0.0144576
691.878	0.0145055
691.956	0.0145609
692.035	0.0144726
692.113	0.0146393
692.191	0.0146018
692.269	0.0146501
692.347	0.0146705
692.425	0.0146886
692.503	0.0146768
692.581	0.0146684
692.660	0.0145700
692.738	0.0145014
692.816	0.0145649
692.894	0.0145275
692.972	0.0145003
693.050	0.0145765
693.128	0.0146014
693.206	0.0145145
693.285	0.0145563
693.363	0.0146980
693.441	0.0145676
693.519	0.0146682
693.597	0.0144590
693.675	0.0146156
693.753	0.0146236
693.831	0.0145779
693.910	0.0145608
693.988	0.0146628
694.066	0.0147233
694.144	0.0147052
694.222	0.0145123
694.300	0.0145885
694.378	0.0144889
694.456	0.0146166
694.535	0.0145387
694.613	0.0145378
694.691	0.0146031
694.769	0.0144849
694.847	0.0143792
694.925	0.0144850
695.003	0.0143944
695.081	0.0142310
695.160	0.0142738
695.238	0.0142941
695.316	0.0141840
695.394	0.0141541
695.472	0.0141415
695.550	0.0142429
695.628	0.0141620
695.706	0.0142426
695.785	0.0141210
695.863	0.0141669
695.941	0.0142732
696.019	0.0143369
696.097	0.0143771
696.175	0.0144701
696.253	0.0144787
696.331	0.0145009
696.410	0.0144377
696.488	0.0146864
696.566	0.0146105
696.644	0.0146729
696.722	0.0147768
696.800	0.0148579
696.878	0.0149596
696.956	0.0148593
697.035	0.0148128
697.113	0.0148666
697.191	0.0148769
697.269	0.0148074
697.347	0.0146653
697.425	0.0147245
697.503	0.0146109
697.581	0.0144725
697.660	0.0145238
697.738	0.0145696
697.816	0.0143564
697.894	0.0143356
697.972	0.0144479
698.050	0.0143455
698.128	0.0144225
698.206	0.0145927
698.285	0.0145399
698.363	0.0146593
698.441	0.0144559
698.519	0.0145197
698.597	0.0146231
698.675	0.0148248
698.753	0.0148601
698.831	0.0147478
698.910	0.0147160
698.988	0.0146914
699.066	0.0149378
699.144	0.0148164
699.222	0.0147669
699.300	0.0147216
699.378	0.0149351
699.456	0.0148155
699.535	0.0148439
699.613	0.0147880
699.691	0.0149168
699.769	0.0148520
699.847	0.0147230
699.925	0.0149857
700.003	0.0148265
700.081	0.0147247
700.160	0.0147243
700.238	0.0146100
700.316	0.0145462
700.394	0.0144778
700.472	0.0146093
700.550	0.0145796
700.628	0.0144862
700.706	0.0145325
700.785	0.0144286
700.863	0.0144447
700.941	0.0144441
701.019	0.0144289
701.097	0.0143151
701.175	0.0143055
701.253	0.0143875
701.331	0.0143960
701.410	0.0144591
701.488	0.0143456
701.566	0.0143761
701.644	0.0146799
701.722	0.0144736
701.800	0.0144481
701.878	0.0144703
701.956	0.0146245
702.035	0.0146278
702.113	0.0146990
702.191	0.0146695
702.269	0.0147331
702.347	0.0148135
702.425	0.0148677
702.503	0.0147553
702.581	0.0148196
702.660	0.0148361
702.738	0.0148380
702.816	0.0148220
702.894	0.0147759
702.972	0.0146581
703.050	0.0146023
703.128	0.0146405
703.206	0.0145478
703.285	0.0146443
703.363	0.0145914
703.441	0.0144428
703.519	0.0145667
703.597	0.0144559
703.675	0.0145033
703.753	0.0143970
703.831	0.0145079
703.910	0.0148045
703.988	0.0146675
704.066	0.0146348
704.144	0.0147762
704.222	0.0148309
704.300	0.0147163
704.378	0.0147489
704.456	0.0148515
704.535	0.0147762
704.613	0.0148876
704.691	0.0148954
704.769	0.0147416
704.847	0.0148780
704.925	0.0146535
705.003	0.0146337
705.081	0.0144940
705.160	0.0144989
705.238	0.0144109
705.316	0.0144653
705.394	0.0142878
705.472	0.0142946
705.550	0.0144320
705.628	0.0143513
705.706	0.0144907
705.785	0.0145820
705.863	0.0146417
705.941	0.0145302
706.019	0.0147337
706.097	0.0147033
706.175	0.0147102
706.253	0.0148727
706.331	0.0148695
706.410	0.0147498
706.488	0.0145806
706.566	0.0144982
706.644	0.0145004
706.722	0.0145008
706.800	0.0146104
706.878	0.0144423
706.956	0.0143149
707.035	0.0141444
707.113	0.0141995
707.191	0.0141644
707.269	0.0140569
707.347	0.0142670
707.425	0.0140905
707.503	0.0140707
707.581	0.0142966
707.660	0.0142496
707.738	0.0143626
707.816	0.0142782
707.894	0.0143375
707.972	0.0143650
708.050	0.0143471
708.128	0.0144254
708.206	0.0143825
708.285	0.0145038
708.363	0.0146177
708.441	0.0145888
708.519	0.0145910
708.597	0.0146590
708.675	0.0147551
708.753	0.0147255
708.831	0.0146793
708.910	0.0148054
708.988	0.0146262
709.066	0.0146680
709.144	0.0145959
709.222	0.0147161
709.300	0.0146392
709.378	0.0144698
709.456	0.0144489
709.535	0.0144918
709.613	0.0144953
709.691	0.0144349
709.769	0.0143731
709.847	0.0143647
709.925	0.0145016
710.003	0.0143724
710.081	0.0143163
710.160	0.0144424
710.238	0.0145357
710.316	0.0145224
710.394	0.0145640
710.472	0.0144723
710.550	0.0147435
710.628	0.0146336
710.706	0.0147729
710.785	0.0148703
710.863	0.0146555
710.941	0.0147991
711.019	0.0145697
711.097	0.0145192
711.175	0.0145321
711.253	0.0142630
711.331	0.0142371
711.410	0.0142410
711.488	0.0141187
711.566	0.0141462
711.644	0.0141883
711.722	0.0141951
711.800	0.0141859
711.878	0.0143520
711.956	0.0143569
712.035	0.0145194
712.113	0.0146523
712.191	0.0146333
712.269	0.0146680
712.347	0.0146209
712.425	0.0147801
712.503	0.0145231
712.581	0.0145865
712.660	0.0145432
712.738	0.0144255
712.816	0.0144054
712.894	0.0142308
712.972	0.0142705
713.050	0.0141824
713.128	0.0141715
713.206	0.0141888
713.285	0.0139596
713.363	0.0140077
713.441	0.0140408
713.519	0.0140608
713.597	0.0140906
713.675	0.0140782
713.753	0.0141376
713.831	0.0141693
713.910	0.0141477
713.988	0.0143382
714.066	0.0142758
714.144	0.0143784
714.222	0.0142945
714.300	0.0142290
714.378	0.0143359
714.456	0.0141708
714.535	0.0144218
714.613	0.0144925
714.691	0.0143880
714.769	0.0144987
714.847	0.0145206
714.925	0.0147129
715.003	0.0146496
715.081	0.0146684
715.160	0.0147521
715.238	0.0147282
715.316	0.0146362
715.394	0.0146487
715.472	0.0147264
715.550	0.0146382
715.628	0.0144469
715.706	0.0146472
715.785	0.0145399
715.863	0.0144187
715.941	0.0144408
716.019	0.0144939
716.097	0.0145576
716.175	0.0145162
716.253	0.0146032
716.331	0.0145622
716.410	0.0146602
716.488	0.0148117
716.566	0.0148486
716.644	0.0148003
716.722	0.0147327
716.800	0.0149465
716.878	0.0147705
716.956	0.0148634
717.035	0.0148595
717.113	0.0148685
717.191	0.0148643
717.269	0.0146913
717.347	0.0147702
717.425	0.0144749
717.503	0.0145395
717.581	0.0145807
717.660	0.0143175
717.738	0.0142312
717.816	0.0143935
717.894	0.0143764
717.972	0.0145330
718.050	0.0143108
718.128	0.0144917
718.206	0.0145390
718.285	0.0147002
718.363	0.0148979
718.441	0.0147761
718.519	0.0148294
718.597	0.0147855
718.675	0.0147363
718.753	0.0147668
718.831	0.0149397
718.910	0.0146906
718.988	0.0146503
719.066	0.0146494
719.144	0.0145108
719.222	0.0143319
719.300	0.0142956
719.378	0.0140894
719.456	0.0141954
719.535	0.0141533
719.613	0.0138950
719.691	0.0139027
719.769	0.0140353
719.847	0.0140356
719.925	0.0138477
720.003	0.0140926
720.081	0.0141891
720.160	0.0141259
720.238	0.0140804
720.316	0.0142747
720.394	0.0143233
720.472	0.0144122
720.550	0.0142567
720.628	0.0144020
720.706	0.0143851
720.785	0.0144199
720.863	0.0144752
720.941	0.0143760
721.019	0.0143892
721.097	0.0144215
721.175	0.0144483
721.253	0.0145896
721.331	0.0144773
721.410	0.0145939
721.488	0.0144109
721.566	0.0145197
721.644	0.0145354
721.722	0.0145348
721.800	0.0145589
721.878	0.0144850
721.956	0.0145884
722.035	0.0147471
722.113	0.0145212
722.191	0.0145722
722.269	0.0146363
722.347	0.0146748
722.425	0.0147328
722.503	0.0147215
722.581	0.0147983
722.660	0.0148876
722.738	0.0148382
722.816	0.0146456
722.894	0.0148263
722.972	0.0149150
723.050	0.0148804
723.128	0.0147726
723.206	0.0150204
723.285	0.0148720
723.363	0.0147837
723.441	0.0147819
723.519	0.0147375
723.597	0.0147562
723.675	0.0148161
723.753	0.0145638
723.831	0.0145315
723.910	0.0145419
723.988	0.0145839
724.066	0.0145467
724.144	0.0145377
724.222	0.0143482
724.300	0.0143891
724.378	0.0144330
724.456	0.0145203
724.535	0.0145547
724.613	0.0145623
724.691	0.0145377
724.769	0.0144604
724.847	0.0146461
724.925	0.0146192
725.003	0.0146082
725.081	0.0145459
725.160	0.0146512
725.238	0.0147330
725.316	0.0146560
725.394	0.0145708
725.472	0.0144740
725.550	0.0145583
725.628	0.0146022
725.706	0.0144942
725.785	0.0142020
725.863	0.0142053
725.941	0.0142059
726.019	0.0141738
726.097	0.0140753
726.175	0.0140945
726.253	0.0142265
726.331	0.0140432
726.410	0.0140437
726.488	0.0139880
726.566	0.0141844
726.644	0.0141109
726.722	0.0141698
726.800	0.0143201
726.878	0.0144628
726.956	0.0143888
727.035	0.0143357
727.113	0.0144003
727.191	0.0144180
727.269	0.0144966
727.347	0.0144585
727.425	0.0144281
727.503	0.0144391
727.581	0.0144482
727.660	0.0146229
727.738	0.0145466
727.816	0.0145953
727.894	0.0145068
727.972	0.0145760
728.050	0.0146684
728.128	0.0147067
728.206	0.0144627
728.285	0.0146374
728.363	0.0145301
728.441	0.0146198
728.519	0.0148014
728.597	0.0148556
728.675	0.0146552
728.753	0.0147620
728.831	0.0148898
728.910	0.0148338
728.988	0.0149164
729.066	0.0149377
729.144	0.0150400
729.222	0.0150081
729.300	0.0147920
729.378	0.0150599
729.456	0.0151733
729.535	0.0149230
729.613	0.0149012
729.691	0.0148940
729.769	0.0149519
729.847	0.0148740
729.925	0.0147303
730.003	0.0147521
730.081	0.0146250
730.160	0.0145943
730.238	0.0146033
730.316	0.0146775
730.394	0.0144942
730.472	0.0145094
730.550	0.0143163
730.628	0.0144150
730.706	0.0145191
730.785	0.0144018
730.863	0.0144094
730.941	0.0144286
731.019	0.0144695
731.097	0.0144865
731.175	0.0144083
731.253	0.0145806
731.331	0.0144094
731.410	0.0145016
731.488	0.0144226
731.566	0.0143410
731.644	0.0143829
731.722	0.0144385
731.800	0.0144523
731.878	0.0143670
731.956	0.0141135
732.035	0.0143272
732.113	0.0143174
732.191	0.0141784
732.269	0.0142221
732.347	0.0142102
732.425	0.0141113
732.503	0.0140256
732.581	0.0139892
732.660	0.0140768
732.738	0.0140684
732.816	0.0138830
732.894	0.0140844
732.972	0.0140284
733.050	0.0140286
733.128	0.0140195
733.206	0.0142242
733.285	0.0140981
733.363	0.0141219
733.441	0.0142729
733.519	0.0142964
733.597	0.0141451
733.675	0.0143323
733.753	0.0144648
733.831	0.0143807
733.910	0.0143848
733.988	0.0144698
734.066	0.0144144
734.144	0.0144787
734.222	0.0144041
734.300	0.0144176
734.378	0.0144144
734.456	0.0144963
734.535	0.0144136
734.613	0.0144458
734.691	0.0143892
734.769	0.0144915
734.847	0.0146152
734.925	0.0146665
735.003	0.0145242
735.081	0.0146188
735.160	0.0147993
735.238	0.0148561
735.316	0.0148244
735.394	0.0150278
735.472	0.0150836
735.550	0.0150503
735.628	0.0152146
735.706	0.0151800
735.785	0.0151398
735.863	0.0151716
735.941	0.0152060
736.019	0.0151146
736.097	0.0150671
736.175	0.0150622
736.253	0.0149927
736.331	0.0150230
736.410	0.0150666
736.488	0.0148084
736.566	0.0148397
736.644	0.0147568
736.722	0.0147617
736.800	0.0145631
736.878	0.0146228
736.956	0.0145513
737.035	0.0145576
737.113	0.0143996
737.191	0.0144585
737.269	0.0145933
737.347	0.0144239
737.425	0.0146185
737.503	0.0146481
737.581	0.0144337
737.660	0.0143318
737.738	0.0144395
737.816	0.0144318
737.894	0.0144896
737.972	0.0142492
738.050	0.0144079
738.128	0.0143354
738.206	0.0143557
738.285	0.0144329
738.363	0.0142613
738.441	0.0140705
738.519	0.0140651
738.597	0.0141065
738.675	0.0141860
738.753	0.0141759
738.831	0.0141061
738.910	0.0140687
738.988	0.0141479
739.066	0.0142243
739.144	0.0139694
739.222	0.0141402
739.300	0.0141199
739.378	0.0141258
739.456	0.0140447
739.535	0.0142318
739.613	0.0141251
739.691	0.0141648
739.769	0.0141006
739.847	0.0142143
739.925	0.0141355
740.003	0.0141107
740.081	0.0142367
740.160	0.0140701
740.238	0.0141081
740.316	0.0141512
740.394	0.0141594
740.472	0.0142401
740.550	0.0143539
740.628	0.0141757
740.706	0.0142381
740.785	0.0143601
740.863	0.0143406
740.941	0.0142853
741.019	0.0143060
741.097	0.0143628
741.175	0.0144856
741.253	0.0143866
741.331	0.0144641
741.410	0.0145045
741.488	0.0144918
741.566	0.0146040
741.644	0.0145232
741.722	0.0144231
741.800	0.0147141
741.878	0.0146441
741.956	0.0146880
742.035	0.0147860
742.113	0.0148129
742.191	0.0148389
742.269	0.0147900
742.347	0.0150458
742.425	0.0150061
742.503	0.0150495
742.581	0.0150660
742.660	0.0148914
742.738	0.0149758
742.816	0.0148539
742.894	0.0147765
742.972	0.0148696
743.050	0.0146697
743.128	0.0147695
743.206	0.0147640
743.285	0.0145229
743.363	0.0146548
743.441	0.0146532
743.519	0.0145490
743.597	0.0143781
743.675	0.0144396
743.753	0.0144273
743.831	0.0145829
743.910	0.0145171
743.988	0.0143748
744.066	0.0145560
744.144	0.0145281
744.222	0.0143129
744.300	0.0143408
744.378	0.0143140
744.456	0.0143868
744.535	0.0142673
744.613	0.0142886
744.691	0.0141339
744.769	0.0141202
744.847	0.0140372
744.925	0.0140280
745.003	0.0139980
745.081	0.0141540
745.160	0.0140785
745.238	0.0140348
745.316	0.0141371
745.394	0.0140777
745.472	0.0140334
745.550	0.0139872
745.628	0.0140398
745.706	0.0141755
745.785	0.0142707
745.863	0.0142361
745.941	0.0143539
746.019	0.0141666
746.097	0.0143782
746.175	0.0141952
746.253	0.0142770
746.331	0.0141194
746.410	0.0140504
746.488	0.0141434
746.566	0.0142602
746.644	0.0142045
746.722	0.0142287
746.800	0.0142245
746.878	0.0142945
746.956	0.0143478
747.035	0.0144318
747.113	0.0145550
747.191	0.0143784
747.269	0.0144167
747.347	0.0145905
747.425	0.0145494
747.503	0.0146352
747.581	0.0147459
747.660	0.0146117
747.738	0.0145293
747.816	0.0146100
747.894	0.0146711
747.972	0.0146999
748.050	0.0146510
748.128	0.0148460
748.206	0.0148956
748.285	0.0147421
748.363	0.0150163
748.441	0.0149676
748.519	0.0149306
748.597	0.0149615
748.675	0.0148385
748.753	0.0150679
748.831	0.0149463
748.910	0.0149535
748.988	0.0150533
749.066	0.0149353
749.144	0.0149400
749.222	0.0150513
749.300	0.0149473
749.378	0.0147931
749.456	0.0147786
749.535	0.0146304
749.613	0.0148012
749.691	0.0146715
749.769	0.0145269
749.847	0.0146357
749.925	0.0145785
750.003	0.0144480
750.081	0.0146482
750.160	0.0145695
750.238	0.0145238
750.316	0.0146219
750.394	0.0145354
750.472	0.0145895
750.550	0.0145434
750.628	0.0145676
750.706	0.0144630
750.785	0.0144813
750.863	0.0143510
750.941	0.0141915
751.019	0.0142199
751.097	0.0141270
751.175	0.0142021
751.253	0.0140954
751.331	0.0140774
751.410	0.0139896
751.488	0.0139012
751.566	0.0140308
751.644	0.0141068
751.722	0.0140336
751.800	0.0140263
751.878	0.0139976
751.956	0.0140600
752.035	0.0141027
752.113	0.0142118
752.191	0.0141209
752.269	0.0139812
752.347	0.0141176
752.425	0.0140987
752.503	0.0141802
752.581	0.0142120
752.660	0.0142487
752.738	0.0140571
752.816	0.0140849
752.894	0.0142842
752.972	0.0141926
753.050	0.0142168
753.128	0.0142791
753.206	0.0142971
753.285	0.0144594
753.363	0.0145615
753.441	0.0144337
753.519	0.0144904
753.597	0.0145697
753.675	0.0146340
753.753	0.0144440
753.831	0.0144991
753.910	0.0146507
753.988	0.0146771
754.066	0.0146727
754.144	0.0147044
754.222	0.0145339
754.300	0.0145618
754.378	0.0148031
754.456	0.0147174
754.535	0.0145705
754.613	0.0147495
754.691	0.0146819
754.769	0.0148488
754.847	0.0149454
754.925	0.0147273
755.003	0.0148563
755.081	0.0149292
755.160	0.0150171
755.238	0.0149045
755.316	0.0149561
755.394	0.0150115
755.472	0.0149831
755.550	0.0150381
755.628	0.0148253
755.706	0.0149168
755.785	0.0147034
755.863	0.0146886
755.941	0.0146416
756.019	0.0147486
756.097	0.0147932
756.175	0.0145344
756.253	0.0145944
756.331	0.0145432
756.410	0.0146255
756.488	0.0145386
756.566	0.0146077
756.644	0.0146265
756.722	0.0145499
756.800	0.0144456
756.878	0.0145922
756.956	0.0145626
757.035	0.0145789
757.113	0.0144922
757.191	0.0144357
757.269	0.0144765
757.347	0.0144596
757.425	0.0143248
757.503	0.0142869
757.581	0.0142640
757.660	0.0142802
757.738	0.0142945
757.816	0.0142451
757.894	0.0143288
757.972	0.0140278
758.050	0.0141617
758.128	0.0141994
758.206	0.0141542
758.285	0.0140959
758.363	0.0140042
758.441	0.0140147
758.519	0.0141095
758.597	0.0141028
758.675	0.0141341
758.753	0.0141731
758.831	0.0143153
758.910	0.0140376
758.988	0.0140372
759.066	0.0140943
759.144	0.0141646
759.222	0.0143494
759.300	0.0144382
759.378	0.0143594
759.456	0.0143993
759.535	0.0144956
759.613	0.0144671
759.691	0.0145548
759.769	0.0146093
759.847	0.0145369
759.925	0.0147997
760.003	0.0147610
760.081	0.0147740
760.160	0.0147586
760.238	0.0147955
760.316	0.0146749
760.394	0.0147645
760.472	0.0148567
760.550	0.0148607
760.628	0.0148390
760.706	0.0147506
760.785	0.0147124
760.863	0.0148626
760.941	0.0149670
761.019	0.0148842
761.097	0.0149277
761.175	0.0148087
761.253	0.0150378
761.331	0.0150446
761.410	0.0148365
761.488	0.0151301
761.566	0.0149178
761.644	0.0150594
761.722	0.0150645
761.800	0.0150153
761.878	0.0149793
761.956	0.0148870
762.035	0.0148535
762.113	0.0148148
762.191	0.0148732
762.269	0.0149261
762.347	0.0149588
762.425	0.0147459
762.503	0.0148449
762.581	0.0146391
762.660	0.0146881
762.738	0.0147195
762.816	0.0146025
762.894	0.0145201
762.972	0.0145142
763.050	0.0143142
763.128	0.0145289
763.206	0.0145478
763.285	0.0145364
763.363	0.0143919
763.441	0.0144098
763.519	0.0146136
763.597	0.0145058
763.675	0.0145116
763.753	0.0145312
763.831	0.0143454
763.910	0.0143927
763.988	0.0144289
764.066	0.0144589
764.144	0.0144992
764.222	0.0143433
764.300	0.0143558
764.378	0.0143748
764.456	0.0142124
764.535	0.0141046
764.613	0.0140684
764.691	0.0140582
764.769	0.0139963
764.847	0.0139727
764.925	0.0139754
765.003	0.0139902
765.081	0.0138713
765.160	0.0138249
765.238	0.0139577
765.316	0.0139957
765.394	0.0139208
765.472	0.0138972
765.550	0.0140668
765.628	0.0141680
765.706	0.0141589
765.785	0.0140112
765.863	0.0140518
765.941	0.0141084
766.019	0.0141837
766.097	0.0142747
766.175	0.0140559
766.253	0.0141560
766.331	0.0142662
766.410	0.0142473
766.488	0.0141875
766.566	0.0143088
766.644	0.0143204
766.722	0.0143143
766.800	0.0143275
766.878	0.0144495
766.956	0.0144098
767.035	0.0143023
767.113	0.0143435
767.191	0.0144556
767.269	0.0144492
767.347	0.0144544
767.425	0.0145125
767.503	0.0146220
767.581	0.0145252
767.660	0.0146773
767.738	0.0146699
767.816	0.0146448
767.894	0.0147350
767.972	0.0147145
768.050	0.0148279
768.128	0.0147813
768.206	0.0147565
768.285	0.0147073
768.363	0.0147086
768.441	0.0147517
768.519	0.0147388
768.597	0.0146461
768.675	0.0145885
768.753	0.0146483
768.831	0.0146560
768.910	0.0146539
768.988	0.0145687
769.066	0.0147510
769.144	0.0145598
769.222	0.0146701
769.300	0.0144274
769.378	0.0145444
769.456	0.0144932
769.535	0.0144223
769.613	0.0143330
769.691	0.0144001
769.769	0.0143666
769.847	0.0144066
769.925	0.0142577
770.003	0.0143644
770.081	0.0143565
770.160	0.0143035
770.238	0.0144041
770.316	0.0144701
770.394	0.0142616
770.472	0.0144431
770.550	0.0143834
770.628	0.0143305
770.706	0.0143272
770.785	0.0144869
770.863	0.0142344
770.941	0.0143989
771.019	0.0143787
771.097	0.0141605
771.175	0.0141195
771.253	0.0141106
771.331	0.0141247
771.410	0.0141054
771.488	0.0140665
771.566	0.0141702
771.644	0.0142760
771.722	0.0141919
771.800	0.0140804
771.878	0.0141525
771.956	0.0143201
772.035	0.0143509
772.113	0.0142266
772.191	0.0142435
772.269	0.0144394
772.347	0.0143060
772.425	0.0144235
772.503	0.0143698
772.581	0.0143217
772.660	0.0143053
772.738	0.0142983
772.816	0.0144330
772.894	0.0142422
772.972	0.0143200
773.050	0.0144446
773.128	0.0143886
773.206	0.0144745
773.285	0.0143362
773.363	0.0144045
773.441	0.0143625
773.519	0.0143641
773.597	0.0146101
773.675	0.0147746
773.753	0.0147151
773.831	0.0145895
773.910	0.0147425
773.988	0.0147591
774.066	0.0148701
774.144	0.0149882
774.222	0.0149100
774.300	0.0149947
774.378	0.0150878
774.456	0.0150653
774.535	0.0150941
774.613	0.0150085
774.691	0.0149695
774.769	0.0151471
774.847	0.0149979
774.925	0.0149712
775.003	0.0150482
775.081	0.0150414
775.160	0.0147825
775.238	0.0149030
775.316	0.0149517
775.394	0.0149013
775.472	0.0148663
775.550	0.0147916
775.628	0.0148119
775.706	0.0148216
775.785	0.0148349
775.863	0.0147021
775.941	0.0146281
776.019	0.0146617
776.097	0.0144131
776.175	0.0145348
776.253	0.0145733
776.331	0.0144443
776.410	0.0143997
776.488	0.0143128
776.566	0.0145252
776.644	0.0143820
776.722	0.0143324
776.800	0.0143256
776.878	0.0143985
776.956	0.0144608
777.035	0.0143851
777.113	0.0143620
777.191	0.0142599
777.269	0.0143884
777.347	0.0144527
777.425	0.0143409
777.503	0.0142648
777.581	0.0143387
777.660	0.0142815
777.738	0.0143386
777.816	0.0140819
777.894	0.0142207
777.972	0.0144102
778.050	0.0142332
778.128	0.0141780
778.206	0.0143143
778.285	0.0141711
778.363	0.0142534
778.441	0.0142787
778.519	0.0142544
778.597	0.0142979
778.675	0.0145084
778.753	0.0144652
778.831	0.0143815
778.910	0.0145026
778.988	0.0145424
779.066	0.0145572
779.144	0.0145592
779.222	0.0144945
779.300	0.0144854
779.378	0.0144413
779.456	0.0145679
779.535	0.0144962
779.613	0.0144422
779.691	0.0144850
779.769	0.0143494
779.847	0.0145267
779.925	0.0143519
780.003	0.0144131
780.081	0.0144524
780.160	0.0145131
780.238	0.0144742
780.316	0.0145387
780.394	0.0145919
780.472	0.0146414
780.550	0.0148281
780.628	0.0147758
780.706	0.0149765
780.785	0.0148711
780.863	0.0150100
780.941	0.0149323
781.019	0.0149371
781.097	0.0150031
781.175	0.0151028
781.253	0.0151863
781.331	0.0151475
781.410	0.0151085
781.488	0.0150251
781.566	0.0150890
781.644	0.0151244
781.722	0.0150219
781.800	0.0149979
781.878	0.0149409
781.956	0.0149226
782.035	0.0148089
782.113	0.0147926
782.191	0.0146619
782.269	0.0148962
782.347	0.0149004
782.425	0.0146128
782.503	0.0146121
782.581	0.0147112
782.660	0.0143708
782.738	0.0145294
782.816	0.0144006
782.894	0.0143246
782.972	0.0143817
783.050	0.0142774
783.128	0.0142510
783.206	0.0142958
783.285	0.0141427
783.363	0.0143355
783.441	0.0141134
783.519	0.0141836
783.597	0.0143176
783.675	0.0141676
783.753	0.0141673
783.831	0.0142535
783.910	0.0141150
783.988	0.0142474
784.066	0.0142093
784.144	0.0141143
784.222	0.0142614
784.300	0.0142706
784.378	0.0143363
784.456	0.0140903
784.535	0.0141779
784.613	0.0141940
784.691	0.0142092
784.769	0.0141388
784.847	0.0140121
784.925	0.0143208
785.003	0.0142914
785.081	0.0142642
785.160	0.0142465
785.238	0.0142754
785.316	0.0144621
785.394	0.0144675
785.472	0.0144116
785.550	0.0143611
785.628	0.0143836
785.706	0.0145057
785.785	0.0143984
785.863	0.0142977
785.941	0.0144863
786.019	0.0144421
786.097	0.0143755
786.175	0.0143956
786.253	0.0142695
786.331	0.0142824
786.410	0.0142765
786.488	0.0141920
786.566	0.0141636
786.644	0.0143141
786.722	0.0142437
786.800	0.0140723
786.878	0.0142558
786.956	0.0142033
787.035	0.0143272
787.113	0.0143990
787.191	0.0144427
787.269	0.0143582
787.347	0.0144563
787.425	0.0146472
787.503	0.0147645
787.581	0.0146784
787.660	0.0148012
787.738	0.0147453
787.816	0.0148443
787.894	0.0148882
787.972	0.0148221
788.050	0.0149202
788.128	0.0150741
788.206	0.0149674
788.285	0.0149986
788.363	0.0148692
788.441	0.0149856
788.519	0.0150517
788.597	0.0148321
788.675	0.0149914
788.753	0.0150570
788.831	0.0148972
788.910	0.0147666
788.988	0.0146345
789.066	0.0145570
789.144	0.0146609
789.222	0.0146946
789.300	0.0145663
789.378	0.0145744
789.456	0.0144708
789.535	0.0144727
789.613	0.0144196
789.691	0.0142513
789.769	0.0142844
789.847	0.0142985
789.925	0.0141962
790.003	0.0141379
790.081	0.0141394
790.160	0.0140276
790.238	0.0140669
790.316	0.0142342
790.394	0.0141951
790.472	0.0141055
790.550	0.0140875
790.628	0.0140801
790.706	0.0138758
790.785	0.0140530
790.863	0.0139933
790.941	0.0140475
791.019	0.0140997
791.097	0.0140588
791.175	0.0140441
791.253	0.0139053
791.331	0.0140578
791.410	0.0140007
791.488	0.0140646
791.566	0.0139179
791.644	0.0139740
791.722	0.0139043
791.800	0.0139335
791.878	0.0139324
791.956	0.0141129
792.035	0.0142272
792.113	0.0141663
792.191	0.0141410
792.269	0.0142358
792.347	0.0144514
792.425	0.0144083
792.503	0.0143732
792.581	0.0144127
792.660	0.0144192
792.738	0.0143527
792.816	0.0145598
792.894	0.0143084
792.972	0.0143555
793.050	0.0144260
793.128	0.0143460
793.206	0.0143918
793.285	0.0142019
793.363	0.0141574
793.441	0.0142861
793.519	0.0142432
793.597	0.0142643
793.675	0.0142410
793.753	0.0143671
793.831	0.0144527
793.910	0.0144122
793.988	0.0145559
794.066	0.0147385
794.144	0.0146827
794.222	0.0146537
794.300	0.0147948
794.378	0.0148994
794.456	0.0150658
794.535	0.0149739
794.613	0.0150072
794.691	0.0150829
794.769	0.0151633
794.847	0.0152151
794.925	0.0152509
795.003	0.0151427
795.081	0.0151431
795.160	0.0150680
795.238	0.0151971
795.316	0.0153365
795.394	0.0151221
795.472	0.0150529
795.550	0.0150855
795.628	0.0150356
795.706	0.0150858
795.785	0.0149746
795.863	0.0147121
795.941	0.0147375
796.019	0.0149070
796.097	0.0147250
796.175	0.0147881
796.253	0.0146248
796.331	0.0145345
796.410	0.0144729
796.488	0.0144938
796.566	0.0144089
796.644	0.0142969
796.722	0.0142139
796.800	0.0142265
796.878	0.0142400
796.956	0.0140660
797.035	0.0140467
797.113	0.0141698
797.191	0.0140828
797.269	0.0140022
797.347	0.0139217
797.425	0.0140778
797.503	0.0140879
797.581	0.0141322
797.660	0.0140926
797.738	0.0140805
797.816	0.0140384
797.894	0.0140514
797.972	0.0138898
798.050	0.0141640
798.128	0.0141106
798.206	0.0140627
798.285	0.0142604
798.363	0.0142653
798.441	0.0141153
798.519	0.0141022
798.597	0.0140840
798.675	0.0142009
798.753	0.0141462
798.831	0.0144219
798.910	0.0143197
798.988	0.0143269
799.066	0.0144445
799.144	0.0146333
799.222	0.0146818
799.300	0.0145694
799.378	0.0146082
799.456	0.0147184
799.535	0.0146259
799.613	0.0146557
799.691	0.0147004
799.769	0.0146088
799.847	0.0144747
799.925	0.0145191
800.003	0.0146494
800.081	0.0145893
800.160	0.0146819
800.238	0.0145692
800.316	0.0146044
800.394	0.0145956
800.472	0.0146049
800.550	0.0146685
800.628	0.0145782
800.706	0.0145601
800.785	0.0146021
800.863	0.0146572
800.941	0.0146116
801.019	0.0146797
801.097	0.0147505
801.175	0.0148653
801.253	0.0147071
801.331	0.0148254
801.410	0.0148597
801.488	0.0148111
801.566	0.0148766
801.644	0.0149453
801.722	0.0148989
801.800	0.0149992
801.878	0.0148638
801.956	0.0151080
802.035	0.0150313
802.113	0.0150173
802.191	0.0149753
802.269	0.0151247
802.347	0.0150203
802.425	0.0149420
802.503	0.0150436
802.581	0.0149137
802.660	0.0148045
802.738	0.0147403
802.816	0.0148141
802.894	0.0147392
802.972	0.0145212
803.050	0.0146571
803.128	0.0145582
803.206	0.0143425
803.285	0.0144419
803.363	0.0143165
803.441	0.0142728
803.519	0.0143942
803.597	0.0143090
803.675	0.0141814
803.753	0.0142195
803.831	0.0141744
803.910	0.0141763
803.988	0.0140514
804.066	0.0143275
804.144	0.0143581
804.222	0.0144315
804.300	0.0144279
804.378	0.0142015
804.456	0.0144675
804.535	0.0144368
804.613	0.0143488
804.691	0.0143760
804.769	0.0143475
804.847	0.0143105
804.925	0.0141451
805.003	0.0141925
805.081	0.0141535
805.160	0.0140882
805.238	0.0140318
805.316	0.0141207
805.394	0.0141049
805.472	0.0143631
805.550	0.0142325
805.628	0.0142698
805.706	0.0143877
805.785	0.0143966
805.863	0.0142603
805.941	0.0144051
806.019	0.0144814
806.097	0.0143998
806.175	0.0146127
806.253	0.0145872
806.331	0.0145039
806.410	0.0144527
806.488	0.0145880
806.566	0.0145744
806.644	0.0146657
806.722	0.0144074
806.800	0.0144318
806.878	0.0143523
806.956	0.0144083
807.035	0.0144185
807.113	0.0143179
807.191	0.0143774
807.269	0.0143720
807.347	0.0144230
807.425	0.0144727
807.503	0.0145264
807.581	0.0146255
807.660	0.0145650
807.738	0.0144514
807.816	0.0145615
807.894	0.0145370
807.972	0.0146271
808.050	0.0147469
808.128	0.0145657
808.206	0.0147581
808.285	0.0147248
808.363	0.0147216
808.441	0.0147449
808.519	0.0147987
808.597	0.0149497
808.675	0.0148579
808.753	0.0148259
808.831	0.0149622
808.910	0.0149867
808.988	0.0147679
809.066	0.0148616
809.144	0.0147639
809.222	0.0148512
809.300	0.0147102
809.378	0.0147458
809.456	0.0146234
809.535	0.0146012
809.613	0.0146353
809.691	0.0146384
809.769	0.0145060
809.847	0.0145150
809.925	0.0146133
810.003	0.0144991
810.081	0.0144524
810.160	0.0143843
810.238	0.0142860
810.316	0.0142735
810.394	0.0142342
810.472	0.0143268
810.550	0.0141927
810.628	0.0141033
810.706	0.0141407
810.785	0.0140437
810.863	0.0140644
810.941	0.0140477
811.019	0.0140704
811.097	0.0140409
811.175	0.0140647
811.253	0.0140199
811.331	0.0139231
811.410	0.0140424
811.488	0.0139621
811.566	0.0139697
811.644	0.0140718
811.722	0.0140117
811.800	0.0139395
811.878	0.0138509
811.956	0.0140502
812.035	0.0140757
812.113	0.0141607
812.191	0.0139907
812.269	0.0140156
812.347	0.0140056
812.425	0.0140914
812.503	0.0142057
812.581	0.0142477
812.660	0.0142481
812.738	0.0142542
812.816	0.0143597
812.894	0.0144141
812.972	0.0142309
813.050	0.0144638
813.128	0.0145648
813.206	0.0144810
813.285	0.0142521
813.363	0.0142719
813.441	0.0143257
813.519	0.0143438
813.597	0.0143501
813.675	0.0142656
813.753	0.0142639
813.831	0.0141759
813.910	0.0144260
813.988	0.0142747
814.066	0.0143123
814.144	0.0144592
814.222	0.0143826
814.300	0.0143906
814.378	0.0144003
814.456	0.0144643
814.535	0.0145345
814.613	0.0147032
814.691	0.0144233
814.769	0.0144572
814.847	0.0145251
814.925	0.0145983
815.003	0.0147545
815.081	0.0145602
815.160	0.0147316
815.238	0.0147150
815.316	0.0147774
815.394	0.0148209
815.472	0.0149039
815.550	0.0148579
815.628	0.0149010
815.706	0.0149528
815.785	0.0148865
815.863	0.0148599
815.941	0.0148608
816.019	0.0148489
816.097	0.0149477
816.175	0.0148412
816.253	0.0149087
816.331	0.0148341
816.410	0.0148385
816.488	0.0149052
816.566	0.0149049
816.644	0.0147803
816.722	0.0148383
816.800	0.0148241
816.878	0.0146114
816.956	0.0145578
817.035	0.0145723
817.113	0.0147994
817.191	0.0146777
817.269	0.0145679
817.347	0.0145544
817.425	0.0146318
817.503	0.0143886
817.581	0.0142698
817.660	0.0143581
817.738	0.0144726
817.816	0.0142618
817.894	0.0143748
817.972	0.0141222
818.050	0.0143844
818.128	0.0144011
818.206	0.0142821
818.285	0.0142456
818.363	0.0142853
818.441	0.0142445
818.519	0.0143937
818.597	0.0142586
818.675	0.0141835
818.753	0.0140778
818.831	0.0141238
818.910	0.0142938
818.988	0.0142313
819.066	0.0141309
819.144	0.0142709
819.222	0.0141804
819.300	0.0143827
819.378	0.0144230
819.456	0.0143113
819.535	0.0143322
819.613	0.0141789
819.691	0.0143787
819.769	0.0143726
819.847	0.0144533
819.925	0.0145609
820.003	0.0144562
820.081	0.0146652
820.160	0.0145547
820.238	0.0144965
820.316	0.0145648
820.394	0.0146632
820.472	0.0145442
820.550	0.0143847
820.628	0.0143983
820.706	0.0144462
820.785	0.0144140
820.863	0.0144978
820.941	0.0143959
821.019	0.0144998
821.097	0.0144769
821.175	0.0145756
821.253	0.0144752
821.331	0.0145345
821.410	0.0143295
821.488	0.0145618
821.566	0.0145176
821.644	0.0145323
821.722	0.0146656
821.800	0.0146317
821.878	0.0146086
821.956	0.0146461
822.035	0.0147943
822.113	0.0147575
822.191	0.0147636
822.269	0.0148415
822.347	0.0149857
822.425	0.0150062
822.503	0.0148539
822.581	0.0149820
822.660	0.0150240
822.738	0.0151598
822.816	0.0151539
822.894	0.0149969
822.972	0.0152953
823.050	0.0148540
823.128	0.0150659
823.206	0.0150638
823.285	0.0150405
823.363	0.0149709
823.441	0.0150676
823.519	0.0148864
823.597	0.0148262
823.675	0.0148875
823.753	0.0147240
823.831	0.0147581
823.910	0.0146329
823.988	0.0146193
824.066	0.0144234
824.144	0.0144830
824.222	0.0143952
824.300	0.0142345
824.378	0.0142196
824.456	0.0142008
824.535	0.0141892
824.613	0.0141994
824.691	0.0140971
824.769	0.0139870
824.847	0.0141312
824.925	0.0139400
825.003	0.0139282
825.081	0.0139285
825.160	0.0140049
825.238	0.0140822
825.316	0.0140591
825.394	0.0140350
825.472	0.0138271
825.550	0.0140180
825.628	0.0140308
825.706	0.0139376
825.785	0.0139779
825.863	0.0139162
825.941	0.0139314
826.019	0.0140403
826.097	0.0140599
826.175	0.0140537
826.253	0.0141233
826.331	0.0142306
826.410	0.0142427
826.488	0.0143021
826.566	0.0143043
826.644	0.0143089
826.722	0.0142952
826.800	0.0145139
826.878	0.0146741
826.956	0.0146214
827.035	0.0145863
827.113	0.0145358
827.191	0.0147173
827.269	0.0145885
827.347	0.0146497
827.425	0.0146611
827.503	0.0146467
827.581	0.0145740
827.660	0.0146913
827.738	0.0145569
827.816	0.0145557
827.894	0.0147250
827.972	0.0145512
828.050	0.0145609
828.128	0.0144897
828.206	0.0145654
828.285	0.0145558
828.363	0.0146877
828.441	0.0145576
828.519	0.0145613
828.597	0.0146140
828.675	0.0145614
828.753	0.0145604
828.831	0.0146124
828.910	0.0146271
828.988	0.0145346
829.066	0.0145905
829.144	0.0146302
829.222	0.0145004
829.300	0.0145892
829.378	0.0147967
829.456	0.0148816
829.535	0.0148824
829.613	0.0147820
829.691	0.0148141
829.769	0.0149396
829.847	0.0148706
829.925	0.0149556
830.003	0.0149441
830.081	0.0148349
830.160	0.0148071
830.238	0.0148557
830.316	0.0148169
830.394	0.0148808
830.472	0.0148992
830.550	0.0146413
830.628	0.0147022
830.706	0.0148155
830.785	0.0145477
830.863	0.0144633
830.941	0.0144306
831.019	0.0145440
831.097	0.0144955
831.175	0.0144244
831.253	0.0142680
831.331	0.0143475
831.410	0.0143576
831.488	0.0143218
831.566	0.0141479
831.644	0.0141067
831.722	0.0142442
831.800	0.0140842
831.878	0.0141927
831.956	0.0141480
832.035	0.0141015
832.113	0.0140900
832.191	0.0140894
832.269	0.0141405
832.347	0.0141807
832.425	0.0139541
832.503	0.0139664
832.581	0.0141005
832.660	0.0139476
832.738	0.0141328
832.816	0.0141914
832.894	0.0141287
832.972	0.0140470
833.050	0.0142239
833.128	0.0141676
833.206	0.0142065
833.285	0.0141271
833.363	0.0141828
833.441	0.0141363
833.519	0.0142432
833.597	0.0144181
833.675	0.0143898
833.753	0.0143690
833.831	0.0144824
833.910	0.0143758
833.988	0.0144530
834.066	0.0144666
834.144	0.0145897
834.222	0.0145430
834.300	0.0146342
834.378	0.0145231
834.456	0.0144453
834.535	0.0144112
834.613	0.0145188
834.691	0.0144749
834.769	0.0144794
834.847	0.0143040
834.925	0.0143819
835.003	0.0144324
835.081	0.0144656
835.160	0.0143394
835.238	0.0143668
835.316	0.0144678
835.394	0.0143683
835.472	0.0143687
835.550	0.0143469
835.628	0.0144151
835.706	0.0144291
835.785	0.0144630
835.863	0.0144296
835.941	0.0144429
836.019	0.0146199
836.097	0.0144964
836.175	0.0145599
836.253	0.0145322
836.331	0.0147104
836.410	0.0147763
836.488	0.0146809
836.566	0.0147618
836.644	0.0148225
836.722	0.0149136
836.800	0.0149208
836.878	0.0148629
836.956	0.0148229
837.035	0.0149373
837.113	0.0149372
837.191	0.0149805
837.269	0.0150207
837.347	0.0148206
837.425	0.0148203
837.503	0.0147980
837.581	0.0148796
837.660	0.0147194
837.738	0.0146014
837.816	0.0147611
837.894	0.0145934
837.972	0.0145284
838.050	0.0145972
838.128	0.0144847
838.206	0.0145422
838.285	0.0143504
838.363	0.0143723
838.441	0.0143892
838.519	0.0142541
838.597	0.0141916
838.675	0.0142116
838.753	0.0141418
838.831	0.0143141
838.910	0.0143163
838.988	0.0141755
839.066	0.0141054
839.144	0.0141994
839.222	0.0141238
839.300	0.0140941
839.378	0.0142446
839.456	0.0140696
839.535	0.0141119
839.613	0.0141405
839.691	0.0140790
839.769	0.0138856
839.847	0.0140817
839.925	0.0140796
840.003	0.0139782
840.081	0.0139339
840.160	0.0140635
840.238	0.0140631
840.316	0.0139850
840.394	0.0140270
840.472	0.0141519
840.550	0.0141236
840.628	0.0141227
840.706	0.0141367
840.785	0.0141922
840.863	0.0143217
840.941	0.0141488
841.019	0.0145001
841.097	0.0144270
841.175	0.0143667
841.253	0.0143077
841.331	0.0143320
841.410	0.0141676
841.488	0.0143090
841.566	0.0143395
841.644	0.0142274
841.722	0.0143606
841.800	0.0142119
841.878	0.0142254
841.956	0.0143474
842.035	0.0142846
842.113	0.0141061
842.191	0.0140211
842.269	0.0141289
842.347	0.0143719
842.425	0.0142777
842.503	0.0141128
842.581	0.0142654
842.660	0.0141984
842.738	0.0141291
842.816	0.0143391
842.894	0.0142920
842.972	0.0141854
843.050	0.0143169
843.128	0.0142657
843.206	0.0144367
843.285	0.0144337
843.363	0.0146378
843.441	0.0144963
843.519	0.0146577
843.597	0.0147669
843.675	0.0147810
843.753	0.0147236
843.831	0.0148017
843.910	0.0149175
843.988	0.0149474
844.066	0.0151473
844.144	0.0149939
844.222	0.0149343
844.300	0.0149839
844.378	0.0150414
844.456	0.0150368
844.535	0.0150288
844.613	0.0150304
844.691	0.0148595
844.769	0.0148675
844.847	0.0147610
844.925	0.0148689
845.003	0.0147623
845.081	0.0146770
845.160	0.0148797
845.238	0.0147956
845.316	0.0146754
845.394	0.0146487
845.472	0.0144637
845.550	0.0145983
845.628	0.0145582
845.706	0.0143565
845.785	0.0143850
845.863	0.0143620
845.941	0.0143686
846.019	0.0143703
846.097	0.0144136
846.175	0.0144009
846.253	0.0142019
846.331	0.0141639
846.410	0.0141187
846.488	0.0142004
846.566	0.0142693
846.644	0.0141788
846.722	0.0142513
846.800	0.0140397
846.878	0.0140522
846.956	0.0141522
847.035	0.0140363
847.113	0.0141164
847.191	0.0141941
847.269	0.0141441
847.347	0.0141150
847.425	0.0142212
847.503	0.0142368
847.581	0.0141812
847.660	0.0142924
847.738	0.0143222
847.816	0.0142838
847.894	0.0142203
847.972	0.0143945
848.050	0.0144781
848.128	0.0144090
848.206	0.0144090
848.285	0.0143975
848.363	0.0144691
848.441	0.0145676
848.519	0.0144208
848.597	0.0142973
848.675	0.0144604
848.753	0.0142899
848.831	0.0142652
848.910	0.0142381
848.988	0.0142925
849.066	0.0142622
849.144	0.0142419
849.222	0.0144025
849.300	0.0144650
849.378	0.0142611
849.456	0.0142707
849.535	0.0142571
849.613	0.0142625
849.691	0.0141932
849.769	0.0142030
849.847	0.0142705
849.925	0.0143683
850.003	0.0143885
850.081	0.0142822
850.160	0.0144371
850.238	0.0145325
850.316	0.0145682
850.394	0.0147463
850.472	0.0146478
850.550	0.0146783
850.628	0.0148731
850.706	0.0149249
850.785	0.0149583
850.863	0.0150033
850.941	0.0149936
851.019	0.0151642
851.097	0.0152327
851.175	0.0151155
851.253	0.0152973
851.331	0.0152006
851.410	0.0151432
851.488	0.0153205
851.566	0.0150512
851.644	0.0151170
851.722	0.0150206
851.800	0.0150541
851.878	0.0151228
851.956	0.0150159
852.035	0.0148348
852.113	0.0150478
852.191	0.0148551
852.269	0.0147990
852.347	0.0148185
852.425	0.0147218
852.503	0.0146939
852.581	0.0147372
852.660	0.0146474
852.738	0.0146619
852.816	0.0146322
852.894	0.0146366
852.972	0.0144974
853.050	0.0145202
853.128	0.0144727
853.206	0.0143513
853.285	0.0145572
853.363	0.0143410
853.441	0.0142588
853.519	0.0143235
853.597	0.0142192
853.675	0.0143003
853.753	0.0143237
853.831	0.0140881
853.910	0.0141613
853.988	0.0141859
854.066	0.0141750
854.144	0.0142860
854.222	0.0142381
854.300	0.0141059
854.378	0.0140942
854.456	0.0142999
854.535	0.0141334
854.613	0.0142000
854.691	0.0142072
854.769	0.0143736
854.847	0.0142960
854.925	0.0142903
855.003	0.0143550
855.081	0.0143253
855.160	0.0143068
855.238	0.0143419
855.316	0.0144862
855.394	0.0143575
855.472	0.0143956
855.550	0.0145555
855.628	0.0143851
855.706	0.0142583
855.785	0.0142236
855.863	0.0141784
855.941	0.0143142
856.019	0.0142170
856.097	0.0142722
856.175	0.0141659
856.253	0.0141848
856.331	0.0140779
856.410	0.0140992
856.488	0.0141431
856.566	0.0139601
856.644	0.0142419
856.722	0.0143605
856.800	0.0142906
856.878	0.0143327
856.956	0.0144039
857.035	0.0144492
857.113	0.0142323
857.191	0.0143649
857.269	0.0144875
857.347	0.0147087
857.425	0.0147898
857.503	0.0146951
857.581	0.0147777
857.660	0.0149445
857.738	0.0149343
857.816	0.0150686
857.894	0.0151755
857.972	0.0152591
858.050	0.0151657
858.128	0.0151624
858.206	0.0151372
858.285	0.0151894
858.363	0.0151398
858.441	0.0151215
858.519	0.0152021
858.597	0.0151959
858.675	0.0150485
858.753	0.0151094
858.831	0.0152078
858.910	0.0149805
858.988	0.0150406
859.066	0.0149989
859.144	0.0149677
859.222	0.0149947
859.300	0.0147925
859.378	0.0148280
859.456	0.0148009
859.535	0.0147655
859.613	0.0147151
859.691	0.0146164
859.769	0.0144936
859.847	0.0144998
859.925	0.0145364
860.003	0.0143785
860.081	0.0143434
860.160	0.0143459
860.238	0.0142332
860.316	0.0143148
860.394	0.0140466
860.472	0.0141254
860.550	0.0141414
860.628	0.0139566
860.706	0.0139837
860.785	0.0140240
860.863	0.0138316
860.941	0.0138303
861.019	0.0139902
861.097	0.0139196
861.175	0.0138958
861.253	0.0138525
861.331	0.0139178
861.410	0.0139828
861.488	0.0140141
861.566	0.0140060
861.644	0.0140633
861.722	0.0140013
861.800	0.0140196
861.878	0.0140249
861.956	0.0139831
862.035	0.0138997
862.113	0.0140952
862.191	0.0140097
862.269	0.0140148
862.347	0.0141471
862.425	0.0141364
862.503	0.0140823
862.581	0.0142180
862.660	0.0141583
862.738	0.0142022
862.816	0.0140954
862.894	0.0141108
862.972	0.0142196
863.050	0.0141718
863.128	0.0141750
863.206	0.0142039
863.285	0.0140827
863.363	0.0142252
863.441	0.0142133
863.519	0.0142947
863.597	0.0144347
863.675	0.0144983
863.753	0.0143239
863.831	0.0144623
863.910	0.0143911
863.988	0.0144508
864.066	0.0145322
864.144	0.0145186
864.222	0.0145469
864.300	0.0146519
864.378	0.0145493
864.456	0.0146471
864.535	0.0147736
864.613	0.0148692
864.691	0.0146903
864.769	0.0149947
864.847	0.0150215
864.925	0.0150256
865.003	0.0150414
865.081	0.0150443
865.160	0.0150873
865.238	0.0152021
865.316	0.0151641
865.394	0.0150851
865.472	0.0149918
865.550	0.0149543
865.628	0.0149966
865.706	0.0149818
865.785	0.0149393
865.863	0.0149690
865.941	0.0150207
866.019	0.0148639
866.097	0.0147272
866.175	0.0146421
866.253	0.0147266
866.331	0.0147308
866.410	0.0146259
866.488	0.0146730
866.566	0.0145609
866.644	0.0144395
866.722	0.0144042
866.800	0.0144738
866.878	0.0143433
866.956	0.0143343
867.035	0.0141604
867.113	0.0141804
867.191	0.0142178
867.269	0.0143360
867.347	0.0141349
867.425	0.0140916
867.503	0.0140936
867.581	0.0142554
867.660	0.0141943
867.738	0.0140113
867.816	0.0141422
867.894	0.0140190
867.972	0.0139899
868.050	0.0139381
868.128	0.0138703
868.206	0.0138229
868.285	0.0139523
868.363	0.0139845
868.441	0.0137430
868.519	0.0138662
868.597	0.0138428
868.675	0.0139435
868.753	0.0140615
868.831	0.0139881
868.910	0.0139830
868.988	0.0139350
869.066	0.0141103
869.144	0.0141915
869.222	0.0141284
869.300	0.0141359
869.378	0.0141608
869.456	0.0142798
869.535	0.0142628
869.613	0.0143694
869.691	0.0142810
869.769	0.0143022
869.847	0.0143663
869.925	0.0144936
870.003	0.0143226
870.081	0.0143101
870.160	0.0142896
870.238	0.0143292
870.316	0.0142951
870.394	0.0144345
870.472	0.0143888
870.550	0.0142916
870.628	0.0144001
870.706	0.0144241
870.785	0.0144877
870.863	0.0144429
870.941	0.0144086
871.019	0.0145766
871.097	0.0145692
871.175	0.0145980
871.253	0.0146791
871.331	0.0146934
871.410	0.0146780
871.488	0.0147227
871.566	0.0146906
871.644	0.0148972
871.722	0.0149399
871.800	0.0148808
871.878	0.0148224
871.956	0.0148991
872.035	0.0149121
872.113	0.0149351
872.191	0.0148685
872.269	0.0149733
872.347	0.0149417
872.425	0.0148990
872.503	0.0150397
872.581	0.0149990
872.660	0.0150478
872.738	0.0148554
872.816	0.0148896
872.894	0.0149750
872.972	0.0149727
873.050	0.0147960
873.128	0.0148755
873.206	0.0148933
873.285	0.0147933
873.363	0.0148681
873.441	0.0148438
873.519	0.0146714
873.597	0.0147079
873.675	0.0147215
873.753	0.0148000
873.831	0.0145007
873.910	0.0146885
873.988	0.0145679
874.066	0.0144598
874.144	0.0145368
874.222	0.0143917
874.300	0.0143599
874.378	0.0142707
874.456	0.0144255
874.535	0.0144584
874.613	0.0142655
874.691	0.0142528
874.769	0.0141630
874.847	0.0140579
874.925	0.0141503
875.003	0.0141203
875.081	0.0141618
875.160	0.0141380
875.238	0.0140318
875.316	0.0141129
875.394	0.0143232
875.472	0.0141383
875.550	0.0142783
875.628	0.0141734
875.706	0.0142474
875.785	0.0141425
875.863	0.0142553
875.941	0.0144793
876.019	0.0142394
876.097	0.0142825
876.175	0.0143313
876.253	0.0142615
876.331	0.0143377
876.410	0.0143897
876.488	0.0144537
876.566	0.0143772
876.644	0.0144733
876.722	0.0145174
876.800	0.0143601
876.878	0.0144552
876.956	0.0144366
877.035	0.0144240
877.113	0.0144987
877.191	0.0145235
877.269	0.0145101
877.347	0.0144840
877.425	0.0144255
877.503	0.0146777
877.581	0.0145537
877.660	0.0144986
877.738	0.0145975
877.816	0.0147205
877.894	0.0145586
877.972	0.0146551
878.050	0.0148868
878.128	0.0147672
878.206	0.0145190
878.285	0.0146741
878.363	0.0147598
878.441	0.0146159
878.519	0.0146265
878.597	0.0146561
878.675	0.0147136
878.753	0.0148435
878.831	0.0148735
878.910	0.0147964
878.988	0.0149975
879.066	0.0149260
879.144	0.0149034
879.222	0.0149809
879.300	0.0149881
879.378	0.0149734
879.456	0.0151064
879.535	0.0148849
879.613	0.0149495
879.691	0.0150393
879.769	0.0149049
879.847	0.0151259
879.925	0.0149817
880.003	0.0150263
880.081	0.0150369
880.160	0.0148941
880.238	0.0149188
880.316	0.0149834
880.394	0.0147880
880.472	0.0147627
880.550	0.0148666
880.628	0.0148935
880.706	0.0146504
880.785	0.0145885
880.863	0.0146504
880.941	0.0145228
881.019	0.0145432
881.097	0.0144666
881.175	0.0143900
881.253	0.0143116
881.331	0.0144278
881.410	0.0143797
881.488	0.0143080
881.566	0.0143642
881.644	0.0141994
881.722	0.0140688
881.800	0.0142367
881.878	0.0142939
881.956	0.0141859
882.035	0.0140460
882.113	0.0139991
882.191	0.0141425
882.269	0.0141161
882.347	0.0141521
882.425	0.0139541
882.503	0.0139750
882.581	0.0141743
882.660	0.0141906
882.738	0.0140884
882.816	0.0140459
882.894	0.0141583
882.972	0.0140729
883.050	0.0141177
883.128	0.0142003
883.206	0.0141300
883.285	0.0141135
883.363	0.0141742
883.441	0.0140950
883.519	0.0142429
883.597	0.0145184
883.675	0.0143539
883.753	0.0142441
883.831	0.0142529
883.910	0.0141948
883.988	0.0143941
884.066	0.0143821
884.144	0.0142603
884.222	0.0144143
884.300	0.0143291
884.378	0.0144057
884.456	0.0143767
884.535	0.0144302
884.613	0.0143882
884.691	0.0144201
884.769	0.0145437
884.847	0.0144238
884.925	0.0146024
885.003	0.0144130
885.081	0.0145628
885.160	0.0145316
885.238	0.0144662
885.316	0.0144961
885.394	0.0146114
885.472	0.0146158
885.550	0.0144514
885.628	0.0144990
885.706	0.0145867
885.785	0.0145391
885.863	0.0146537
885.941	0.0146236
886.019	0.0146990
886.097	0.0149036
886.175	0.0149123
886.253	0.0148146
886.331	0.0148180
886.410	0.0148446
886.488	0.0150665
886.566	0.0150110
886.644	0.0149323
886.722	0.0150092
886.800	0.0149965
886.878	0.0150689
886.956	0.0149207
887.035	0.0148796
887.113	0.0149162
887.191	0.0149780
887.269	0.0148232
887.347	0.0148111
887.425	0.0148357
887.503	0.0148494
887.581	0.0148447
887.660	0.0146913
887.738	0.0146224
887.816	0.0145370
887.894	0.0145747
887.972	0.0144178
888.050	0.0145909
888.128	0.0144862
888.206	0.0143534
888.285	0.0142742
888.363	0.0142353
888.441	0.0142309
888.519	0.0141127
888.597	0.0141551
888.675	0.0141357
888.753	0.0141779
888.831	0.0141582
888.910	0.0141589
888.988	0.0140083
889.066	0.0143297
889.144	0.0142406
889.222	0.0141215
889.300	0.0141646
889.378	0.0139412
889.456	0.0140487
889.535	0.0140764
889.613	0.0141433
889.691	0.0140044
889.769	0.0139640
889.847	0.0142110
889.925	0.0140127
890.003	0.0140321
890.081	0.0141055
890.160	0.0140649
890.238	0.0140684
890.316	0.0141115
890.394	0.0140497
890.472	0.0140797
890.550	0.0142462
890.628	0.0142992
890.706	0.0143121
890.785	0.0142683
890.863	0.0144187
890.941	0.0144601
891.019	0.0144434
891.097	0.0143628
891.175	0.0144307
891.253	0.0144207
891.331	0.0144971
891.410	0.0145079
891.488	0.0144662
891.566	0.0144238
891.644	0.0145453
891.722	0.0144275
891.800	0.0145240
891.878	0.0144005
891.956	0.0143828
892.035	0.0144877
892.113	0.0145316
892.191	0.0146220
892.269	0.0143971
892.347	0.0144837
892.425	0.0143005
892.503	0.0144742
892.581	0.0144616
892.660	0.0145574
892.738	0.0145493
892.816	0.0146059
892.894	0.0145709
892.972	0.0146370
893.050	0.0146309
893.128	0.0146319
893.206	0.0145522
893.285	0.0146657
893.363	0.0148457
893.441	0.0148230
893.519	0.0148802
893.597	0.0148297
893.675	0.0149232
893.753	0.0150021
893.831	0.0148537
893.910	0.0147643
893.988	0.0148490
894.066	0.0148222
894.144	0.0147272
894.222	0.0146552
894.300	0.0147867
894.378	0.0146336
894.456	0.0146274
894.535	0.0145794
894.613	0.0145783
894.691	0.0145078
894.769	0.0144914
894.847	0.0145553
894.925	0.0143671
895.003	0.0143385
895.081	0.0141779
895.160	0.0143228
895.238	0.0144805
895.316	0.0143337
895.394	0.0142862
895.472	0.0144096
895.550	0.0141735
895.628	0.0142957
895.706	0.0143283
895.785	0.0142436
895.863	0.0141418
895.941	0.0142190
896.019	0.0142336
896.097	0.0142043
896.175	0.0142471
896.253	0.0141983
896.331	0.0142609
896.410	0.0141745
896.488	0.0140985
896.566	0.0140473
896.644	0.0141768
896.722	0.0142132
896.800	0.0141954
896.878	0.0142439
896.956	0.0140940
897.035	0.0142200
897.113	0.0142576
897.191	0.0142226
897.269	0.0142451
897.347	0.0143919
897.425	0.0143576
897.503	0.0143388
897.581	0.0143842
897.660	0.0144425
897.738	0.0145385
897.816	0.0144860
897.894	0.0144772
897.972	0.0147064
898.050	0.0146548
898.128	0.0145930
898.206	0.0144999
898.285	0.0146384
898.363	0.0147822
898.441	0.0145899
898.519	0.0146610
898.597	0.0145963
898.675	0.0146392
898.753	0.0147502
898.831	0.0147160
898.910	0.0146682
898.988	0.0147308
899.066	0.0145157
899.144	0.0146229
899.222	0.0144461
899.300	0.0145535
899.378	0.0145627
899.456	0.0145409
899.535	0.0144528
899.613	0.0144062
899.691	0.0143500
899.769	0.0145394
899.847	0.0145322
899.925	0.0145439
900.003	0.0145539
900.081	0.0146207
900.160	0.0145764
900.238	0.0146745
900.316	0.0147570
900.394	0.0146674
900.472	0.0147168
900.550	0.0148363
900.628	0.0148283
900.706	0.0148254
900.785	0.0148932
900.863	0.0147993
900.941	0.0147247
901.019	0.0148504
901.097	0.0148949
901.175	0.0146550
901.253	0.0146558
901.331	0.0145581
901.410	0.0146991
901.488	0.0147328
901.566	0.0146011
901.644	0.0144571
901.722	0.0145423
901.800	0.0145329
901.878	0.0145112
901.956	0.0144969
902.035	0.0144611
902.113	0.0144124
902.191	0.0145040
902.269	0.0144578
902.347	0.0144088
902.425	0.0142831
902.503	0.0142319
902.581	0.0143329
902.660	0.0142329
902.738	0.0142986
902.816	0.0142256
902.894	0.0142991
902.972	0.0142574
903.050	0.0143114
903.128	0.0143690
903.206	0.0144365
903.285	0.0142582
903.363	0.0142905
903.441	0.0141821
903.519	0.0142448
903.597	0.0142943
903.675	0.0141685
903.753	0.0141380
903.831	0.0140887
903.910	0.0141959
903.988	0.0142931
904.066	0.0141948
904.144	0.0141006
904.222	0.0143825
904.300	0.0141161
904.378	0.0142104
904.456	0.0142668
904.535	0.0143402
904.613	0.0144357
904.691	0.0144383
904.769	0.0145590
904.847	0.0144791
904.925	0.0146080
905.003	0.0145769
905.081	0.0146846
905.160	0.0147032
905.238	0.0147159
905.316	0.0147346
905.394	0.0148373
905.472	0.0148592
905.550	0.0146869
905.628	0.0149162
905.706	0.0147113
905.785	0.0147920
905.863	0.0147722
905.941	0.0147785
906.019	0.0148129
906.097	0.0149254
906.175	0.0147549
906.253	0.0147550
906.331	0.0149545
906.410	0.0146786
906.488	0.0147794
906.566	0.0147897
906.644	0.0148390
906.722	0.0148784
906.800	0.0147601
906.878	0.0148281
906.956	0.0148382
907.035	0.0148460
907.113	0.0147574
907.191	0.0146516
907.269	0.0148036
907.347	0.0146670
907.425	0.0146909
907.503	0.0147502
907.581	0.0150282
907.660	0.0147100
907.738	0.0147596
907.816	0.0148956
907.894	0.0149087
907.972	0.0148351
908.050	0.0149436
908.128	0.0148009
908.206	0.0147809
908.285	0.0147652
908.363	0.0147896
908.441	0.0147639
908.519	0.0148763
908.597	0.0146913
908.675	0.0146887
908.753	0.0144749
908.831	0.0145602
908.910	0.0145360
908.988	0.0145628
909.066	0.0145549
909.144	0.0144315
909.222	0.0143970
909.300	0.0142619
909.378	0.0143780
909.456	0.0142024
909.535	0.0142668
909.613	0.0142416
909.691	0.0141567
909.769	0.0143171
909.847	0.0141714
909.925	0.0141261
910.003	0.0141257
910.081	0.0141608
910.160	0.0139381
910.238	0.0139586
910.316	0.0141643
910.394	0.0141130
910.472	0.0140765
910.550	0.0138485
910.628	0.0141389
910.706	0.0140982
910.785	0.0139832
910.863	0.0139897
910.941	0.0139719
911.019	0.0139890
911.097	0.0140512
911.175	0.0141245
911.253	0.0141325
911.331	0.0142162
911.410	0.0142535
911.488	0.0141010
911.566	0.0141835
911.644	0.0142755
911.722	0.0143562
911.800	0.0143172
911.878	0.0143039
911.956	0.0142815
912.035	0.0143311
912.113	0.0143246
912.191	0.0142636
912.269	0.0145953
912.347	0.0145370
912.425	0.0144788
912.503	0.0145316
912.581	0.0146796
912.660	0.0147978
912.738	0.0146904
912.816	0.0147179
912.894	0.0147656
912.972	0.0148233
913.050	0.0147356
913.128	0.0147847
913.206	0.0146709
913.285	0.0146962
913.363	0.0146577
913.441	0.0146395
913.519	0.0145442
913.597	0.0145124
913.675	0.0145546
913.753	0.0144917
913.831	0.0144336
913.910	0.0144356
913.988	0.0145346
914.066	0.0145153
914.144	0.0146512
914.222	0.0144002
914.300	0.0145408
914.378	0.0146091
914.456	0.0146044
914.535	0.0145286
914.613	0.0146045
914.691	0.0147069
914.769	0.0147008
914.847	0.0146165
914.925	0.0146120
915.003	0.0146479
915.081	0.0146976
915.160	0.0147741
915.238	0.0146695
915.316	0.0145903
915.394	0.0145591
915.472	0.0146053
915.550	0.0146235
915.628	0.0146275
915.706	0.0145328
915.785	0.0144715
915.863	0.0143243
915.941	0.0144646
916.019	0.0145050
916.097	0.0143437
916.175	0.0143331
916.253	0.0144970
916.331	0.0143609
916.410	0.0142094
916.488	0.0143288
916.566	0.0141313
916.644	0.0142456
916.722	0.0143760
916.800	0.0142611
916.878	0.0142307
916.956	0.0142592
917.035	0.0141955
917.113	0.0142909
917.191	0.0142976
917.269	0.0144513
917.347	0.0142484
917.425	0.0141378
917.503	0.0141967
917.581	0.0142457
917.660	0.0142693
917.738	0.0143259
917.816	0.0142669
917.894	0.0142762
917.972	0.0142654
918.050	0.0143942
918.128	0.0143468
918.206	0.0144296
918.285	0.0145055
918.363	0.0144360
918.441	0.0143625
918.519	0.0144384
918.597	0.0145573
918.675	0.0143253
918.753	0.0144930
918.831	0.0144609
918.910	0.0143962
918.988	0.0143234
919.066	0.0143262
919.144	0.0144915
919.222	0.0145551
919.300	0.0144906
919.378	0.0144819
919.456	0.0146181
919.535	0.0146406
919.613	0.0146544
919.691	0.0145559
919.769	0.0146899
919.847	0.0146181
919.925	0.0146969
920.003	0.0146403
920.081	0.0146093
920.160	0.0146194
920.238	0.0145992
920.316	0.0144696
920.394	0.0145143
920.472	0.0142931
920.550	0.0144038
920.628	0.0144769
920.706	0.0144345
920.785	0.0142820
920.863	0.0142798
920.941	0.0142645
921.019	0.0142543
921.097	0.0143907
921.175	0.0142806
921.253	0.0143015
921.331	0.0142162
921.410	0.0142593
921.488	0.0142624
921.566	0.0144719
921.644	0.0142290
921.722	0.0145184
921.800	0.0145125
921.878	0.0145966
921.956	0.0146130
922.035	0.0145130
922.113	0.0145856
922.191	0.0145130
922.269	0.0147614
922.347	0.0146240
922.425	0.0147211
922.503	0.0147177
922.581	0.0146975
922.660	0.0148682
922.738	0.0146613
922.816	0.0148035
922.894	0.0146024
922.972	0.0146210
923.050	0.0147520
923.128	0.0147108
923.206	0.0146772
923.285	0.0145831
923.363	0.0145539
923.441	0.0146722
923.519	0.0145924
923.597	0.0145348
923.675	0.0145122
923.753	0.0146075
923.831	0.0144786
923.910	0.0144871
923.988	0.0144521
924.066	0.0144650
924.144	0.0144704
924.222	0.0144130
924.300	0.0144927
924.378	0.0144140
924.456	0.0144453
924.535	0.0144163
924.613	0.0143185
924.691	0.0143387
924.769	0.0143518
924.847	0.0142983
924.925	0.0144384
925.003	0.0144824
925.081	0.0143208
925.160	0.0143364
925.238	0.0144291
925.316	0.0143805
925.394	0.0144421
925.472	0.0143398
925.550	0.0143595
925.628	0.0143409
925.706	0.0142929
925.785	0.0143398
925.863	0.0143454
925.941	0.0143441
926.019	0.0145190
926.097	0.0145010
926.175	0.0144003
926.253	0.0144484
926.331	0.0144524
926.410	0.0144062
926.488	0.0143657
926.566	0.0145019
926.644	0.0146214
926.722	0.0147282
926.800	0.0145709
926.878	0.0146446
926.956	0.0146883
927.035	0.0146014
927.113	0.0145640
927.191	0.0146323
927.269	0.0145524
927.347	0.0146968
927.425	0.0145422
927.503	0.0146170
927.581	0.0144701
927.660	0.0144179
927.738	0.0145415
927.816	0.0144464
927.894	0.0144819
927.972	0.0144582
928.050	0.0143446
928.128	0.0145934
928.206	0.0145083
928.285	0.0145148
928.363	0.0144216
928.441	0.0145240
928.519	0.0144698
928.597	0.0146374
928.675	0.0145296
928.753	0.0144913
928.831	0.0145821
928.910	0.0146161
928.988	0.0146798
929.066	0.0146448
929.144	0.0146083
929.222	0.0147187
929.300	0.0147224
929.378	0.0148157
929.456	0.0148579
929.535	0.0146412
929.613	0.0146886
929.691	0.0146265
929.769	0.0147851
929.847	0.0148220
929.925	0.0146214
930.003	0.0147543
930.081	0.0146624
930.160	0.0145864
930.238	0.0145428
930.316	0.0146077
930.394	0.0145913
930.472	0.0144991
930.550	0.0144941
930.628	0.0145946
930.706	0.0145412
930.785	0.0144391
930.863	0.0145412
930.941	0.0145381
931.019	0.0146188
931.097	0.0145448
931.175	0.0144000
931.253	0.0145268
931.331	0.0146294
931.410	0.0145477
931.488	0.0144678
931.566	0.0144519
931.644	0.0145686
931.722	0.0145232
931.800	0.0143460
931.878	0.0144884
931.956	0.0144838
932.035	0.0144965
932.113	0.0144129
932.191	0.0142956
932.269	0.0143750
932.347	0.0143332
932.425	0.0143407
932.503	0.0143538
932.581	0.0144372
932.660	0.0143771
932.738	0.0144079
932.816	0.0143919
932.894	0.0144015
932.972	0.0144939
933.050	0.0144035
933.128	0.0144496
933.206	0.0143427
933.285	0.0143974
933.363	0.0144653
933.441	0.0144427
933.519	0.0143935
933.597	0.0144802
933.675	0.0146284
933.753	0.0144925
933.831	0.0144693
933.910	0.0145485
933.988	0.0146098
934.066	0.0145435
934.144	0.0146756
934.222	0.0146382
934.300	0.0144268
934.378	0.0144621
934.456	0.0145919
934.535	0.0145384
934.613	0.0145013
934.691	0.0144969
934.769	0.0144354
934.847	0.0143596
934.925	0.0144405
935.003	0.0142660
935.081	0.0143293
935.160	0.0143633
935.238	0.0144591
935.316	0.0144367
935.394	0.0145322
935.472	0.0143878
935.550	0.0143923
935.628	0.0144347
935.706	0.0144488
935.785	0.0144854
935.863	0.0145777
935.941	0.0144504
936.019	0.0144837
936.097	0.0145080
936.175	0.0143848
936.253	0.0143290
936.331	0.0143166
936.410	0.0142569
936.488	0.0144775
936.566	0.0144636
936.644	0.0143890
936.722	0.0144796
936.800	0.0144154
936.878	0.0144715
936.956	0.0145289
937.035	0.0146626
937.113	0.0145979
937.191	0.0146783
937.269	0.0145165
937.347	0.0145505
937.425	0.0144961
937.503	0.0146233
937.581	0.0145838
937.660	0.0145490
937.738	0.0145288
937.816	0.0147368
937.894	0.0146252
937.972	0.0146541
938.050	0.0145222
938.128	0.0146167
938.206	0.0146532
938.285	0.0145093
938.363	0.0145956
938.441	0.0144785
938.519	0.0145806
938.597	0.0145881
938.675	0.0144780
938.753	0.0144219
938.831	0.0145010
938.910	0.0144364
938.988	0.0145392
939.066	0.0145906
939.144	0.0144382
939.222	0.0144384
939.300	0.0144421
939.378	0.0143403
939.456	0.0145876
939.535	0.0144497
939.613	0.0143934
939.691	0.0142992
939.769	0.0145001
939.847	0.0143850
939.925	0.0144494
940.003	0.0144141
940.081	0.0143199
940.160	0.0144927
940.238	0.0143866
940.316	0.0143756
940.394	0.0144154
940.472	0.0144266
940.550	0.0143712
940.628	0.0143358
940.706	0.0144798
940.785	0.0144579
940.863	0.0144130
940.941	0.0145036
941.019	0.0142817
941.097	0.0143319
941.175	0.0145192
941.253	0.0145370
941.331	0.0144569
941.410	0.0144473
941.488	0.0145528
941.566	0.0144776
941.644	0.0143851
941.722	0.0143905
941.800	0.0144612
941.878	0.0144060
941.956	0.0144476
942.035	0.0145256
942.113	0.0143623
942.191	0.0144660
942.269	0.0143146
942.347	0.0143855
942.425	0.0144544
942.503	0.0143793
942.581	0.0142844
942.660	0.0144343
942.738	0.0143803
942.816	0.0143165
942.894	0.0142820
942.972	0.0143521
943.050	0.0144057
943.128	0.0144186
943.206	0.0144662
943.285	0.0143958
943.363	0.0145647
943.441	0.0146566
943.519	0.0144197
943.597	0.0144791
943.675	0.0145554
943.753	0.0146507
943.831	0.0146259
943.910	0.0145792
943.988	0.0146391
944.066	0.0148658
944.144	0.0146057
944.222	0.0147528
944.300	0.0147980
944.378	0.0147921
944.456	0.0148344
944.535	0.0146690
944.613	0.0146761
944.691	0.0146628
944.769	0.0147002
944.847	0.0145462
944.925	0.0143967
945.003	0.0145705
945.081	0.0147267
945.160	0.0145770
945.238	0.0145400
945.316	0.0145570
945.394	0.0145027
945.472	0.0145246
945.550	0.0144543
945.628	0.0144170
945.706	0.0145193
945.785	0.0144747
945.863	0.0143942
945.941	0.0144663
946.019	0.0146881
946.097	0.0144140
946.175	0.0144907
946.253	0.0143983
946.331	0.0144120
946.410	0.0145396
946.488	0.0144180
946.566	0.0144200
946.644	0.0145433
946.722	0.0144654
946.800	0.0143328
946.878	0.0143907
946.956	0.0145568
947.035	0.0145110
947.113	0.0144182
947.191	0.0143663
947.269	0.0144446
947.347	0.0144056
947.425	0.0143806
947.503	0.0144323
947.581	0.0142935
947.660	0.0143929
947.738	0.0143475
947.816	0.0145271
947.894	0.0145418
947.972	0.0144390
948.050	0.0144799
948.128	0.0144752
948.206	0.0145183
948.285	0.0146808
948.363	0.0144846
948.441	0.0146032
948.519	0.0145940
948.597	0.0145969
948.675	0.0146148
948.753	0.0146900
948.831	0.0146478
948.910	0.0146112
948.988	0.0145967
949.066	0.0144453
949.144	0.0145107
949.222	0.0146295
949.300	0.0145612
949.378	0.0144381
949.456	0.0143977
949.535	0.0146397
949.613	0.0146835
949.691	0.0145518
949.769	0.0145702
949.847	0.0146550
949.925	0.0147952
950.003	0.0145648
950.081	0.0146315
950.160	0.0147353
950.238	0.0147814
950.316	0.0146524
950.394	0.0147600
950.472	0.0148789
950.550	0.0147118
950.628	0.0146752
950.706	0.0147706
950.785	0.0148611
950.863	0.0148801
950.941	0.0148278
951.019	0.0147872
951.097	0.0146988
951.175	0.0147417
951.253	0.0146945
951.331	0.0147829
951.410	0.0147984
951.488	0.0147510
951.566	0.0147832
951.644	0.0146754
951.722	0.0146740
951.800	0.0148385
951.878	0.0146458
951.956	0.0146844
952.035	0.0144873
952.113	0.0147469
952.191	0.0146178
952.269	0.0145873
952.347	0.0144312
952.425	0.0146420
952.503	0.0144383
952.581	0.0145341
952.660	0.0146942
952.738	0.0147028
952.816	0.0146889
952.894	0.0144945
952.972	0.0145039
953.050	0.0144195
953.128	0.0146042
953.206	0.0145346
953.285	0.0145119
953.363	0.0144070
953.441	0.0144931
953.519	0.0145004
953.597	0.0145729
953.675	0.0144786
953.753	0.0145421
953.831	0.0144771
953.910	0.0143540
953.988	0.0144497
954.066	0.0143159
954.144	0.0144933
954.222	0.0143696
954.300	0.0142700
954.378	0.0145332
954.456	0.0145745
954.535	0.0143479
954.613	0.0143929
954.691	0.0144379
954.769	0.0144106
954.847	0.0144106
954.925	0.0144660
955.003	0.0144529
955.081	0.0144157
955.160	0.0144809
955.238	0.0144348
955.316	0.0145457
955.394	0.0144125
955.472	0.0144714
955.550	0.0144741
955.628	0.0144981
955.706	0.0142973
955.785	0.0145297
955.863	0.0146345
955.941	0.0144826
956.019	0.0144290
956.097	0.0145498
956.175	0.0145313
956.253	0.0144299
956.331	0.0143361
956.410	0.0143776
956.488	0.0142609
956.566	0.0143382
956.644	0.0144386
956.722	0.0144273
956.800	0.0142924
956.878	0.0143713
956.956	0.0142444
957.035	0.0143911
957.113	0.0143400
957.191	0.0143270
957.269	0.0142735
957.347	0.0144466
957.425	0.0142793
957.503	0.0142955
957.581	0.0143820
957.660	0.0145015
957.738	0.0144756
957.816	0.0145009
957.894	0.0144464
957.972	0.0145164
958.050	0.0144416
958.128	0.0144167
958.206	0.0145177
958.285	0.0144772
958.363	0.0145052
958.441	0.0145031
958.519	0.0145673
958.597	0.0146248
958.675	0.0146343
958.753	0.0146738
958.831	0.0147095
958.910	0.0146233
958.988	0.0145837
959.066	0.0146356
959.144	0.0146326
959.222	0.0147100
959.300	0.0144869
959.378	0.0144945
959.456	0.0147295
959.535	0.0145097
959.613	0.0144533
959.691	0.0146529
959.769	0.0147353
959.847	0.0146163
959.925	0.0145435
960.003	0.0147292
960.081	0.0146433
960.160	0.0146452
960.238	0.0145294
960.316	0.0145058
960.394	0.0145704
960.472	0.0145947
960.550	0.0145771
960.628	0.0145820
960.706	0.0146416
960.785	0.0146307
960.863	0.0146582
960.941	0.0147600
961.019	0.0147240
961.097	0.0146661
961.175	0.0147701
961.253	0.0146408
961.331	0.0146684
961.410	0.0146638
961.488	0.0146883
961.566	0.0147027
961.644	0.0147222
961.722	0.0146777
961.800	0.0145160
961.878	0.0146609
961.956	0.0146272
962.035	0.0145837
962.113	0.0145267
962.191	0.0144044
962.269	0.0145916
962.347	0.0144991
962.425	0.0144099
962.503	0.0145048
962.581	0.0144109
962.660	0.0143420
962.738	0.0142735
962.816	0.0144121
962.894	0.0144544
962.972	0.0143031
963.050	0.0143689
963.128	0.0144899
963.206	0.0143270
963.285	0.0143270
963.363	0.0142857
963.441	0.0143890
963.519	0.0144371
963.597	0.0143286
963.675	0.0142220
963.753	0.0142056
963.831	0.0140678
963.910	0.0140752
963.988	0.0140669
964.066	0.0140913
964.144	0.0141212
964.222	0.0139787
964.300	0.0139856
964.378	0.0138834
964.456	0.0139317
964.535	0.0138786
964.613	0.0139510
964.691	0.0140310
964.769	0.0139685
964.847	0.0140753
964.925	0.0140238
965.003	0.0139557
965.081	0.0140965
965.160	0.0140874
965.238	0.0140721
965.316	0.0142631
965.394	0.0142942
965.472	0.0143194
965.550	0.0144842
965.628	0.0145092
965.706	0.0144021
965.785	0.0144861
965.863	0.0145920
965.941	0.0144950
966.019	0.0145846
966.097	0.0145447
966.175	0.0145872
966.253	0.0147785
966.331	0.0146824
966.410	0.0146449
966.488	0.0146411
966.566	0.0147632
966.644	0.0149111
966.722	0.0147027
966.800	0.0146390
966.878	0.0148431
966.956	0.0146929
967.035	0.0147305
967.113	0.0147980
967.191	0.0148399
967.269	0.0147494
967.347	0.0146920
967.425	0.0147101
967.503	0.0147771
967.581	0.0146723
967.660	0.0147739
967.738	0.0146583
967.816	0.0146610
967.894	0.0147340
967.972	0.0147818
968.050	0.0147651
968.128	0.0147060
968.206	0.0147626
968.285	0.0146796
968.363	0.0146404
968.441	0.0147450
968.519	0.0145660
968.597	0.0144791
968.675	0.0146758
968.753	0.0145768
968.831	0.0145943
968.910	0.0145063
968.988	0.0144608
969.066	0.0144835
969.144	0.0145082
969.222	0.0145264
969.300	0.0144821
969.378	0.0145459
969.456	0.0145075
969.535	0.0144777
969.613	0.0144423
969.691	0.0142686
969.769	0.0142620
969.847	0.0145149
969.925	0.0144137
970.003	0.0143593
970.081	0.0144196
970.160	0.0143825
970.238	0.0143700
970.316	0.0144831
970.394	0.0144588
970.472	0.0144524
970.550	0.0144626
970.628	0.0146292
970.706	0.0145837
970.785	0.0145489
970.863	0.0145457
970.941	0.0145173
971.019	0.0145899
971.097	0.0144907
971.175	0.0144573
971.253	0.0145909
971.331	0.0145706
971.410	0.0145544
971.488	0.0145787
971.566	0.0145503
971.644	0.0144431
971.722	0.0144823
971.800	0.0143810
971.878	0.0145316
971.956	0.0145434
972.035	0.0145455
972.113	0.0144153
972.191	0.0148240
972.269	0.0147533
972.347	0.0146603
972.425	0.0146040
972.503	0.0146001
972.581	0.0146761
972.660	0.0148206
972.738	0.0147512
972.816	0.0147210
972.894	0.0148396
972.972	0.0148129
973.050	0.0147869
973.128	0.0148520
973.206	0.0147803
973.285	0.0146435
973.363	0.0146638
973.441	0.0146204
973.519	0.0146391
973.597	0.0146543
973.675	0.0147176
973.753	0.0146114
973.831	0.0146470
973.910	0.0145845
973.988	0.0146008
974.066	0.0146091
974.144	0.0146478
974.222	0.0145946
974.300	0.0144862
974.378	0.0145470
974.456	0.0146609
974.535	0.0145303
974.613	0.0146164
974.691	0.0146101
974.769	0.0146465
974.847	0.0145544
974.925	0.0147578
975.003	0.0147001
975.081	0.0146024
975.160	0.0145382
975.238	0.0146768
975.316	0.0145669
975.394	0.0145977
975.472	0.0145727
975.550	0.0144960
975.628	0.0145345
975.706	0.0145878
975.785	0.0144093
975.863	0.0143752
975.941	0.0144236
976.019	0.0145827
976.097	0.0143948
976.175	0.0143691
976.253	0.0143857
976.331	0.0144022
976.410	0.0144081
976.488	0.0143365
976.566	0.0143487
976.644	0.0144685
976.722	0.0144003
976.800	0.0144101
976.878	0.0143638
976.956	0.0143493
977.035	0.0144563
977.113	0.0144602
977.191	0.0145145
977.269	0.0143626
977.347	0.0145720
977.425	0.0146621
977.503	0.0145499
977.581	0.0145994
977.660	0.0145827
977.738	0.0144633
977.816	0.0144978
977.894	0.0146517
977.972	0.0146490
978.050	0.0145955
978.128	0.0145873
978.206	0.0145544
978.285	0.0145224
978.363	0.0146427
978.441	0.0145367
978.519	0.0144292
978.597	0.0143831
978.675	0.0145280
978.753	0.0143546
978.831	0.0144508
978.910	0.0144021
978.988	0.0143342
979.066	0.0142660
979.144	0.0142977
979.222	0.0142668
979.300	0.0141630
979.378	0.0143747
979.456	0.0144749
979.535	0.0143587
979.613	0.0143945
979.691	0.0144078
979.769	0.0143356
979.847	0.0144991
979.925	0.0145408
