05/03/2022	20:40:08	Ver.	4.1	UNKNOWN
Optical Delay	660.003261	Delta X		0.078125	Sweeps	1	Scan Rate	0/0
Coordinates	Axis 1	NaN	Axis 2	NaN	Axis 3	NaN	Axis 4	NaN	Axis 5	NaN	Axis 6	0.000000
TX Power	0.000000	RX Power	0.000000

660.003	0.0140635
660.081	0.0141161
660.160	0.0141438
660.238	0.0141469
660.316	0.0140523
660.394	0.0140709
660.472	0.0139944
660.550	0.0140733
660.628	0.0141997
660.706	0.0140994
660.785	0.0141022
660.863	0.0141817
660.941	0.0140922
661.019	0.0140894
661.097	0.0140968
661.175	0.0139769
661.253	0.0140644
661.331	0.0140934
661.410	0.0140746
661.488	0.0141427
661.566	0.0141528
661.644	0.0140434
661.722	0.0140776
661.800	0.0141867
661.878	0.0141187
661.956	0.0141732
662.035	0.0141758
662.113	0.0140653
662.191	0.0139861
662.269	0.0141284
662.347	0.0143275
662.425	0.0142211
662.503	0.0140210
662.581	0.0140752
662.660	0.0139880
662.738	0.0141348
662.816	0.0142739
662.894	0.0141541
662.972	0.0141635
663.050	0.0141399
663.128	0.0140721
663.206	0.0141695
663.285	0.0142287
663.363	0.0143176
663.441	0.0140195
663.519	0.0140511
663.597	0.0141788
663.675	0.0140643
663.753	0.0142622
663.831	0.0142628
663.910	0.0141291
663.988	0.0142960
664.066	0.0141519
664.144	0.0141762
664.222	0.0142094
664.300	0.0142264
664.378	0.0141448
664.456	0.0141179
664.535	0.0142117
664.613	0.0141481
664.691	0.0141438
664.769	0.0141445
664.847	0.0142285
664.925	0.0142496
665.003	0.0142529
665.081	0.0141990
665.160	0.0143190
665.238	0.0142679
665.316	0.0142888
665.394	0.0142793
665.472	0.0143365
665.550	0.0142259
665.628	0.0142605
665.706	0.0143163
665.785	0.0143484
665.863	0.0142708
665.941	0.0141949
666.019	0.0143069
666.097	0.0144247
666.175	0.0142111
666.253	0.0141843
666.331	0.0143277
666.410	0.0143411
666.488	0.0142580
666.566	0.0142702
666.644	0.0141116
666.722	0.0141088
666.800	0.0142909
666.878	0.0142217
666.956	0.0142255
667.035	0.0140867
667.113	0.0140963
667.191	0.0141716
667.269	0.0141087
667.347	0.0142834
667.425	0.0143031
667.503	0.0142470
667.581	0.0141292
667.660	0.0143327
667.738	0.0141892
667.816	0.0142561
667.894	0.0142596
667.972	0.0142712
668.050	0.0143475
668.128	0.0142729
668.206	0.0141851
668.285	0.0141919
668.363	0.0142928
668.441	0.0143075
668.519	0.0142524
668.597	0.0144452
668.675	0.0142904
668.753	0.0142729
668.831	0.0142384
668.910	0.0142126
668.988	0.0141693
669.066	0.0142735
669.144	0.0143092
669.222	0.0141344
669.300	0.0142194
669.378	0.0139399
669.456	0.0140764
669.535	0.0141386
669.613	0.0142828
669.691	0.0141123
669.769	0.0141908
669.847	0.0142620
669.925	0.0141824
670.003	0.0141098
670.081	0.0140552
670.160	0.0142268
670.238	0.0140965
670.316	0.0140574
670.394	0.0141342
670.472	0.0141161
670.550	0.0140992
670.628	0.0140428
670.706	0.0139395
670.785	0.0140418
670.863	0.0141571
670.941	0.0140034
671.019	0.0141213
671.097	0.0140421
671.175	0.0141309
671.253	0.0140590
671.331	0.0139731
671.410	0.0140444
671.488	0.0139896
671.566	0.0140807
671.644	0.0140133
671.722	0.0140437
671.800	0.0142173
671.878	0.0140822
671.956	0.0140635
672.035	0.0140622
672.113	0.0140959
672.191	0.0141268
672.269	0.0140711
672.347	0.0139951
672.425	0.0139814
672.503	0.0139220
672.581	0.0140820
672.660	0.0138545
672.738	0.0139481
672.816	0.0140864
672.894	0.0139669
672.972	0.0139912
673.050	0.0139502
673.128	0.0140679
673.206	0.0140364
673.285	0.0140267
673.363	0.0139429
673.441	0.0140646
673.519	0.0140556
673.597	0.0140808
673.675	0.0141326
673.753	0.0140421
673.831	0.0140002
673.910	0.0139791
673.988	0.0140059
674.066	0.0138960
674.144	0.0138964
674.222	0.0140888
674.300	0.0141650
674.378	0.0138753
674.456	0.0140045
674.535	0.0141343
674.613	0.0140215
674.691	0.0139178
674.769	0.0139941
674.847	0.0139161
674.925	0.0139973
675.003	0.0140347
675.081	0.0139636
675.160	0.0140446
675.238	0.0140913
675.316	0.0139377
675.394	0.0140446
675.472	0.0140371
675.550	0.0140391
675.628	0.0139902
675.706	0.0139182
675.785	0.0141141
675.863	0.0140369
675.941	0.0139989
676.019	0.0140173
676.097	0.0139429
676.175	0.0140440
676.253	0.0141395
676.331	0.0140533
676.410	0.0141360
676.488	0.0141069
676.566	0.0141351
676.644	0.0140998
676.722	0.0141373
676.800	0.0140546
676.878	0.0139356
676.956	0.0140355
677.035	0.0141118
677.113	0.0140469
677.191	0.0140054
677.269	0.0140127
677.347	0.0141196
677.425	0.0141354
677.503	0.0139577
677.581	0.0140554
677.660	0.0140864
677.738	0.0141480
677.816	0.0140483
677.894	0.0140629
677.972	0.0140648
678.050	0.0140225
678.128	0.0141599
678.206	0.0140977
678.285	0.0140698
678.363	0.0140797
678.441	0.0140340
678.519	0.0140543
678.597	0.0139647
678.675	0.0140219
678.753	0.0140162
678.831	0.0141122
678.910	0.0140665
678.988	0.0140214
679.066	0.0140416
679.144	0.0139983
679.222	0.0140809
679.300	0.0140074
679.378	0.0140119
679.456	0.0139556
679.535	0.0139789
679.613	0.0139291
679.691	0.0140231
679.769	0.0138202
679.847	0.0140580
679.925	0.0140635
680.003	0.0139780
680.081	0.0140224
680.160	0.0141181
680.238	0.0140337
680.316	0.0139215
680.394	0.0139413
680.472	0.0140092
680.550	0.0141162
680.628	0.0141145
680.706	0.0141103
680.785	0.0140874
680.863	0.0141482
680.941	0.0140421
681.019	0.0142239
681.097	0.0140472
681.175	0.0141109
681.253	0.0140665
681.331	0.0141695
681.410	0.0140702
681.488	0.0140743
681.566	0.0140771
681.644	0.0140833
681.722	0.0140132
681.800	0.0140036
681.878	0.0139442
681.956	0.0140142
682.035	0.0139984
682.113	0.0141222
682.191	0.0140166
682.269	0.0140387
682.347	0.0139974
682.425	0.0139680
682.503	0.0139223
682.581	0.0139111
682.660	0.0139535
682.738	0.0142402
682.816	0.0140120
682.894	0.0140095
682.972	0.0140853
683.050	0.0140528
683.128	0.0141694
683.206	0.0142330
683.285	0.0142170
683.363	0.0142068
683.441	0.0140961
683.519	0.0141874
683.597	0.0141957
683.675	0.0143143
683.753	0.0142888
683.831	0.0142366
683.910	0.0143024
683.988	0.0142111
684.066	0.0141756
684.144	0.0142734
684.222	0.0142002
684.300	0.0141330
684.378	0.0141486
684.456	0.0141480
684.535	0.0143074
684.613	0.0142061
684.691	0.0143120
684.769	0.0142956
684.847	0.0143079
684.925	0.0143396
685.003	0.0143050
685.081	0.0142386
685.160	0.0144195
685.238	0.0143227
685.316	0.0144511
685.394	0.0144052
685.472	0.0143028
685.550	0.0142709
685.628	0.0143433
685.706	0.0142768
685.785	0.0142098
685.863	0.0141958
685.941	0.0141343
686.019	0.0142539
686.097	0.0141814
686.175	0.0141740
686.253	0.0142001
686.331	0.0141054
686.410	0.0142731
686.488	0.0141660
686.566	0.0142358
686.644	0.0142352
686.722	0.0141832
686.800	0.0141637
686.878	0.0141996
686.956	0.0142004
687.035	0.0141884
687.113	0.0142320
687.191	0.0142321
687.269	0.0142440
687.347	0.0142277
687.425	0.0143729
687.503	0.0142491
687.581	0.0142824
687.660	0.0142827
687.738	0.0141795
687.816	0.0142615
687.894	0.0143123
687.972	0.0143630
688.050	0.0143375
688.128	0.0142541
688.206	0.0142760
688.285	0.0143581
688.363	0.0144288
688.441	0.0143732
688.519	0.0142242
688.597	0.0142614
688.675	0.0143285
688.753	0.0142286
688.831	0.0144125
688.910	0.0144103
688.988	0.0143749
689.066	0.0143672
689.144	0.0142216
689.222	0.0143883
689.300	0.0142565
689.378	0.0143899
689.456	0.0143343
689.535	0.0143867
689.613	0.0142444
689.691	0.0143484
689.769	0.0143328
689.847	0.0142928
689.925	0.0142928
690.003	0.0142162
690.081	0.0142088
690.160	0.0144323
690.238	0.0142905
690.316	0.0142677
690.394	0.0141515
690.472	0.0141697
690.550	0.0141823
690.628	0.0140367
690.706	0.0141613
690.785	0.0140365
690.863	0.0140989
690.941	0.0140984
691.019	0.0140497
691.097	0.0139371
691.175	0.0139041
691.253	0.0139692
691.331	0.0139384
691.410	0.0140511
691.488	0.0140129
691.566	0.0140741
691.644	0.0140509
691.722	0.0140165
691.800	0.0140127
691.878	0.0138997
691.956	0.0139946
692.035	0.0141872
692.113	0.0141548
692.191	0.0142858
692.269	0.0142779
692.347	0.0143456
692.425	0.0143108
692.503	0.0141954
692.581	0.0141206
692.660	0.0142426
692.738	0.0143578
692.816	0.0141567
692.894	0.0142500
692.972	0.0141864
693.050	0.0142725
693.128	0.0141355
693.206	0.0141251
693.285	0.0141808
693.363	0.0139420
693.441	0.0138552
693.519	0.0140307
693.597	0.0140546
693.675	0.0139868
693.753	0.0139074
693.831	0.0138515
693.910	0.0139877
693.988	0.0140942
694.066	0.0141513
694.144	0.0139676
694.222	0.0140374
694.300	0.0141292
694.378	0.0140030
694.456	0.0139955
694.535	0.0140562
694.613	0.0141146
694.691	0.0141299
694.769	0.0140655
694.847	0.0141488
694.925	0.0140292
695.003	0.0141228
695.081	0.0140989
695.160	0.0141288
695.238	0.0139693
695.316	0.0141611
695.394	0.0142323
695.472	0.0141409
695.550	0.0141041
695.628	0.0141627
695.706	0.0140651
695.785	0.0141720
695.863	0.0141615
695.941	0.0141181
696.019	0.0139602
696.097	0.0139988
696.175	0.0141443
696.253	0.0140085
696.331	0.0141672
696.410	0.0139657
696.488	0.0138607
696.566	0.0138777
696.644	0.0139616
696.722	0.0139079
696.800	0.0138108
696.878	0.0137845
696.956	0.0138014
697.035	0.0139234
697.113	0.0137175
697.191	0.0138757
697.269	0.0138785
697.347	0.0139833
697.425	0.0139275
697.503	0.0140405
697.581	0.0138587
697.660	0.0140704
697.738	0.0140695
697.816	0.0141251
697.894	0.0142786
697.972	0.0140720
698.050	0.0141811
698.128	0.0141654
698.206	0.0142118
698.285	0.0142433
698.363	0.0141064
698.441	0.0140721
698.519	0.0142045
698.597	0.0141867
698.675	0.0139593
698.753	0.0139333
698.831	0.0139860
698.910	0.0139500
698.988	0.0139243
699.066	0.0138776
699.144	0.0138599
699.222	0.0138648
699.300	0.0139019
699.378	0.0138025
699.456	0.0139217
699.535	0.0139378
699.613	0.0140535
699.691	0.0139281
699.769	0.0139796
699.847	0.0139725
699.925	0.0140977
700.003	0.0140174
700.081	0.0140227
700.160	0.0142420
700.238	0.0143121
700.316	0.0142677
700.394	0.0142158
700.472	0.0142464
700.550	0.0142970
700.628	0.0142175
700.706	0.0140929
700.785	0.0141151
700.863	0.0140715
700.941	0.0138605
701.019	0.0139689
701.097	0.0138392
701.175	0.0137811
701.253	0.0138803
701.331	0.0137896
701.410	0.0139418
701.488	0.0138600
701.566	0.0138532
701.644	0.0139364
701.722	0.0140346
701.800	0.0141569
701.878	0.0139645
701.956	0.0139726
702.035	0.0141654
702.113	0.0142016
702.191	0.0141129
702.269	0.0142236
702.347	0.0141884
702.425	0.0141286
702.503	0.0139870
702.581	0.0141026
702.660	0.0141552
702.738	0.0141473
702.816	0.0139589
702.894	0.0138668
702.972	0.0138389
703.050	0.0139902
703.128	0.0139494
703.206	0.0139722
703.285	0.0140220
703.363	0.0139167
703.441	0.0141545
703.519	0.0141257
703.597	0.0141169
703.675	0.0141211
703.753	0.0142104
703.831	0.0141864
703.910	0.0141186
703.988	0.0140268
704.066	0.0140501
704.144	0.0142587
704.222	0.0141685
704.300	0.0140582
704.378	0.0141190
704.456	0.0141843
704.535	0.0141589
704.613	0.0140743
704.691	0.0141255
704.769	0.0141053
704.847	0.0140656
704.925	0.0142001
705.003	0.0142145
705.081	0.0142487
705.160	0.0142955
705.238	0.0141766
705.316	0.0143237
705.394	0.0141354
705.472	0.0142823
705.550	0.0141718
705.628	0.0142082
705.706	0.0142410
705.785	0.0142035
705.863	0.0141504
705.941	0.0142020
706.019	0.0142332
706.097	0.0141969
706.175	0.0142605
706.253	0.0143544
706.331	0.0142189
706.410	0.0142424
706.488	0.0142197
706.566	0.0142624
706.644	0.0142882
706.722	0.0142545
706.800	0.0142220
706.878	0.0141611
706.956	0.0143069
707.035	0.0140474
707.113	0.0141366
707.191	0.0141739
707.269	0.0140662
707.347	0.0139400
707.425	0.0139899
707.503	0.0140242
707.581	0.0141103
707.660	0.0141088
707.738	0.0141135
707.816	0.0142097
707.894	0.0142815
707.972	0.0143784
708.050	0.0142345
708.128	0.0144341
708.206	0.0145036
708.285	0.0143849
708.363	0.0143416
708.441	0.0142808
708.519	0.0141576
708.597	0.0141096
708.675	0.0141111
708.753	0.0138929
708.831	0.0140323
708.910	0.0139333
708.988	0.0138930
709.066	0.0140025
709.144	0.0138824
709.222	0.0140145
709.300	0.0140194
709.378	0.0140942
709.456	0.0140489
709.535	0.0139035
709.613	0.0140354
709.691	0.0140529
709.769	0.0140067
709.847	0.0141015
709.925	0.0141394
710.003	0.0141509
710.081	0.0140041
710.160	0.0139996
710.238	0.0141558
710.316	0.0140729
710.394	0.0140623
710.472	0.0141983
710.550	0.0142069
710.628	0.0141483
710.706	0.0141594
710.785	0.0141784
710.863	0.0143219
710.941	0.0143611
711.019	0.0141566
711.097	0.0142677
711.175	0.0142693
711.253	0.0143317
711.331	0.0142967
711.410	0.0142881
711.488	0.0142619
711.566	0.0141948
711.644	0.0142684
711.722	0.0142363
711.800	0.0142767
711.878	0.0142237
711.956	0.0141670
712.035	0.0141793
712.113	0.0141862
712.191	0.0141847
712.269	0.0143890
712.347	0.0142249
712.425	0.0141746
712.503	0.0143805
712.581	0.0143618
712.660	0.0144230
712.738	0.0143732
712.816	0.0143845
712.894	0.0143894
712.972	0.0144579
713.050	0.0144288
713.128	0.0144157
713.206	0.0143375
713.285	0.0142543
713.363	0.0143665
713.441	0.0142318
713.519	0.0140676
713.597	0.0140190
713.675	0.0140863
713.753	0.0140710
713.831	0.0140669
713.910	0.0139457
713.988	0.0141483
714.066	0.0139028
714.144	0.0140768
714.222	0.0141415
714.300	0.0142443
714.378	0.0142155
714.456	0.0142310
714.535	0.0142520
714.613	0.0141160
714.691	0.0141922
714.769	0.0143252
714.847	0.0142801
714.925	0.0141529
715.003	0.0140965
715.081	0.0140506
715.160	0.0138920
715.238	0.0138821
715.316	0.0137363
715.394	0.0137846
715.472	0.0136287
715.550	0.0135937
715.628	0.0137894
715.706	0.0139545
715.785	0.0137360
715.863	0.0136905
715.941	0.0138562
716.019	0.0139233
716.097	0.0139350
716.175	0.0140278
716.253	0.0140016
716.331	0.0140298
716.410	0.0139072
716.488	0.0138802
716.566	0.0138433
716.644	0.0139587
716.722	0.0138687
716.800	0.0138159
716.878	0.0140170
716.956	0.0138800
717.035	0.0137788
717.113	0.0138971
717.191	0.0138805
717.269	0.0138815
717.347	0.0140772
717.425	0.0140773
717.503	0.0141730
717.581	0.0141010
717.660	0.0141375
717.738	0.0142124
717.816	0.0142756
717.894	0.0142494
717.972	0.0143080
718.050	0.0141912
718.128	0.0142911
718.206	0.0141473
718.285	0.0142792
718.363	0.0143363
718.441	0.0141789
718.519	0.0142147
718.597	0.0142796
718.675	0.0142694
718.753	0.0143348
718.831	0.0143011
718.910	0.0143151
718.988	0.0142021
719.066	0.0142612
719.144	0.0142577
719.222	0.0141901
719.300	0.0143353
719.378	0.0142474
719.456	0.0141779
719.535	0.0141644
719.613	0.0141518
719.691	0.0141311
719.769	0.0142071
719.847	0.0142119
719.925	0.0142677
720.003	0.0140487
720.081	0.0140105
720.160	0.0140408
720.238	0.0140962
720.316	0.0141473
720.394	0.0140343
720.472	0.0139544
720.550	0.0140511
720.628	0.0140285
720.706	0.0140185
720.785	0.0140717
720.863	0.0142502
720.941	0.0142792
721.019	0.0140081
721.097	0.0141014
721.175	0.0142356
721.253	0.0141815
721.331	0.0142551
721.410	0.0142342
721.488	0.0140386
721.566	0.0141389
721.644	0.0140070
721.722	0.0140018
721.800	0.0140580
721.878	0.0140324
721.956	0.0138864
722.035	0.0139841
722.113	0.0140159
722.191	0.0137531
722.269	0.0137915
722.347	0.0136375
722.425	0.0137712
722.503	0.0139642
722.581	0.0138201
722.660	0.0137154
722.738	0.0138041
722.816	0.0138668
722.894	0.0138681
722.972	0.0139204
723.050	0.0140027
723.128	0.0139968
723.206	0.0140256
723.285	0.0138607
723.363	0.0138419
723.441	0.0139585
723.519	0.0139674
723.597	0.0139745
723.675	0.0140805
723.753	0.0139690
723.831	0.0140361
723.910	0.0140585
723.988	0.0139780
724.066	0.0139986
724.144	0.0139501
724.222	0.0141178
724.300	0.0140530
724.378	0.0141609
724.456	0.0141790
724.535	0.0141806
724.613	0.0142043
724.691	0.0140939
724.769	0.0142020
724.847	0.0142670
724.925	0.0141218
725.003	0.0142117
725.081	0.0143269
725.160	0.0143362
725.238	0.0140758
725.316	0.0142013
725.394	0.0144422
725.472	0.0142686
725.550	0.0142706
725.628	0.0143798
725.706	0.0142544
725.785	0.0143771
725.863	0.0144279
725.941	0.0143028
726.019	0.0142419
726.097	0.0142403
726.175	0.0142154
726.253	0.0141302
726.331	0.0141330
726.410	0.0141510
726.488	0.0142274
726.566	0.0141859
726.644	0.0140671
726.722	0.0140675
726.800	0.0141421
726.878	0.0142043
726.956	0.0140476
727.035	0.0140648
727.113	0.0140447
727.191	0.0141288
727.269	0.0142308
727.347	0.0141152
727.425	0.0139809
727.503	0.0141099
727.581	0.0141094
727.660	0.0142146
727.738	0.0141866
727.816	0.0140935
727.894	0.0141469
727.972	0.0142155
728.050	0.0141602
728.128	0.0141433
728.206	0.0141761
728.285	0.0143039
728.363	0.0140643
728.441	0.0141046
728.519	0.0140975
728.597	0.0140276
728.675	0.0139225
728.753	0.0139083
728.831	0.0138726
728.910	0.0137290
728.988	0.0137282
729.066	0.0139500
729.144	0.0139047
729.222	0.0138487
729.300	0.0139549
729.378	0.0139864
729.456	0.0140638
729.535	0.0139462
729.613	0.0139320
729.691	0.0140987
729.769	0.0141737
729.847	0.0140814
729.925	0.0140071
730.003	0.0140527
730.081	0.0141210
730.160	0.0140141
730.238	0.0139966
730.316	0.0138589
730.394	0.0139754
730.472	0.0140408
730.550	0.0139349
730.628	0.0141132
730.706	0.0139285
730.785	0.0140414
730.863	0.0140839
730.941	0.0141514
731.019	0.0141103
731.097	0.0142371
731.175	0.0143685
731.253	0.0143271
731.331	0.0142469
731.410	0.0144640
731.488	0.0143790
731.566	0.0142833
731.644	0.0143520
731.722	0.0144305
731.800	0.0144521
731.878	0.0144077
731.956	0.0143307
732.035	0.0144562
732.113	0.0143551
732.191	0.0141223
732.269	0.0144451
732.347	0.0144704
732.425	0.0143481
732.503	0.0144404
732.581	0.0141412
732.660	0.0143415
732.738	0.0142808
732.816	0.0141770
732.894	0.0143335
732.972	0.0141744
733.050	0.0141503
733.128	0.0141561
733.206	0.0141279
733.285	0.0140256
733.363	0.0140046
733.441	0.0141429
733.519	0.0140480
733.597	0.0140945
733.675	0.0140845
733.753	0.0140143
733.831	0.0140337
733.910	0.0139925
733.988	0.0140854
734.066	0.0138994
734.144	0.0139935
734.222	0.0139365
734.300	0.0141663
734.378	0.0141224
734.456	0.0140414
734.535	0.0140730
734.613	0.0141544
734.691	0.0140517
734.769	0.0140961
734.847	0.0141785
734.925	0.0141114
735.003	0.0140345
735.081	0.0139471
735.160	0.0139903
735.238	0.0139835
735.316	0.0139804
735.394	0.0140748
735.472	0.0139101
735.550	0.0139496
735.628	0.0139668
735.706	0.0138311
735.785	0.0138198
735.863	0.0138323
735.941	0.0138708
736.019	0.0138099
736.097	0.0138511
736.175	0.0138966
736.253	0.0138837
736.331	0.0139418
736.410	0.0139513
736.488	0.0138903
736.566	0.0139542
736.644	0.0139117
736.722	0.0138796
736.800	0.0138593
736.878	0.0139420
736.956	0.0140297
737.035	0.0138642
737.113	0.0138960
737.191	0.0138364
737.269	0.0138159
737.347	0.0138790
737.425	0.0139046
737.503	0.0139735
737.581	0.0139758
737.660	0.0139329
737.738	0.0139995
737.816	0.0140977
737.894	0.0141473
737.972	0.0142936
738.050	0.0141936
738.128	0.0144043
738.206	0.0143514
738.285	0.0144368
738.363	0.0145456
738.441	0.0144028
738.519	0.0144809
738.597	0.0143718
738.675	0.0144476
738.753	0.0143835
738.831	0.0144814
738.910	0.0145146
738.988	0.0143892
739.066	0.0144331
739.144	0.0144880
739.222	0.0145440
739.300	0.0145589
739.378	0.0144102
739.456	0.0143784
739.535	0.0143736
739.613	0.0144122
739.691	0.0142303
739.769	0.0142459
739.847	0.0142980
739.925	0.0142657
740.003	0.0140036
740.081	0.0141370
740.160	0.0140511
740.238	0.0140786
740.316	0.0140434
740.394	0.0141388
740.472	0.0140459
740.550	0.0139924
740.628	0.0139234
740.706	0.0141254
740.785	0.0140529
740.863	0.0140163
740.941	0.0139612
741.019	0.0140845
741.097	0.0140961
741.175	0.0140314
741.253	0.0140598
741.331	0.0140084
741.410	0.0139230
741.488	0.0139935
741.566	0.0140176
741.644	0.0141470
741.722	0.0139843
741.800	0.0138658
741.878	0.0140707
741.956	0.0140348
742.035	0.0139816
742.113	0.0140318
742.191	0.0139034
742.269	0.0137154
742.347	0.0139339
742.425	0.0139307
742.503	0.0139442
742.581	0.0139384
742.660	0.0139602
742.738	0.0139021
742.816	0.0138078
742.894	0.0138422
742.972	0.0140102
743.050	0.0139602
743.128	0.0139360
743.206	0.0139320
743.285	0.0139857
743.363	0.0139736
743.441	0.0140267
743.519	0.0140149
743.597	0.0139148
743.675	0.0139322
743.753	0.0141145
743.831	0.0139909
743.910	0.0139461
743.988	0.0140094
744.066	0.0141292
744.144	0.0140465
744.222	0.0139919
744.300	0.0141862
744.378	0.0140780
744.456	0.0141373
744.535	0.0142136
744.613	0.0141616
744.691	0.0142184
744.769	0.0142603
744.847	0.0143879
744.925	0.0142562
745.003	0.0142809
745.081	0.0143513
745.160	0.0144522
745.238	0.0145378
745.316	0.0145414
745.394	0.0144555
745.472	0.0145493
745.550	0.0145406
745.628	0.0145448
745.706	0.0145520
745.785	0.0146574
745.863	0.0144880
745.941	0.0144102
746.019	0.0147145
746.097	0.0146263
746.175	0.0144447
746.253	0.0145384
746.331	0.0145815
746.410	0.0144804
746.488	0.0144384
746.566	0.0142959
746.644	0.0143976
746.722	0.0142357
746.800	0.0142860
746.878	0.0142425
746.956	0.0141709
747.035	0.0140749
747.113	0.0140993
747.191	0.0141403
747.269	0.0140231
747.347	0.0140995
747.425	0.0140285
747.503	0.0138638
747.581	0.0140853
747.660	0.0140225
747.738	0.0141161
747.816	0.0140390
747.894	0.0140009
747.972	0.0140681
748.050	0.0142278
748.128	0.0141274
748.206	0.0141068
748.285	0.0140163
748.363	0.0140797
748.441	0.0140865
748.519	0.0140231
748.597	0.0141043
748.675	0.0139906
748.753	0.0139568
748.831	0.0139526
748.910	0.0139632
748.988	0.0140746
749.066	0.0140002
749.144	0.0139416
749.222	0.0140061
749.300	0.0140667
749.378	0.0139840
749.456	0.0140392
749.535	0.0141181
749.613	0.0140610
749.691	0.0139415
749.769	0.0140450
749.847	0.0140076
749.925	0.0140443
750.003	0.0139937
750.081	0.0139212
750.160	0.0138895
750.238	0.0139307
750.316	0.0139039
750.394	0.0140198
750.472	0.0137318
750.550	0.0137837
750.628	0.0138971
750.706	0.0138877
750.785	0.0139996
750.863	0.0139843
750.941	0.0139939
751.019	0.0139247
751.097	0.0141064
751.175	0.0139912
751.253	0.0141235
751.331	0.0140507
751.410	0.0141739
751.488	0.0140948
751.566	0.0142189
751.644	0.0143324
751.722	0.0141242
751.800	0.0142788
751.878	0.0141880
751.956	0.0141361
752.035	0.0143475
752.113	0.0143755
752.191	0.0144643
752.269	0.0145263
752.347	0.0144374
752.425	0.0145348
752.503	0.0143834
752.581	0.0145139
752.660	0.0144821
752.738	0.0145271
752.816	0.0144908
752.894	0.0144952
752.972	0.0144802
753.050	0.0144331
753.128	0.0142934
753.206	0.0143572
753.285	0.0143659
753.363	0.0142430
753.441	0.0142473
753.519	0.0142548
753.597	0.0142476
753.675	0.0141354
753.753	0.0141483
753.831	0.0140375
753.910	0.0140614
753.988	0.0139803
754.066	0.0139713
754.144	0.0141315
754.222	0.0139603
754.300	0.0139665
754.378	0.0138511
754.456	0.0139632
754.535	0.0139521
754.613	0.0139829
754.691	0.0139867
754.769	0.0141607
754.847	0.0139258
754.925	0.0139879
755.003	0.0139696
755.081	0.0139011
755.160	0.0138908
755.238	0.0140163
755.316	0.0141219
755.394	0.0139314
755.472	0.0138842
755.550	0.0138602
755.628	0.0138293
755.706	0.0139112
755.785	0.0139059
755.863	0.0138712
755.941	0.0138600
756.019	0.0140194
756.097	0.0140511
756.175	0.0139971
756.253	0.0139578
756.331	0.0140984
756.410	0.0141449
756.488	0.0140757
756.566	0.0140784
756.644	0.0141469
756.722	0.0139442
756.800	0.0140561
756.878	0.0141138
756.956	0.0138184
757.035	0.0139221
757.113	0.0140202
757.191	0.0138512
757.269	0.0139807
757.347	0.0139494
757.425	0.0138660
757.503	0.0139835
757.581	0.0140510
757.660	0.0140685
757.738	0.0141857
757.816	0.0140762
757.894	0.0139704
757.972	0.0140165
758.050	0.0141363
758.128	0.0141884
758.206	0.0142552
758.285	0.0143141
758.363	0.0142058
758.441	0.0142426
758.519	0.0142490
758.597	0.0143275
758.675	0.0144195
758.753	0.0143626
758.831	0.0143512
758.910	0.0144927
758.988	0.0144809
759.066	0.0145977
759.144	0.0145947
759.222	0.0146153
759.300	0.0146023
759.378	0.0146086
759.456	0.0143888
759.535	0.0144160
759.613	0.0146185
759.691	0.0145261
759.769	0.0144573
759.847	0.0143674
759.925	0.0144132
760.003	0.0144328
760.081	0.0143516
760.160	0.0143414
760.238	0.0142211
760.316	0.0143386
760.394	0.0142946
760.472	0.0142847
760.550	0.0142815
760.628	0.0143503
760.706	0.0142396
760.785	0.0141264
760.863	0.0142162
760.941	0.0140912
761.019	0.0140965
761.097	0.0141101
761.175	0.0141473
761.253	0.0139659
761.331	0.0139500
761.410	0.0140889
761.488	0.0140353
761.566	0.0141918
761.644	0.0140550
761.722	0.0139879
761.800	0.0140936
761.878	0.0140962
761.956	0.0140504
762.035	0.0140626
762.113	0.0140081
762.191	0.0140210
762.269	0.0140914
762.347	0.0140052
762.425	0.0140079
762.503	0.0140251
762.581	0.0140367
762.660	0.0139814
762.738	0.0141299
762.816	0.0140458
762.894	0.0140904
762.972	0.0140228
763.050	0.0140501
763.128	0.0140755
763.206	0.0141109
763.285	0.0140710
763.363	0.0140424
763.441	0.0140419
763.519	0.0139574
763.597	0.0141920
763.675	0.0140837
763.753	0.0139977
763.831	0.0139747
763.910	0.0140223
763.988	0.0141425
764.066	0.0139877
764.144	0.0139416
764.222	0.0140569
764.300	0.0140173
764.378	0.0139651
764.456	0.0140598
764.535	0.0140504
764.613	0.0140364
764.691	0.0140552
764.769	0.0140503
764.847	0.0141434
764.925	0.0142602
765.003	0.0141892
765.081	0.0142091
765.160	0.0141804
765.238	0.0142281
765.316	0.0143999
765.394	0.0142911
765.472	0.0143658
765.550	0.0143634
765.628	0.0144604
765.706	0.0146030
765.785	0.0146658
765.863	0.0146238
765.941	0.0146638
766.019	0.0145671
766.097	0.0144456
766.175	0.0144838
766.253	0.0145435
766.331	0.0146177
766.410	0.0145531
766.488	0.0144878
766.566	0.0144849
766.644	0.0144907
766.722	0.0145901
766.800	0.0144680
766.878	0.0143790
766.956	0.0143480
767.035	0.0143113
767.113	0.0143325
767.191	0.0144327
767.269	0.0143845
767.347	0.0142638
767.425	0.0142126
767.503	0.0141356
767.581	0.0142332
767.660	0.0141160
767.738	0.0142142
767.816	0.0141043
767.894	0.0140643
767.972	0.0141955
768.050	0.0141705
768.128	0.0141391
768.206	0.0139291
768.285	0.0140060
768.363	0.0139325
768.441	0.0141130
768.519	0.0140797
768.597	0.0139835
768.675	0.0139581
768.753	0.0140070
768.831	0.0140054
768.910	0.0140289
768.988	0.0140195
769.066	0.0139352
769.144	0.0139385
769.222	0.0140437
769.300	0.0137988
769.378	0.0139657
769.456	0.0139284
769.535	0.0138757
769.613	0.0139465
769.691	0.0141077
769.769	0.0139431
769.847	0.0140606
769.925	0.0141208
770.003	0.0139891
770.081	0.0141412
770.160	0.0141676
770.238	0.0141252
770.316	0.0141299
770.394	0.0142767
770.472	0.0140583
770.550	0.0139999
770.628	0.0140234
770.706	0.0141157
770.785	0.0140417
770.863	0.0139677
770.941	0.0140862
771.019	0.0140341
771.097	0.0140349
771.175	0.0140572
771.253	0.0141105
771.331	0.0140433
771.410	0.0140153
771.488	0.0142668
771.566	0.0142008
771.644	0.0141965
771.722	0.0143130
771.800	0.0142192
771.878	0.0140797
771.956	0.0142036
772.035	0.0142216
772.113	0.0143385
772.191	0.0143794
772.269	0.0144621
772.347	0.0145319
772.425	0.0145752
772.503	0.0144573
772.581	0.0145586
772.660	0.0145760
772.738	0.0145374
772.816	0.0145185
772.894	0.0144257
772.972	0.0144962
773.050	0.0144367
773.128	0.0145956
773.206	0.0145134
773.285	0.0143977
773.363	0.0142710
773.441	0.0144572
773.519	0.0144206
773.597	0.0142968
773.675	0.0144204
773.753	0.0144084
773.831	0.0144057
773.910	0.0140740
773.988	0.0140943
774.066	0.0142841
774.144	0.0142696
774.222	0.0141274
774.300	0.0141117
774.378	0.0141730
774.456	0.0142442
774.535	0.0140909
774.613	0.0141070
774.691	0.0140504
774.769	0.0140346
774.847	0.0140246
774.925	0.0139115
775.003	0.0139713
775.081	0.0139740
775.160	0.0139353
775.238	0.0138298
775.316	0.0140025
775.394	0.0139404
775.472	0.0139196
775.550	0.0138855
775.628	0.0139783
775.706	0.0139799
775.785	0.0137931
775.863	0.0139011
775.941	0.0139286
776.019	0.0138268
776.097	0.0138006
776.175	0.0137736
776.253	0.0139060
776.331	0.0139031
776.410	0.0137499
776.488	0.0138843
776.566	0.0140239
776.644	0.0139585
776.722	0.0140483
776.800	0.0139554
776.878	0.0140118
776.956	0.0140067
777.035	0.0140813
777.113	0.0139588
777.191	0.0140463
777.269	0.0139564
777.347	0.0140875
777.425	0.0139517
777.503	0.0140649
777.581	0.0139716
777.660	0.0138737
777.738	0.0138702
777.816	0.0138089
777.894	0.0139030
777.972	0.0139297
778.050	0.0138744
778.128	0.0139716
778.206	0.0139921
778.285	0.0139819
778.363	0.0140112
778.441	0.0139697
778.519	0.0142044
778.597	0.0140885
778.675	0.0141559
778.753	0.0140498
778.831	0.0140883
778.910	0.0142214
778.988	0.0142281
779.066	0.0142873
779.144	0.0142479
779.222	0.0143547
779.300	0.0143495
779.378	0.0143915
779.456	0.0142873
779.535	0.0145040
779.613	0.0143265
779.691	0.0144354
779.769	0.0144186
779.847	0.0144342
779.925	0.0144833
780.003	0.0146166
780.081	0.0144288
780.160	0.0143981
780.238	0.0142960
780.316	0.0143238
780.394	0.0141979
780.472	0.0143455
780.550	0.0144196
780.628	0.0144208
780.706	0.0142083
780.785	0.0142851
780.863	0.0144176
780.941	0.0142048
781.019	0.0143142
781.097	0.0142487
781.175	0.0142086
781.253	0.0142645
781.331	0.0143247
781.410	0.0141074
781.488	0.0140421
781.566	0.0142108
781.644	0.0141652
781.722	0.0140380
781.800	0.0141868
781.878	0.0140218
781.956	0.0140568
782.035	0.0141563
782.113	0.0139879
782.191	0.0139989
782.269	0.0140868
782.347	0.0138959
782.425	0.0139526
782.503	0.0139207
782.581	0.0137179
782.660	0.0137795
782.738	0.0138418
782.816	0.0138692
782.894	0.0137428
782.972	0.0137971
783.050	0.0137539
783.128	0.0137504
783.206	0.0137880
783.285	0.0138086
783.363	0.0137809
783.441	0.0137511
783.519	0.0139869
783.597	0.0138308
783.675	0.0137621
783.753	0.0139365
783.831	0.0138290
783.910	0.0139784
783.988	0.0140589
784.066	0.0140108
784.144	0.0140532
784.222	0.0140024
784.300	0.0139189
784.378	0.0139523
784.456	0.0139140
784.535	0.0139986
784.613	0.0140651
784.691	0.0140032
784.769	0.0139737
784.847	0.0139063
784.925	0.0139594
785.003	0.0140537
785.081	0.0141626
785.160	0.0141409
785.238	0.0140714
785.316	0.0142971
785.394	0.0141330
785.472	0.0140732
785.550	0.0143285
785.628	0.0143018
785.706	0.0144022
785.785	0.0142824
785.863	0.0144185
785.941	0.0144029
786.019	0.0144726
786.097	0.0145771
786.175	0.0145376
786.253	0.0146230
786.331	0.0145831
786.410	0.0145185
786.488	0.0145470
786.566	0.0146690
786.644	0.0145802
786.722	0.0144271
786.800	0.0144408
786.878	0.0145208
786.956	0.0143403
787.035	0.0144270
787.113	0.0144558
787.191	0.0144125
787.269	0.0143475
787.347	0.0143535
787.425	0.0143700
787.503	0.0143897
787.581	0.0143674
787.660	0.0141602
787.738	0.0143552
787.816	0.0143680
787.894	0.0142139
787.972	0.0141532
788.050	0.0142495
788.128	0.0141868
788.206	0.0141763
788.285	0.0140352
788.363	0.0142113
788.441	0.0139960
788.519	0.0141672
788.597	0.0141713
788.675	0.0139851
788.753	0.0141251
788.831	0.0140483
788.910	0.0140176
788.988	0.0140578
789.066	0.0140311
789.144	0.0139983
789.222	0.0140659
789.300	0.0138679
789.378	0.0139990
789.456	0.0140608
789.535	0.0140315
789.613	0.0139217
789.691	0.0139651
789.769	0.0138818
789.847	0.0140084
789.925	0.0139443
790.003	0.0139168
790.081	0.0139170
790.160	0.0138896
790.238	0.0140958
790.316	0.0141106
790.394	0.0140308
790.472	0.0141643
790.550	0.0140628
790.628	0.0142157
790.706	0.0141254
790.785	0.0140851
790.863	0.0141459
790.941	0.0141727
791.019	0.0140067
791.097	0.0141238
791.175	0.0141394
791.253	0.0140752
791.331	0.0142022
791.410	0.0141064
791.488	0.0140636
791.566	0.0141006
791.644	0.0140478
791.722	0.0139755
791.800	0.0140949
791.878	0.0141485
791.956	0.0141015
792.035	0.0142106
792.113	0.0142082
792.191	0.0142241
792.269	0.0143300
792.347	0.0142682
792.425	0.0141577
792.503	0.0143794
792.581	0.0143479
792.660	0.0143083
792.738	0.0143604
792.816	0.0144238
792.894	0.0144035
792.972	0.0143858
793.050	0.0145261
793.128	0.0145928
793.206	0.0145821
793.285	0.0145939
793.363	0.0145058
793.441	0.0145216
793.519	0.0146161
793.597	0.0145012
793.675	0.0144774
793.753	0.0145412
793.831	0.0144791
793.910	0.0143925
793.988	0.0142691
794.066	0.0143321
794.144	0.0142706
794.222	0.0143463
794.300	0.0142473
794.378	0.0142284
794.456	0.0141184
794.535	0.0141637
794.613	0.0141405
794.691	0.0142132
794.769	0.0142191
794.847	0.0141346
794.925	0.0141422
795.003	0.0140598
795.081	0.0140734
795.160	0.0141293
795.238	0.0139556
795.316	0.0140451
795.394	0.0140930
795.472	0.0141092
795.550	0.0140620
795.628	0.0140347
795.706	0.0140543
795.785	0.0140910
795.863	0.0140556
795.941	0.0139912
796.019	0.0140896
796.097	0.0139571
796.175	0.0138881
796.253	0.0141320
796.331	0.0140699
796.410	0.0139342
796.488	0.0140154
796.566	0.0140090
796.644	0.0138958
796.722	0.0138350
796.800	0.0139010
796.878	0.0137402
796.956	0.0138634
797.035	0.0137991
797.113	0.0138632
797.191	0.0140378
797.269	0.0139899
797.347	0.0140089
797.425	0.0139517
797.503	0.0138636
797.581	0.0139284
797.660	0.0141075
797.738	0.0140546
797.816	0.0139229
797.894	0.0138831
797.972	0.0141708
798.050	0.0139903
798.128	0.0139249
798.206	0.0137531
798.285	0.0138716
798.363	0.0138300
798.441	0.0139723
798.519	0.0138490
798.597	0.0136984
798.675	0.0138403
798.753	0.0139507
798.831	0.0139509
798.910	0.0139613
798.988	0.0140324
799.066	0.0138435
799.144	0.0139860
799.222	0.0140936
799.300	0.0140460
799.378	0.0142421
799.456	0.0140409
799.535	0.0141142
799.613	0.0142121
799.691	0.0141175
799.769	0.0141879
799.847	0.0143233
799.925	0.0142897
800.003	0.0144007
800.081	0.0144771
800.160	0.0144402
800.238	0.0143858
800.316	0.0144702
800.394	0.0144076
800.472	0.0144543
800.550	0.0143829
800.628	0.0144316
800.706	0.0143953
800.785	0.0142512
800.863	0.0143069
800.941	0.0143245
801.019	0.0143013
801.097	0.0143160
801.175	0.0142657
801.253	0.0141991
801.331	0.0141840
801.410	0.0141050
801.488	0.0140620
801.566	0.0139968
801.644	0.0140576
801.722	0.0139596
801.800	0.0139996
801.878	0.0139999
801.956	0.0141109
802.035	0.0140256
802.113	0.0140923
802.191	0.0139303
802.269	0.0139665
802.347	0.0139498
802.425	0.0140303
802.503	0.0141308
802.581	0.0141087
802.660	0.0138847
802.738	0.0139230
802.816	0.0141515
802.894	0.0143238
802.972	0.0140738
803.050	0.0140614
803.128	0.0141250
803.206	0.0141538
803.285	0.0141412
803.363	0.0142424
803.441	0.0141629
803.519	0.0140353
803.597	0.0142175
803.675	0.0140296
803.753	0.0139845
803.831	0.0140360
803.910	0.0140149
803.988	0.0142818
804.066	0.0141666
804.144	0.0142129
804.222	0.0140888
804.300	0.0141514
804.378	0.0143444
804.456	0.0143664
804.535	0.0141726
804.613	0.0142797
804.691	0.0140580
804.769	0.0140959
804.847	0.0141823
804.925	0.0140390
805.003	0.0140079
805.081	0.0140565
805.160	0.0139898
805.238	0.0140359
805.316	0.0140634
805.394	0.0140405
805.472	0.0139255
805.550	0.0138792
805.628	0.0139967
805.706	0.0138976
805.785	0.0139210
805.863	0.0139192
805.941	0.0140415
806.019	0.0141778
806.097	0.0141194
806.175	0.0140336
806.253	0.0140202
806.331	0.0141273
806.410	0.0142131
806.488	0.0143069
806.566	0.0140122
806.644	0.0140926
806.722	0.0142605
806.800	0.0142757
806.878	0.0142681
806.956	0.0143143
807.035	0.0142132
807.113	0.0143667
807.191	0.0143591
807.269	0.0143218
807.347	0.0142905
807.425	0.0144256
807.503	0.0144341
807.581	0.0142486
807.660	0.0143172
807.738	0.0144325
807.816	0.0143445
807.894	0.0142824
807.972	0.0142732
808.050	0.0142590
808.128	0.0140700
808.206	0.0140952
808.285	0.0142396
808.363	0.0141306
808.441	0.0139193
808.519	0.0141641
808.597	0.0141525
808.675	0.0140314
808.753	0.0140770
808.831	0.0139382
808.910	0.0140297
808.988	0.0140012
809.066	0.0139734
809.144	0.0138609
809.222	0.0138013
809.300	0.0138826
809.378	0.0138716
809.456	0.0138672
809.535	0.0138533
809.613	0.0138457
809.691	0.0138084
809.769	0.0139259
809.847	0.0138291
809.925	0.0138627
810.003	0.0139277
810.081	0.0138498
810.160	0.0139866
810.238	0.0138589
810.316	0.0138578
810.394	0.0138123
810.472	0.0138455
810.550	0.0139400
810.628	0.0139249
810.706	0.0138838
810.785	0.0138490
810.863	0.0138564
810.941	0.0139424
811.019	0.0138179
811.097	0.0137644
811.175	0.0138547
811.253	0.0140032
811.331	0.0139472
811.410	0.0140786
811.488	0.0140563
811.566	0.0141367
811.644	0.0141373
811.722	0.0140576
811.800	0.0140722
811.878	0.0141420
811.956	0.0139807
812.035	0.0139547
812.113	0.0140220
812.191	0.0139803
812.269	0.0139169
812.347	0.0139370
812.425	0.0138515
812.503	0.0139703
812.581	0.0138348
812.660	0.0139346
812.738	0.0139839
812.816	0.0139877
812.894	0.0139626
812.972	0.0139774
813.050	0.0141882
813.128	0.0141072
813.206	0.0141212
813.285	0.0141448
813.363	0.0141511
813.441	0.0140247
813.519	0.0142069
813.597	0.0143414
813.675	0.0142648
813.753	0.0141972
813.831	0.0144318
813.910	0.0143970
813.988	0.0144405
814.066	0.0145854
814.144	0.0144479
814.222	0.0144426
814.300	0.0146261
814.378	0.0145434
814.456	0.0143085
814.535	0.0143125
814.613	0.0144240
814.691	0.0143549
814.769	0.0143114
814.847	0.0144087
814.925	0.0142612
815.003	0.0143024
815.081	0.0144238
815.160	0.0143020
815.238	0.0142360
815.316	0.0142073
815.394	0.0142826
815.472	0.0142245
815.550	0.0141964
815.628	0.0142271
815.706	0.0141476
815.785	0.0141708
815.863	0.0140562
815.941	0.0140627
816.019	0.0139488
816.097	0.0140453
816.175	0.0140044
816.253	0.0140768
816.331	0.0140994
816.410	0.0139828
816.488	0.0140128
816.566	0.0139838
816.644	0.0139460
816.722	0.0140323
816.800	0.0141446
816.878	0.0140166
816.956	0.0140212
817.035	0.0139729
817.113	0.0140465
817.191	0.0140606
817.269	0.0140432
817.347	0.0140356
817.425	0.0140582
817.503	0.0138855
817.581	0.0139216
817.660	0.0140027
817.738	0.0138448
817.816	0.0140577
817.894	0.0140385
817.972	0.0139555
818.050	0.0141460
818.128	0.0141753
818.206	0.0141480
818.285	0.0141125
818.363	0.0140867
818.441	0.0142148
818.519	0.0141644
818.597	0.0140942
818.675	0.0142271
818.753	0.0141619
818.831	0.0142039
818.910	0.0141615
818.988	0.0141911
819.066	0.0141389
819.144	0.0141080
819.222	0.0139304
819.300	0.0141211
819.378	0.0140924
819.456	0.0141679
819.535	0.0141396
819.613	0.0139754
819.691	0.0140236
819.769	0.0139353
819.847	0.0140402
819.925	0.0140838
820.003	0.0140710
820.081	0.0141138
820.160	0.0140475
820.238	0.0142036
820.316	0.0141631
820.394	0.0142257
820.472	0.0143386
820.550	0.0143198
820.628	0.0143596
820.706	0.0144199
820.785	0.0144051
820.863	0.0145026
820.941	0.0144532
821.019	0.0144804
821.097	0.0145454
821.175	0.0145404
821.253	0.0145439
821.331	0.0146648
821.410	0.0146172
821.488	0.0146224
821.566	0.0145744
821.644	0.0145966
821.722	0.0145982
821.800	0.0145774
821.878	0.0143800
821.956	0.0145145
822.035	0.0144107
822.113	0.0143583
822.191	0.0142625
822.269	0.0143591
822.347	0.0142410
822.425	0.0142284
822.503	0.0141341
822.581	0.0141608
822.660	0.0142556
822.738	0.0141756
822.816	0.0141776
822.894	0.0140717
822.972	0.0140229
823.050	0.0140963
823.128	0.0139789
823.206	0.0140702
823.285	0.0137665
823.363	0.0139145
823.441	0.0138046
823.519	0.0138610
823.597	0.0139044
823.675	0.0138494
823.753	0.0137439
823.831	0.0138015
823.910	0.0138660
823.988	0.0137935
824.066	0.0137543
824.144	0.0137888
824.222	0.0137953
824.300	0.0138311
824.378	0.0138926
824.456	0.0139237
824.535	0.0138731
824.613	0.0137296
824.691	0.0138927
824.769	0.0138462
824.847	0.0138711
824.925	0.0138919
825.003	0.0138741
825.081	0.0139133
825.160	0.0138106
825.238	0.0139165
825.316	0.0139293
825.394	0.0140205
825.472	0.0141080
825.550	0.0139264
825.628	0.0140086
825.706	0.0140161
825.785	0.0140492
825.863	0.0140388
825.941	0.0139411
826.019	0.0139510
826.097	0.0140429
826.175	0.0140359
826.253	0.0140475
826.331	0.0139268
826.410	0.0139210
826.488	0.0139336
826.566	0.0139192
826.644	0.0139188
826.722	0.0139342
826.800	0.0138792
826.878	0.0140134
826.956	0.0139795
827.035	0.0139109
827.113	0.0141559
827.191	0.0140686
827.269	0.0140387
827.347	0.0140839
827.425	0.0142234
827.503	0.0143965
827.581	0.0143521
827.660	0.0142564
827.738	0.0142471
827.816	0.0144885
827.894	0.0145162
827.972	0.0144335
828.050	0.0145477
828.128	0.0145480
828.206	0.0145361
828.285	0.0146130
828.363	0.0144933
828.441	0.0146188
828.519	0.0146567
828.597	0.0145995
828.675	0.0145242
828.753	0.0145367
828.831	0.0143762
828.910	0.0144641
828.988	0.0145576
829.066	0.0144785
829.144	0.0143237
829.222	0.0143687
829.300	0.0142947
829.378	0.0142906
829.456	0.0141692
829.535	0.0142435
829.613	0.0140424
829.691	0.0139923
829.769	0.0140701
829.847	0.0139262
829.925	0.0139627
830.003	0.0140669
830.081	0.0140101
830.160	0.0140972
830.238	0.0139005
830.316	0.0140962
830.394	0.0139651
830.472	0.0138799
830.550	0.0138374
830.628	0.0138651
830.706	0.0138196
830.785	0.0137377
830.863	0.0138113
830.941	0.0138618
831.019	0.0139187
831.097	0.0139426
831.175	0.0138892
831.253	0.0138247
831.331	0.0138177
831.410	0.0138775
831.488	0.0138826
831.566	0.0139355
831.644	0.0137569
831.722	0.0139701
831.800	0.0138331
831.878	0.0139114
831.956	0.0139836
832.035	0.0141049
832.113	0.0140574
832.191	0.0140521
832.269	0.0141068
832.347	0.0140633
832.425	0.0141774
832.503	0.0141319
832.581	0.0142213
832.660	0.0141273
832.738	0.0142119
832.816	0.0141773
832.894	0.0141573
832.972	0.0142044
833.050	0.0143537
833.128	0.0142901
833.206	0.0142036
833.285	0.0142399
833.363	0.0142189
833.441	0.0142185
833.519	0.0140638
833.597	0.0140827
833.675	0.0139741
833.753	0.0141367
833.831	0.0141104
833.910	0.0140235
833.988	0.0140456
834.066	0.0141605
834.144	0.0140443
834.222	0.0140721
834.300	0.0142480
834.378	0.0140496
834.456	0.0141619
834.535	0.0142495
834.613	0.0141767
834.691	0.0141419
834.769	0.0141040
834.847	0.0142388
834.925	0.0142065
835.003	0.0141472
835.081	0.0144143
835.160	0.0143098
835.238	0.0143166
835.316	0.0143863
835.394	0.0142903
835.472	0.0144206
835.550	0.0144852
835.628	0.0143324
835.706	0.0143163
835.785	0.0145172
835.863	0.0142834
835.941	0.0141613
836.019	0.0142087
836.097	0.0142049
836.175	0.0141367
836.253	0.0142075
836.331	0.0140805
836.410	0.0140759
836.488	0.0140128
836.566	0.0139837
836.644	0.0139912
836.722	0.0139614
836.800	0.0139648
836.878	0.0139596
836.956	0.0138704
837.035	0.0138132
837.113	0.0138644
837.191	0.0139084
837.269	0.0139203
837.347	0.0140057
837.425	0.0136546
837.503	0.0137280
837.581	0.0138407
837.660	0.0138297
837.738	0.0136619
837.816	0.0138612
837.894	0.0137231
837.972	0.0138155
838.050	0.0138097
838.128	0.0137639
838.206	0.0138428
838.285	0.0138932
838.363	0.0138482
838.441	0.0138531
838.519	0.0138956
838.597	0.0139732
838.675	0.0140149
838.753	0.0139142
838.831	0.0138901
838.910	0.0139822
838.988	0.0140003
839.066	0.0140838
839.144	0.0140762
839.222	0.0140566
839.300	0.0140747
839.378	0.0141756
839.456	0.0141262
839.535	0.0142605
839.613	0.0141962
839.691	0.0142639
839.769	0.0143271
839.847	0.0140643
839.925	0.0142735
840.003	0.0144624
840.081	0.0143500
840.160	0.0142677
840.238	0.0142697
840.316	0.0142210
840.394	0.0142785
840.472	0.0141975
840.550	0.0142500
840.628	0.0141714
840.706	0.0140154
840.785	0.0141837
840.863	0.0141286
840.941	0.0141083
841.019	0.0141492
841.097	0.0140205
841.175	0.0140304
841.253	0.0142188
841.331	0.0142582
841.410	0.0141521
841.488	0.0141677
841.566	0.0141499
841.644	0.0141879
841.722	0.0141420
841.800	0.0142650
841.878	0.0141879
841.956	0.0143826
842.035	0.0142962
842.113	0.0142555
842.191	0.0143188
842.269	0.0144476
842.347	0.0143710
842.425	0.0145591
842.503	0.0146066
842.581	0.0144135
842.660	0.0145422
842.738	0.0145364
842.816	0.0144762
842.894	0.0144799
842.972	0.0144113
843.050	0.0145528
843.128	0.0143665
843.206	0.0143227
843.285	0.0143819
843.363	0.0142084
843.441	0.0142467
843.519	0.0142902
843.597	0.0142878
843.675	0.0142225
843.753	0.0142593
843.831	0.0141257
843.910	0.0141117
843.988	0.0141908
844.066	0.0140449
844.144	0.0139448
844.222	0.0141103
844.300	0.0139417
844.378	0.0140057
844.456	0.0140278
844.535	0.0140464
844.613	0.0140318
844.691	0.0140070
844.769	0.0139953
844.847	0.0140028
844.925	0.0140258
845.003	0.0140603
845.081	0.0139571
845.160	0.0139807
845.238	0.0137286
845.316	0.0138143
845.394	0.0139650
845.472	0.0139906
845.550	0.0139909
845.628	0.0140773
845.706	0.0138747
845.785	0.0138795
845.863	0.0140621
845.941	0.0139319
846.019	0.0138434
846.097	0.0140245
846.175	0.0141034
846.253	0.0138587
846.331	0.0138719
846.410	0.0140243
846.488	0.0141221
846.566	0.0140211
846.644	0.0140652
846.722	0.0141103
846.800	0.0140310
846.878	0.0140886
846.956	0.0143451
847.035	0.0141784
847.113	0.0140741
847.191	0.0140932
847.269	0.0139748
847.347	0.0140272
847.425	0.0141439
847.503	0.0140494
847.581	0.0139735
847.660	0.0139886
847.738	0.0140404
847.816	0.0138943
847.894	0.0139664
847.972	0.0139703
848.050	0.0140324
848.128	0.0139226
848.206	0.0139545
848.285	0.0139962
848.363	0.0141872
848.441	0.0140746
848.519	0.0139935
848.597	0.0140973
848.675	0.0140550
848.753	0.0140668
848.831	0.0141045
848.910	0.0141428
848.988	0.0142257
849.066	0.0141254
849.144	0.0142872
849.222	0.0143596
849.300	0.0141669
849.378	0.0142107
849.456	0.0143546
849.535	0.0143018
849.613	0.0145281
849.691	0.0144022
849.769	0.0145933
849.847	0.0145531
849.925	0.0143427
850.003	0.0145167
850.081	0.0143495
850.160	0.0144537
850.238	0.0144016
850.316	0.0144387
850.394	0.0143663
850.472	0.0145033
850.550	0.0141942
850.628	0.0142406
850.706	0.0143068
850.785	0.0142705
850.863	0.0142987
850.941	0.0144264
851.019	0.0142172
851.097	0.0142007
851.175	0.0141656
851.253	0.0142441
851.331	0.0142219
851.410	0.0142320
851.488	0.0140731
851.566	0.0139935
851.644	0.0141138
851.722	0.0140294
851.800	0.0142167
851.878	0.0141403
851.956	0.0141389
852.035	0.0140476
852.113	0.0140952
852.191	0.0142034
852.269	0.0141037
852.347	0.0141306
852.425	0.0139980
852.503	0.0141194
852.581	0.0140514
852.660	0.0141508
852.738	0.0139794
852.816	0.0139577
852.894	0.0140395
852.972	0.0141182
853.050	0.0142312
853.128	0.0140580
853.206	0.0141579
853.285	0.0142259
853.363	0.0141153
853.441	0.0140115
853.519	0.0140446
853.597	0.0141251
853.675	0.0141538
853.753	0.0143626
853.831	0.0142703
853.910	0.0142663
853.988	0.0142294
854.066	0.0142334
854.144	0.0141989
854.222	0.0142169
854.300	0.0141928
854.378	0.0143690
854.456	0.0141246
854.535	0.0140423
854.613	0.0139948
854.691	0.0139678
854.769	0.0140259
854.847	0.0139813
854.925	0.0140244
855.003	0.0139874
855.081	0.0139124
855.160	0.0139040
855.238	0.0138919
855.316	0.0139006
855.394	0.0139208
855.472	0.0139640
855.550	0.0139140
855.628	0.0139714
855.706	0.0138266
855.785	0.0139468
855.863	0.0141021
855.941	0.0139323
856.019	0.0139832
856.097	0.0140775
856.175	0.0141547
856.253	0.0142470
856.331	0.0142850
856.410	0.0142999
856.488	0.0143202
856.566	0.0143504
856.644	0.0143159
856.722	0.0145495
856.800	0.0145647
856.878	0.0144582
856.956	0.0144926
857.035	0.0145582
857.113	0.0144851
857.191	0.0145456
857.269	0.0145808
857.347	0.0144331
857.425	0.0144425
857.503	0.0143525
857.581	0.0144140
857.660	0.0144297
857.738	0.0144318
857.816	0.0143555
857.894	0.0143561
857.972	0.0144044
858.050	0.0142680
858.128	0.0142519
858.206	0.0143147
858.285	0.0142606
858.363	0.0141504
858.441	0.0142560
858.519	0.0142472
858.597	0.0142190
858.675	0.0139877
858.753	0.0140264
858.831	0.0140389
858.910	0.0141730
858.988	0.0140218
859.066	0.0140592
859.144	0.0140461
859.222	0.0140517
859.300	0.0139893
859.378	0.0140229
859.456	0.0138182
859.535	0.0139087
859.613	0.0139654
859.691	0.0139111
859.769	0.0138979
859.847	0.0139376
859.925	0.0139088
860.003	0.0139326
860.081	0.0137725
860.160	0.0139211
860.238	0.0139151
860.316	0.0137795
860.394	0.0137997
860.472	0.0138522
860.550	0.0137676
860.628	0.0139122
860.706	0.0137307
860.785	0.0139566
860.863	0.0139598
860.941	0.0139317
861.019	0.0138762
861.097	0.0140488
861.175	0.0140007
861.253	0.0138855
861.331	0.0138806
861.410	0.0139687
861.488	0.0139420
861.566	0.0140465
861.644	0.0139939
861.722	0.0139993
861.800	0.0140351
861.878	0.0140186
861.956	0.0139240
862.035	0.0139285
862.113	0.0139016
862.191	0.0138593
862.269	0.0138718
862.347	0.0139746
862.425	0.0140154
862.503	0.0140023
862.581	0.0140560
862.660	0.0139656
862.738	0.0140118
862.816	0.0139806
862.894	0.0140103
862.972	0.0140116
863.050	0.0140598
863.128	0.0141439
863.206	0.0142188
863.285	0.0141437
863.363	0.0143127
863.441	0.0141568
863.519	0.0141357
863.597	0.0142899
863.675	0.0144301
863.753	0.0145075
863.831	0.0145321
863.910	0.0144312
863.988	0.0143816
864.066	0.0145197
864.144	0.0145666
864.222	0.0145702
864.300	0.0146628
864.378	0.0145275
864.456	0.0144082
864.535	0.0143908
864.613	0.0142928
864.691	0.0145777
864.769	0.0145100
864.847	0.0142386
864.925	0.0143116
865.003	0.0142637
865.081	0.0144239
865.160	0.0142305
865.238	0.0142269
865.316	0.0142692
865.394	0.0141192
865.472	0.0141277
865.550	0.0141483
865.628	0.0140815
865.706	0.0140146
865.785	0.0141630
865.863	0.0139688
865.941	0.0140408
866.019	0.0139405
866.097	0.0138881
866.175	0.0139152
866.253	0.0139245
866.331	0.0139626
866.410	0.0138384
866.488	0.0137434
866.566	0.0136961
866.644	0.0138386
866.722	0.0138723
866.800	0.0136666
866.878	0.0138055
866.956	0.0137200
867.035	0.0136584
867.113	0.0139060
867.191	0.0137516
867.269	0.0137750
867.347	0.0138506
867.425	0.0138206
867.503	0.0138070
867.581	0.0137903
867.660	0.0138638
867.738	0.0139336
867.816	0.0138196
867.894	0.0137823
867.972	0.0140295
868.050	0.0139053
868.128	0.0139278
868.206	0.0139992
868.285	0.0139595
868.363	0.0142880
868.441	0.0140952
868.519	0.0140924
868.597	0.0139304
868.675	0.0142012
868.753	0.0141817
868.831	0.0141316
868.910	0.0140776
868.988	0.0140408
869.066	0.0141615
869.144	0.0140680
869.222	0.0140472
869.300	0.0142190
869.378	0.0142557
869.456	0.0140261
869.535	0.0140828
869.613	0.0140163
869.691	0.0140336
869.769	0.0140252
869.847	0.0141911
869.925	0.0141104
870.003	0.0141670
870.081	0.0140806
870.160	0.0141659
870.238	0.0142310
870.316	0.0141419
870.394	0.0142635
870.472	0.0142823
870.550	0.0144519
870.628	0.0144101
870.706	0.0144164
870.785	0.0145547
870.863	0.0146445
870.941	0.0145786
871.019	0.0146331
871.097	0.0145761
871.175	0.0145724
871.253	0.0146323
871.331	0.0145929
871.410	0.0145557
871.488	0.0147401
871.566	0.0146942
871.644	0.0145833
871.722	0.0145642
871.800	0.0145525
871.878	0.0144856
871.956	0.0145772
872.035	0.0144925
872.113	0.0143566
872.191	0.0143826
872.269	0.0143551
872.347	0.0143110
872.425	0.0143224
872.503	0.0143240
872.581	0.0142877
872.660	0.0143099
872.738	0.0141971
872.816	0.0141332
872.894	0.0141261
872.972	0.0142236
873.050	0.0142113
873.128	0.0141888
873.206	0.0140424
873.285	0.0139497
873.363	0.0140953
873.441	0.0139664
873.519	0.0140012
873.597	0.0141946
873.675	0.0140553
873.753	0.0138748
873.831	0.0139331
873.910	0.0139362
873.988	0.0139023
874.066	0.0138463
874.144	0.0139207
874.222	0.0138271
874.300	0.0140318
874.378	0.0138278
874.456	0.0137986
874.535	0.0138735
874.613	0.0139344
874.691	0.0138928
874.769	0.0139113
874.847	0.0139391
874.925	0.0139095
875.003	0.0139256
875.081	0.0139175
875.160	0.0141049
875.238	0.0140626
875.316	0.0139793
875.394	0.0141064
875.472	0.0141785
875.550	0.0141907
875.628	0.0142069
875.706	0.0141689
875.785	0.0140668
875.863	0.0141624
875.941	0.0143319
876.019	0.0142667
876.097	0.0140282
876.175	0.0141151
876.253	0.0142217
876.331	0.0141859
876.410	0.0142642
876.488	0.0142097
876.566	0.0141881
876.644	0.0141506
876.722	0.0141636
876.800	0.0141794
876.878	0.0141888
876.956	0.0141711
877.035	0.0141499
877.113	0.0142451
877.191	0.0142165
877.269	0.0143074
877.347	0.0142822
877.425	0.0141969
877.503	0.0143918
877.581	0.0143049
877.660	0.0143881
877.738	0.0144191
877.816	0.0144185
877.894	0.0144327
877.972	0.0144861
878.050	0.0145179
878.128	0.0145428
878.206	0.0145585
878.285	0.0144798
878.363	0.0144719
878.441	0.0144536
878.519	0.0144495
878.597	0.0145747
878.675	0.0145168
878.753	0.0145255
878.831	0.0144637
878.910	0.0144615
878.988	0.0145299
879.066	0.0144913
879.144	0.0142570
879.222	0.0142120
879.300	0.0142225
879.378	0.0142989
879.456	0.0143580
879.535	0.0140941
879.613	0.0141685
879.691	0.0141640
879.769	0.0139771
879.847	0.0140012
879.925	0.0141577
880.003	0.0139779
880.081	0.0139417
880.160	0.0139335
880.238	0.0138055
880.316	0.0138242
880.394	0.0140332
880.472	0.0139721
880.550	0.0139546
880.628	0.0137808
880.706	0.0138823
880.785	0.0137761
880.863	0.0137366
880.941	0.0138214
881.019	0.0137987
881.097	0.0138308
881.175	0.0137940
881.253	0.0139383
881.331	0.0138750
881.410	0.0136826
881.488	0.0137788
881.566	0.0138242
881.644	0.0138590
881.722	0.0138245
881.800	0.0138596
881.878	0.0137654
881.956	0.0140005
882.035	0.0139414
882.113	0.0139260
882.191	0.0139642
882.269	0.0140783
882.347	0.0139725
882.425	0.0139414
882.503	0.0140599
882.581	0.0142526
882.660	0.0141859
882.738	0.0141196
882.816	0.0141245
882.894	0.0143008
882.972	0.0142467
883.050	0.0142001
883.128	0.0141424
883.206	0.0141180
883.285	0.0141692
883.363	0.0141547
883.441	0.0141978
883.519	0.0141524
883.597	0.0141834
883.675	0.0142242
883.753	0.0140646
883.831	0.0141564
883.910	0.0139354
883.988	0.0139916
884.066	0.0140076
884.144	0.0139056
884.222	0.0141026
884.300	0.0140673
884.378	0.0140995
884.456	0.0140243
884.535	0.0140835
884.613	0.0140470
884.691	0.0141562
884.769	0.0141273
884.847	0.0141989
884.925	0.0143165
885.003	0.0143594
885.081	0.0143626
885.160	0.0143064
885.238	0.0144048
885.316	0.0145295
885.394	0.0145494
885.472	0.0144649
885.550	0.0146445
885.628	0.0144652
885.706	0.0144523
885.785	0.0144408
885.863	0.0142802
885.941	0.0142132
886.019	0.0143157
886.097	0.0143748
886.175	0.0142332
886.253	0.0140156
886.331	0.0140586
886.410	0.0140828
886.488	0.0141541
886.566	0.0140128
886.644	0.0139767
886.722	0.0140032
886.800	0.0139749
886.878	0.0139019
886.956	0.0138905
887.035	0.0139021
887.113	0.0138755
887.191	0.0137531
887.269	0.0136507
887.347	0.0137859
887.425	0.0137266
887.503	0.0136487
887.581	0.0136302
887.660	0.0136357
887.738	0.0136152
887.816	0.0135639
887.894	0.0136371
887.972	0.0137095
888.050	0.0136806
888.128	0.0136581
888.206	0.0135741
888.285	0.0136102
888.363	0.0136522
888.441	0.0136015
888.519	0.0136526
888.597	0.0136013
888.675	0.0137567
888.753	0.0136243
888.831	0.0136946
888.910	0.0138026
888.988	0.0136064
889.066	0.0138403
889.144	0.0138873
889.222	0.0138944
889.300	0.0140160
889.378	0.0139944
889.456	0.0139094
889.535	0.0138756
889.613	0.0141958
889.691	0.0139903
889.769	0.0140694
889.847	0.0141143
889.925	0.0140210
890.003	0.0141307
890.081	0.0140641
890.160	0.0141071
890.238	0.0141803
890.316	0.0143089
890.394	0.0142340
890.472	0.0142096
890.550	0.0142040
890.628	0.0141989
890.706	0.0143505
890.785	0.0142176
890.863	0.0142179
890.941	0.0143831
891.019	0.0143447
891.097	0.0143882
891.175	0.0142049
891.253	0.0143886
891.331	0.0143372
891.410	0.0142730
891.488	0.0141662
891.566	0.0143707
891.644	0.0143732
891.722	0.0143292
891.800	0.0143202
891.878	0.0143415
891.956	0.0143908
892.035	0.0143953
892.113	0.0144633
892.191	0.0144934
892.269	0.0145873
892.347	0.0145125
892.425	0.0146271
892.503	0.0145846
892.581	0.0146176
892.660	0.0145427
892.738	0.0146250
892.816	0.0146075
892.894	0.0146357
892.972	0.0145966
893.050	0.0145982
893.128	0.0144747
893.206	0.0144125
893.285	0.0144162
893.363	0.0143570
893.441	0.0144439
893.519	0.0144091
893.597	0.0143126
893.675	0.0141659
893.753	0.0142175
893.831	0.0143445
893.910	0.0142331
893.988	0.0140381
894.066	0.0140392
894.144	0.0140522
894.222	0.0140844
894.300	0.0140170
894.378	0.0138915
894.456	0.0139590
894.535	0.0138450
894.613	0.0137490
894.691	0.0137572
894.769	0.0137032
894.847	0.0136302
894.925	0.0137653
895.003	0.0136391
895.081	0.0136006
895.160	0.0136664
895.238	0.0136903
895.316	0.0135229
895.394	0.0136040
895.472	0.0136174
895.550	0.0135250
895.628	0.0136346
895.706	0.0135739
895.785	0.0136192
895.863	0.0136860
895.941	0.0137729
896.019	0.0137674
896.097	0.0137384
896.175	0.0138461
896.253	0.0138499
896.331	0.0138828
896.410	0.0140044
896.488	0.0139746
896.566	0.0139278
896.644	0.0139301
896.722	0.0140875
896.800	0.0141187
896.878	0.0141101
896.956	0.0140430
897.035	0.0141468
897.113	0.0144556
897.191	0.0141239
897.269	0.0144225
897.347	0.0143382
897.425	0.0142126
897.503	0.0141615
897.581	0.0143793
897.660	0.0143915
897.738	0.0144199
897.816	0.0143359
897.894	0.0143006
897.972	0.0144191
898.050	0.0143299
898.128	0.0142369
898.206	0.0142022
898.285	0.0142018
898.363	0.0143591
898.441	0.0143093
898.519	0.0142981
898.597	0.0143681
898.675	0.0143979
898.753	0.0143633
898.831	0.0141904
898.910	0.0142503
898.988	0.0144704
899.066	0.0144654
899.144	0.0143416
899.222	0.0143704
899.300	0.0144570
899.378	0.0144745
899.456	0.0145513
899.535	0.0144549
899.613	0.0146022
899.691	0.0145078
899.769	0.0144566
899.847	0.0145657
899.925	0.0145589
900.003	0.0143600
900.081	0.0143060
900.160	0.0144220
900.238	0.0143090
900.316	0.0143742
900.394	0.0144101
900.472	0.0142981
900.550	0.0141630
900.628	0.0142015
900.706	0.0140845
900.785	0.0142056
900.863	0.0141524
900.941	0.0140858
901.019	0.0142649
901.097	0.0140201
901.175	0.0141188
901.253	0.0139719
901.331	0.0139389
901.410	0.0140983
901.488	0.0138767
901.566	0.0138772
901.644	0.0136864
901.722	0.0138014
901.800	0.0138742
901.878	0.0138950
901.956	0.0138934
902.035	0.0137681
902.113	0.0138923
902.191	0.0137469
902.269	0.0138862
902.347	0.0140465
902.425	0.0139088
902.503	0.0137180
902.581	0.0135965
902.660	0.0137030
902.738	0.0138927
902.816	0.0138198
902.894	0.0138001
902.972	0.0139224
903.050	0.0138686
903.128	0.0138944
903.206	0.0140701
903.285	0.0139944
903.363	0.0138840
903.441	0.0137762
903.519	0.0140280
903.597	0.0140450
903.675	0.0141624
903.753	0.0139368
903.831	0.0142342
903.910	0.0142358
903.988	0.0141068
904.066	0.0141368
904.144	0.0143369
904.222	0.0142630
904.300	0.0142778
904.378	0.0141015
904.456	0.0142329
904.535	0.0141821
904.613	0.0142471
904.691	0.0142551
904.769	0.0142819
904.847	0.0141500
904.925	0.0141798
905.003	0.0139838
905.081	0.0142216
905.160	0.0141170
905.238	0.0143110
905.316	0.0141580
905.394	0.0141505
905.472	0.0139822
905.550	0.0140701
905.628	0.0141965
905.706	0.0140607
905.785	0.0140636
905.863	0.0140807
905.941	0.0140624
906.019	0.0141454
906.097	0.0141183
906.175	0.0140303
906.253	0.0140479
906.331	0.0141246
906.410	0.0141631
906.488	0.0141874
906.566	0.0139617
906.644	0.0140839
906.722	0.0141521
906.800	0.0141879
906.878	0.0142273
906.956	0.0141730
907.035	0.0143131
907.113	0.0141264
907.191	0.0142683
907.269	0.0142436
907.347	0.0143961
907.425	0.0143011
907.503	0.0142290
907.581	0.0141902
907.660	0.0142294
907.738	0.0141030
907.816	0.0142665
907.894	0.0141931
907.972	0.0140884
908.050	0.0141336
908.128	0.0140600
908.206	0.0140451
908.285	0.0140737
908.363	0.0142802
908.441	0.0139988
908.519	0.0139860
908.597	0.0139851
908.675	0.0138958
908.753	0.0138842
908.831	0.0139307
908.910	0.0138075
908.988	0.0137904
909.066	0.0137823
909.144	0.0139192
909.222	0.0139980
909.300	0.0139400
909.378	0.0137631
909.456	0.0137749
909.535	0.0137437
909.613	0.0139164
909.691	0.0138025
909.769	0.0136441
909.847	0.0137154
909.925	0.0137943
910.003	0.0137516
910.081	0.0138769
910.160	0.0138618
910.238	0.0137366
910.316	0.0139204
910.394	0.0137775
910.472	0.0139733
910.550	0.0139030
910.628	0.0139536
910.706	0.0140636
910.785	0.0139580
910.863	0.0138592
910.941	0.0140656
911.019	0.0140498
911.097	0.0141124
911.175	0.0140591
911.253	0.0141496
911.331	0.0140329
911.410	0.0140971
911.488	0.0141786
911.566	0.0141492
911.644	0.0141979
911.722	0.0142084
911.800	0.0141775
911.878	0.0142587
911.956	0.0142952
912.035	0.0142478
912.113	0.0140668
912.191	0.0140391
912.269	0.0142166
912.347	0.0141518
912.425	0.0139646
912.503	0.0140461
912.581	0.0142337
912.660	0.0141335
912.738	0.0140793
912.816	0.0141371
912.894	0.0139944
912.972	0.0140393
913.050	0.0140445
913.128	0.0140374
913.206	0.0140573
913.285	0.0140757
913.363	0.0140904
913.441	0.0140097
913.519	0.0139428
913.597	0.0140814
913.675	0.0141605
913.753	0.0140924
913.831	0.0140743
913.910	0.0142342
913.988	0.0142377
914.066	0.0141296
914.144	0.0142416
914.222	0.0142201
914.300	0.0142461
914.378	0.0142774
914.456	0.0143607
914.535	0.0143121
914.613	0.0142296
914.691	0.0143816
914.769	0.0142034
914.847	0.0141755
914.925	0.0142212
915.003	0.0142245
915.081	0.0142595
915.160	0.0142278
915.238	0.0142187
915.316	0.0141642
915.394	0.0141339
915.472	0.0142010
915.550	0.0141113
915.628	0.0139998
915.706	0.0139957
915.785	0.0140473
915.863	0.0139854
915.941	0.0139513
916.019	0.0140232
916.097	0.0140043
916.175	0.0140109
916.253	0.0140512
916.331	0.0139747
916.410	0.0139764
916.488	0.0139996
916.566	0.0139872
916.644	0.0139557
916.722	0.0140308
916.800	0.0140541
916.878	0.0139841
916.956	0.0139534
917.035	0.0140055
917.113	0.0140482
917.191	0.0139487
917.269	0.0140473
917.347	0.0139336
917.425	0.0140692
917.503	0.0139979
917.581	0.0140857
917.660	0.0140462
917.738	0.0139642
917.816	0.0141718
917.894	0.0141073
917.972	0.0140020
918.050	0.0141595
918.128	0.0142195
918.206	0.0141896
918.285	0.0141464
918.363	0.0141467
918.441	0.0142215
918.519	0.0142011
918.597	0.0142223
918.675	0.0142295
918.753	0.0143835
918.831	0.0143169
918.910	0.0141100
918.988	0.0141598
919.066	0.0143779
919.144	0.0142904
919.222	0.0142502
919.300	0.0142045
919.378	0.0142713
919.456	0.0142590
919.535	0.0142051
919.613	0.0142042
919.691	0.0142154
919.769	0.0140009
919.847	0.0141453
919.925	0.0140312
920.003	0.0139696
920.081	0.0141800
920.160	0.0140639
920.238	0.0140534
920.316	0.0140126
920.394	0.0140014
920.472	0.0139964
920.550	0.0139262
920.628	0.0140150
920.706	0.0140884
920.785	0.0141024
920.863	0.0142113
920.941	0.0139710
921.019	0.0140746
921.097	0.0141842
921.175	0.0141682
921.253	0.0141373
921.331	0.0142503
921.410	0.0142987
921.488	0.0140524
921.566	0.0141961
921.644	0.0142855
921.722	0.0143436
921.800	0.0143333
921.878	0.0142336
921.956	0.0142905
922.035	0.0143015
922.113	0.0143434
922.191	0.0142860
922.269	0.0142139
922.347	0.0142269
922.425	0.0142436
922.503	0.0143079
922.581	0.0142067
922.660	0.0140257
922.738	0.0141384
922.816	0.0141630
922.894	0.0142025
922.972	0.0140493
923.050	0.0139442
923.128	0.0139675
923.206	0.0138440
923.285	0.0140401
923.363	0.0138705
923.441	0.0138451
923.519	0.0139684
923.597	0.0139699
923.675	0.0140312
923.753	0.0138533
923.831	0.0138821
923.910	0.0138685
923.988	0.0138065
924.066	0.0139021
924.144	0.0138959
924.222	0.0137965
924.300	0.0138438
924.378	0.0139719
924.456	0.0139300
924.535	0.0138882
924.613	0.0138587
924.691	0.0137296
924.769	0.0139787
924.847	0.0138987
924.925	0.0139257
925.003	0.0138435
925.081	0.0139116
925.160	0.0140347
925.238	0.0140646
925.316	0.0139495
925.394	0.0140340
925.472	0.0139674
925.550	0.0140269
925.628	0.0141132
925.706	0.0141605
925.785	0.0141045
925.863	0.0141801
925.941	0.0141000
926.019	0.0141488
926.097	0.0142487
926.175	0.0140902
926.253	0.0140738
926.331	0.0140015
926.410	0.0142305
926.488	0.0141699
926.566	0.0141084
926.644	0.0141199
926.722	0.0141803
926.800	0.0140292
926.878	0.0142801
926.956	0.0141980
927.035	0.0141267
927.113	0.0141016
927.191	0.0142832
927.269	0.0142986
927.347	0.0141064
927.425	0.0141440
927.503	0.0140009
927.581	0.0141093
927.660	0.0141637
927.738	0.0141884
927.816	0.0142442
927.894	0.0142924
927.972	0.0141858
928.050	0.0141914
928.128	0.0143774
928.206	0.0144135
928.285	0.0142931
928.363	0.0142805
928.441	0.0143234
928.519	0.0143502
928.597	0.0145358
928.675	0.0145228
928.753	0.0144642
928.831	0.0143074
928.910	0.0143142
928.988	0.0143792
929.066	0.0145364
929.144	0.0144873
929.222	0.0144497
929.300	0.0143603
929.378	0.0143803
929.456	0.0143408
929.535	0.0142876
929.613	0.0141064
929.691	0.0141788
929.769	0.0141409
929.847	0.0141174
929.925	0.0138844
930.003	0.0139832
930.081	0.0140810
930.160	0.0141211
930.238	0.0139654
930.316	0.0138658
930.394	0.0138558
930.472	0.0139784
930.550	0.0138494
930.628	0.0139726
930.706	0.0139442
930.785	0.0139642
930.863	0.0138163
930.941	0.0139742
931.019	0.0139288
931.097	0.0138202
931.175	0.0138895
931.253	0.0138882
931.331	0.0139013
931.410	0.0139143
931.488	0.0137766
931.566	0.0138589
931.644	0.0138509
931.722	0.0139645
931.800	0.0139426
931.878	0.0138868
931.956	0.0139713
932.035	0.0141060
932.113	0.0141142
932.191	0.0141793
932.269	0.0140119
932.347	0.0140742
932.425	0.0139995
932.503	0.0140910
932.581	0.0140485
932.660	0.0140466
932.738	0.0141816
932.816	0.0140478
932.894	0.0141808
932.972	0.0141696
933.050	0.0141644
933.128	0.0141522
933.206	0.0142018
933.285	0.0140697
933.363	0.0143771
933.441	0.0141263
933.519	0.0141442
933.597	0.0142716
933.675	0.0143044
933.753	0.0142230
933.831	0.0141336
933.910	0.0141210
933.988	0.0140072
934.066	0.0141607
934.144	0.0141734
934.222	0.0142003
934.300	0.0141664
934.378	0.0140260
934.456	0.0140548
934.535	0.0140049
934.613	0.0140424
934.691	0.0142058
934.769	0.0140969
934.847	0.0140060
934.925	0.0141681
935.003	0.0141089
935.081	0.0141476
935.160	0.0141979
935.238	0.0141699
935.316	0.0140035
935.394	0.0140091
935.472	0.0141641
935.550	0.0142362
935.628	0.0141268
935.706	0.0141947
935.785	0.0143518
935.863	0.0142989
935.941	0.0143133
936.019	0.0144024
936.097	0.0143601
936.175	0.0143150
936.253	0.0143716
936.331	0.0141734
936.410	0.0142390
936.488	0.0142664
936.566	0.0143633
936.644	0.0141721
936.722	0.0141884
936.800	0.0140231
936.878	0.0139964
936.956	0.0139760
937.035	0.0139014
937.113	0.0139285
937.191	0.0138792
937.269	0.0138915
937.347	0.0139715
937.425	0.0137133
937.503	0.0137278
937.581	0.0137977
937.660	0.0138055
937.738	0.0136525
937.816	0.0136501
937.894	0.0138531
937.972	0.0137469
938.050	0.0136617
938.128	0.0138476
938.206	0.0138041
938.285	0.0137983
938.363	0.0137889
938.441	0.0139656
938.519	0.0139027
938.597	0.0137941
938.675	0.0139067
938.753	0.0140034
938.831	0.0139575
938.910	0.0140540
938.988	0.0139860
939.066	0.0139519
939.144	0.0140205
939.222	0.0140170
939.300	0.0141210
939.378	0.0141047
939.456	0.0142664
939.535	0.0142817
939.613	0.0141307
939.691	0.0141168
939.769	0.0141268
939.847	0.0142219
939.925	0.0142278
940.003	0.0142328
940.081	0.0142261
940.160	0.0142147
940.238	0.0142738
940.316	0.0141686
940.394	0.0142406
940.472	0.0142454
940.550	0.0142746
940.628	0.0142629
940.706	0.0141425
940.785	0.0142117
940.863	0.0140969
940.941	0.0141216
941.019	0.0141235
941.097	0.0141174
941.175	0.0141917
941.253	0.0141635
941.331	0.0140429
941.410	0.0138464
941.488	0.0139675
941.566	0.0140709
941.644	0.0139752
941.722	0.0138790
941.800	0.0139616
941.878	0.0140486
941.956	0.0139736
942.035	0.0139295
942.113	0.0139367
942.191	0.0140473
942.269	0.0140025
942.347	0.0139387
942.425	0.0138944
942.503	0.0141167
942.581	0.0139235
942.660	0.0139475
942.738	0.0140633
942.816	0.0140878
942.894	0.0142305
942.972	0.0141483
943.050	0.0142300
943.128	0.0142461
943.206	0.0142559
943.285	0.0144141
943.363	0.0142294
943.441	0.0143926
943.519	0.0143521
943.597	0.0144670
943.675	0.0143115
943.753	0.0143334
943.831	0.0143265
943.910	0.0144514
943.988	0.0143649
944.066	0.0142320
944.144	0.0142655
944.222	0.0142610
944.300	0.0143337
944.378	0.0142763
944.456	0.0143565
944.535	0.0141527
944.613	0.0143044
944.691	0.0141533
944.769	0.0141765
944.847	0.0142529
944.925	0.0142451
945.003	0.0141920
945.081	0.0141475
945.160	0.0141344
945.238	0.0142411
945.316	0.0142892
945.394	0.0142161
945.472	0.0142661
945.550	0.0142163
945.628	0.0142789
945.706	0.0142934
945.785	0.0143703
945.863	0.0143435
945.941	0.0143650
946.019	0.0144510
946.097	0.0142338
946.175	0.0143513
946.253	0.0144234
946.331	0.0143262
946.410	0.0142562
946.488	0.0143247
946.566	0.0142677
946.644	0.0144180
946.722	0.0144664
946.800	0.0143857
946.878	0.0142360
946.956	0.0142532
947.035	0.0142121
947.113	0.0142764
947.191	0.0141730
947.269	0.0142503
947.347	0.0141580
947.425	0.0141512
947.503	0.0141812
947.581	0.0141130
947.660	0.0142274
947.738	0.0142185
947.816	0.0141119
947.894	0.0140419
947.972	0.0140971
948.050	0.0139772
948.128	0.0140914
948.206	0.0140444
948.285	0.0138955
948.363	0.0139378
948.441	0.0139487
948.519	0.0139806
948.597	0.0140331
948.675	0.0138216
948.753	0.0138297
948.831	0.0139056
948.910	0.0137451
948.988	0.0139207
949.066	0.0138641
949.144	0.0137022
949.222	0.0139458
949.300	0.0138538
949.378	0.0139595
949.456	0.0137715
949.535	0.0139110
949.613	0.0139708
949.691	0.0139168
949.769	0.0140050
949.847	0.0140221
949.925	0.0142047
950.003	0.0141707
950.081	0.0141689
950.160	0.0141296
950.238	0.0142267
950.316	0.0143277
950.394	0.0143697
950.472	0.0144217
950.550	0.0144361
950.628	0.0144200
950.706	0.0144090
950.785	0.0146100
950.863	0.0144525
950.941	0.0144605
951.019	0.0145908
951.097	0.0144928
951.175	0.0144566
951.253	0.0145206
951.331	0.0144183
951.410	0.0142453
951.488	0.0144355
951.566	0.0143354
951.644	0.0144087
951.722	0.0143735
951.800	0.0143974
951.878	0.0142971
951.956	0.0143610
952.035	0.0142870
952.113	0.0142674
952.191	0.0142656
952.269	0.0143116
952.347	0.0142987
952.425	0.0140911
952.503	0.0142166
952.581	0.0141977
952.660	0.0142259
952.738	0.0142194
952.816	0.0143219
952.894	0.0141185
952.972	0.0142336
953.050	0.0141825
953.128	0.0142020
953.206	0.0141254
953.285	0.0141437
953.363	0.0141463
953.441	0.0139275
953.519	0.0140269
953.597	0.0141199
953.675	0.0141219
953.753	0.0140615
953.831	0.0140818
953.910	0.0140904
953.988	0.0139357
954.066	0.0139066
954.144	0.0138831
954.222	0.0140182
954.300	0.0140075
954.378	0.0139612
954.456	0.0138833
954.535	0.0139035
954.613	0.0139028
954.691	0.0139832
954.769	0.0138926
954.847	0.0138174
954.925	0.0139537
955.003	0.0138490
955.081	0.0138082
955.160	0.0138107
955.238	0.0139133
955.316	0.0139948
955.394	0.0139021
955.472	0.0139201
955.550	0.0139157
955.628	0.0139053
955.706	0.0139303
955.785	0.0138239
955.863	0.0139780
955.941	0.0138008
956.019	0.0138017
956.097	0.0138806
956.175	0.0137907
956.253	0.0136504
956.331	0.0137636
956.410	0.0138982
956.488	0.0138784
956.566	0.0138837
956.644	0.0138013
956.722	0.0138236
956.800	0.0140095
956.878	0.0138480
956.956	0.0138892
957.035	0.0139629
957.113	0.0139689
957.191	0.0139661
957.269	0.0140054
957.347	0.0141196
957.425	0.0140292
957.503	0.0140695
957.581	0.0140667
957.660	0.0140817
957.738	0.0141445
957.816	0.0140452
957.894	0.0140946
957.972	0.0140982
958.050	0.0140710
958.128	0.0140048
958.206	0.0140757
958.285	0.0140363
958.363	0.0139946
958.441	0.0140577
958.519	0.0140267
958.597	0.0140217
958.675	0.0141277
958.753	0.0141115
958.831	0.0141858
958.910	0.0141058
958.988	0.0142392
959.066	0.0141791
959.144	0.0140315
959.222	0.0140446
959.300	0.0141039
959.378	0.0140840
959.456	0.0140735
959.535	0.0140879
959.613	0.0141508
959.691	0.0140958
959.769	0.0140948
959.847	0.0142361
959.925	0.0141125
960.003	0.0141238
960.081	0.0141616
960.160	0.0140965
960.238	0.0141705
960.316	0.0141515
960.394	0.0140307
960.472	0.0139118
960.550	0.0138866
960.628	0.0139485
960.706	0.0139946
960.785	0.0137716
960.863	0.0139500
960.941	0.0138097
961.019	0.0136868
961.097	0.0137997
961.175	0.0137399
961.253	0.0138503
961.331	0.0136474
961.410	0.0136904
961.488	0.0137404
961.566	0.0137282
961.644	0.0135767
961.722	0.0136773
961.800	0.0136761
961.878	0.0136763
961.956	0.0138570
962.035	0.0136491
962.113	0.0136223
962.191	0.0138389
962.269	0.0137901
962.347	0.0137332
962.425	0.0137844
962.503	0.0138555
962.581	0.0138952
962.660	0.0139092
962.738	0.0138393
962.816	0.0138134
962.894	0.0138624
962.972	0.0139356
963.050	0.0140269
963.128	0.0138461
963.206	0.0139088
963.285	0.0140141
963.363	0.0139787
963.441	0.0140480
963.519	0.0139946
963.597	0.0140046
963.675	0.0140025
963.753	0.0140911
963.831	0.0142502
963.910	0.0142883
963.988	0.0142108
964.066	0.0142225
964.144	0.0144064
964.222	0.0143107
964.300	0.0143002
964.378	0.0144962
964.456	0.0145061
964.535	0.0142899
964.613	0.0143850
964.691	0.0144741
964.769	0.0144077
964.847	0.0145619
964.925	0.0145071
965.003	0.0145538
965.081	0.0145982
965.160	0.0146442
965.238	0.0145486
965.316	0.0144065
965.394	0.0143441
965.472	0.0144528
965.550	0.0145715
965.628	0.0144582
965.706	0.0143700
965.785	0.0143707
965.863	0.0143139
965.941	0.0143573
966.019	0.0142464
966.097	0.0142987
966.175	0.0141164
966.253	0.0142586
966.331	0.0141942
966.410	0.0141693
966.488	0.0142354
966.566	0.0141709
966.644	0.0140307
966.722	0.0141644
966.800	0.0140813
966.878	0.0140746
966.956	0.0141756
967.035	0.0141647
967.113	0.0139788
967.191	0.0140778
967.269	0.0140771
967.347	0.0140195
967.425	0.0140295
967.503	0.0139805
967.581	0.0141650
967.660	0.0139959
967.738	0.0140525
967.816	0.0140068
967.894	0.0138958
967.972	0.0138547
968.050	0.0139890
968.128	0.0139788
968.206	0.0139797
968.285	0.0138619
968.363	0.0140327
968.441	0.0141245
968.519	0.0140444
968.597	0.0139997
968.675	0.0141403
968.753	0.0141424
968.831	0.0140418
968.910	0.0141084
968.988	0.0142046
969.066	0.0141216
969.144	0.0141453
969.222	0.0142287
969.300	0.0142046
969.378	0.0144402
969.456	0.0144642
969.535	0.0143293
969.613	0.0143941
969.691	0.0144581
969.769	0.0144007
969.847	0.0144476
969.925	0.0144324
970.003	0.0144432
970.081	0.0145232
970.160	0.0145153
970.238	0.0145332
970.316	0.0143073
970.394	0.0145077
970.472	0.0144563
970.550	0.0144448
970.628	0.0144156
970.706	0.0144147
970.785	0.0143697
970.863	0.0143407
970.941	0.0143973
971.019	0.0143665
971.097	0.0143549
971.175	0.0144089
971.253	0.0143468
971.331	0.0143303
971.410	0.0143213
971.488	0.0143674
971.566	0.0143616
971.644	0.0143307
971.722	0.0143784
971.800	0.0142309
971.878	0.0142715
971.956	0.0143379
972.035	0.0142631
972.113	0.0142505
972.191	0.0142644
972.269	0.0142759
972.347	0.0142584
972.425	0.0141789
972.503	0.0141885
972.581	0.0143365
972.660	0.0142725
972.738	0.0141571
972.816	0.0142078
972.894	0.0141575
972.972	0.0141210
973.050	0.0141961
973.128	0.0142223
973.206	0.0143002
973.285	0.0141124
973.363	0.0140737
973.441	0.0141062
973.519	0.0141515
973.597	0.0140557
973.675	0.0141003
973.753	0.0142719
973.831	0.0140486
973.910	0.0140661
973.988	0.0141847
974.066	0.0141215
974.144	0.0141752
974.222	0.0140570
974.300	0.0140637
974.378	0.0140884
974.456	0.0141781
974.535	0.0140233
974.613	0.0140156
974.691	0.0138853
974.769	0.0138870
974.847	0.0139507
974.925	0.0138905
975.003	0.0138626
975.081	0.0139808
975.160	0.0139171
975.238	0.0140073
975.316	0.0138345
975.394	0.0138573
975.472	0.0139458
975.550	0.0138142
975.628	0.0139988
975.706	0.0140074
975.785	0.0139111
975.863	0.0139150
975.941	0.0140557
976.019	0.0141085
976.097	0.0138546
976.175	0.0139692
976.253	0.0139654
976.331	0.0141165
976.410	0.0140480
976.488	0.0139243
976.566	0.0139777
976.644	0.0139578
976.722	0.0139844
976.800	0.0139805
976.878	0.0140312
976.956	0.0140963
977.035	0.0139568
977.113	0.0141555
977.191	0.0140636
977.269	0.0138815
977.347	0.0138926
977.425	0.0139783
977.503	0.0139834
977.581	0.0139915
977.660	0.0139827
977.738	0.0138006
977.816	0.0138515
977.894	0.0140289
977.972	0.0138625
978.050	0.0139661
978.128	0.0137704
978.206	0.0138831
978.285	0.0137374
978.363	0.0138116
978.441	0.0139075
978.519	0.0139046
978.597	0.0137504
978.675	0.0137696
978.753	0.0138484
978.831	0.0138920
978.910	0.0139393
978.988	0.0139420
979.066	0.0139796
979.144	0.0140544
979.222	0.0139494
979.300	0.0141097
979.378	0.0140415
979.456	0.0139488
979.535	0.0141132
979.613	0.0141547
979.691	0.0140961
979.769	0.0141586
979.847	0.0141424
979.925	0.0140034
