05/03/2022	20:41:58	Ver.	4.1	UNKNOWN
Optical Delay	660.003261	Delta X		0.078125	Sweeps	1	Scan Rate	0/0
Coordinates	Axis 1	NaN	Axis 2	NaN	Axis 3	NaN	Axis 4	NaN	Axis 5	NaN	Axis 6	0.000000
TX Power	0.000000	RX Power	0.000000

660.003	0.0142276
660.081	0.0141969
660.160	0.0141953
660.238	0.0143238
660.316	0.0143715
660.394	0.0142634
660.472	0.0143149
660.550	0.0142384
660.628	0.0143269
660.706	0.0142991
660.785	0.0140950
660.863	0.0141782
660.941	0.0142555
661.019	0.0142976
661.097	0.0141404
661.175	0.0143458
661.253	0.0142991
661.331	0.0142331
661.410	0.0141313
661.488	0.0142890
661.566	0.0142102
661.644	0.0142313
661.722	0.0140759
661.800	0.0142797
661.878	0.0142162
661.956	0.0141924
662.035	0.0143024
662.113	0.0141826
662.191	0.0143120
662.269	0.0142022
662.347	0.0142632
662.425	0.0143916
662.503	0.0143589
662.581	0.0142146
662.660	0.0142931
662.738	0.0141302
662.816	0.0141892
662.894	0.0142051
662.972	0.0141314
663.050	0.0142043
663.128	0.0142593
663.206	0.0142133
663.285	0.0141607
663.363	0.0142222
663.441	0.0143198
663.519	0.0142242
663.597	0.0143659
663.675	0.0141867
663.753	0.0142052
663.831	0.0143107
663.910	0.0142717
663.988	0.0142027
664.066	0.0144539
664.144	0.0141386
664.222	0.0142542
664.300	0.0142764
664.378	0.0142241
664.456	0.0142535
664.535	0.0142350
664.613	0.0143474
664.691	0.0143621
664.769	0.0141519
664.847	0.0141858
664.925	0.0143519
665.003	0.0143270
665.081	0.0143562
665.160	0.0141744
665.238	0.0142065
665.316	0.0142746
665.394	0.0142367
665.472	0.0144025
665.550	0.0143924
665.628	0.0142679
665.706	0.0142456
665.785	0.0142783
665.863	0.0143262
665.941	0.0142154
666.019	0.0142381
666.097	0.0145292
666.175	0.0143724
666.253	0.0144041
666.331	0.0143143
666.410	0.0142943
666.488	0.0142598
666.566	0.0142920
666.644	0.0143764
666.722	0.0143180
666.800	0.0144355
666.878	0.0143999
666.956	0.0142869
667.035	0.0143472
667.113	0.0142501
667.191	0.0143517
667.269	0.0143205
667.347	0.0142075
667.425	0.0143464
667.503	0.0143418
667.581	0.0143961
667.660	0.0143436
667.738	0.0143020
667.816	0.0143084
667.894	0.0143980
667.972	0.0142260
668.050	0.0143311
668.128	0.0144155
668.206	0.0143599
668.285	0.0143721
668.363	0.0144764
668.441	0.0144509
668.519	0.0143047
668.597	0.0145005
668.675	0.0143766
668.753	0.0143096
668.831	0.0143755
668.910	0.0142779
668.988	0.0143640
669.066	0.0143033
669.144	0.0142812
669.222	0.0143173
669.300	0.0142638
669.378	0.0143394
669.456	0.0143192
669.535	0.0144587
669.613	0.0143352
669.691	0.0142441
669.769	0.0141925
669.847	0.0144830
669.925	0.0144479
670.003	0.0143892
670.081	0.0143563
670.160	0.0143468
670.238	0.0143035
670.316	0.0143617
670.394	0.0143555
670.472	0.0144390
670.550	0.0144165
670.628	0.0142445
670.706	0.0143170
670.785	0.0143809
670.863	0.0143274
670.941	0.0143718
671.019	0.0144016
671.097	0.0144405
671.175	0.0144253
671.253	0.0143591
671.331	0.0143615
671.410	0.0143340
671.488	0.0143235
671.566	0.0144337
671.644	0.0143088
671.722	0.0143200
671.800	0.0142656
671.878	0.0142874
671.956	0.0143817
672.035	0.0144414
672.113	0.0143719
672.191	0.0144061
672.269	0.0142418
672.347	0.0143092
672.425	0.0144070
672.503	0.0143658
672.581	0.0144321
672.660	0.0144331
672.738	0.0143838
672.816	0.0143730
672.894	0.0142858
672.972	0.0143363
673.050	0.0144482
673.128	0.0143925
673.206	0.0144066
673.285	0.0144135
673.363	0.0143577
673.441	0.0144246
673.519	0.0143547
673.597	0.0143650
673.675	0.0143766
673.753	0.0144811
673.831	0.0142175
673.910	0.0143778
673.988	0.0144570
674.066	0.0144556
674.144	0.0143451
674.222	0.0144286
674.300	0.0143558
674.378	0.0144508
674.456	0.0144367
674.535	0.0143624
674.613	0.0144273
674.691	0.0144503
674.769	0.0144114
674.847	0.0144175
674.925	0.0144817
675.003	0.0144509
675.081	0.0143856
675.160	0.0146082
675.238	0.0145600
675.316	0.0143544
675.394	0.0143990
675.472	0.0144110
675.550	0.0143929
675.628	0.0143521
675.706	0.0144108
675.785	0.0142763
675.863	0.0143377
675.941	0.0144440
676.019	0.0143941
676.097	0.0143464
676.175	0.0145146
676.253	0.0142339
676.331	0.0142892
676.410	0.0142815
676.488	0.0143177
676.566	0.0144188
676.644	0.0144577
676.722	0.0144865
676.800	0.0143818
676.878	0.0142810
676.956	0.0144666
677.035	0.0144082
677.113	0.0144810
677.191	0.0144347
677.269	0.0145256
677.347	0.0143922
677.425	0.0145350
677.503	0.0146201
677.581	0.0144028
677.660	0.0145731
677.738	0.0146089
677.816	0.0144740
677.894	0.0144562
677.972	0.0145524
678.050	0.0145535
678.128	0.0144723
678.206	0.0144615
678.285	0.0143969
678.363	0.0144734
678.441	0.0145200
678.519	0.0144930
678.597	0.0143165
678.675	0.0142545
678.753	0.0143590
678.831	0.0143153
678.910	0.0143517
678.988	0.0144277
679.066	0.0143250
679.144	0.0142678
679.222	0.0143225
679.300	0.0143275
679.378	0.0142461
679.456	0.0142896
679.535	0.0143462
679.613	0.0142686
679.691	0.0144506
679.769	0.0141729
679.847	0.0143645
679.925	0.0143987
680.003	0.0143312
680.081	0.0142796
680.160	0.0144172
680.238	0.0144275
680.316	0.0142836
680.394	0.0143970
680.472	0.0143609
680.550	0.0143456
680.628	0.0144233
680.706	0.0142319
680.785	0.0144891
680.863	0.0144386
680.941	0.0144234
681.019	0.0144656
681.097	0.0144689
681.175	0.0144112
681.253	0.0143491
681.331	0.0144119
681.410	0.0144977
681.488	0.0143795
681.566	0.0144258
681.644	0.0144087
681.722	0.0143818
681.800	0.0143396
681.878	0.0144711
681.956	0.0144667
682.035	0.0143086
682.113	0.0144442
682.191	0.0144058
682.269	0.0144005
682.347	0.0145746
682.425	0.0144526
682.503	0.0144785
682.581	0.0143398
682.660	0.0143575
682.738	0.0145037
682.816	0.0144240
682.894	0.0143408
682.972	0.0141464
683.050	0.0142050
683.128	0.0142545
683.206	0.0143149
683.285	0.0142999
683.363	0.0142326
683.441	0.0141766
683.519	0.0140167
683.597	0.0141621
683.675	0.0141592
683.753	0.0141808
683.831	0.0142272
683.910	0.0143261
683.988	0.0141710
684.066	0.0143072
684.144	0.0142863
684.222	0.0140762
684.300	0.0142599
684.378	0.0141716
684.456	0.0141710
684.535	0.0142260
684.613	0.0141570
684.691	0.0142317
684.769	0.0142905
684.847	0.0142070
684.925	0.0143482
685.003	0.0144168
685.081	0.0142543
685.160	0.0141392
685.238	0.0143409
685.316	0.0142812
685.394	0.0142399
685.472	0.0142735
685.550	0.0143515
685.628	0.0142941
685.706	0.0141910
685.785	0.0143105
685.863	0.0143684
685.941	0.0143613
686.019	0.0143005
686.097	0.0142953
686.175	0.0143488
686.253	0.0144154
686.331	0.0144254
686.410	0.0143766
686.488	0.0143969
686.566	0.0141566
686.644	0.0144257
686.722	0.0142869
686.800	0.0143122
686.878	0.0143864
686.956	0.0143735
687.035	0.0143530
687.113	0.0143276
687.191	0.0143109
687.269	0.0143441
687.347	0.0142420
687.425	0.0141570
687.503	0.0143039
687.581	0.0142571
687.660	0.0142628
687.738	0.0141496
687.816	0.0141326
687.894	0.0143225
687.972	0.0141705
688.050	0.0142517
688.128	0.0141164
688.206	0.0142310
688.285	0.0142479
688.363	0.0142278
688.441	0.0142744
688.519	0.0141011
688.597	0.0140575
688.675	0.0140632
688.753	0.0140549
688.831	0.0141209
688.910	0.0142061
688.988	0.0141209
689.066	0.0140625
689.144	0.0141282
689.222	0.0142160
689.300	0.0141716
689.378	0.0143295
689.456	0.0141358
689.535	0.0142089
689.613	0.0142704
689.691	0.0143804
689.769	0.0144412
689.847	0.0143412
689.925	0.0144450
690.003	0.0143201
690.081	0.0144070
690.160	0.0143903
690.238	0.0142333
690.316	0.0142573
690.394	0.0143072
690.472	0.0142133
690.550	0.0141169
690.628	0.0143525
690.706	0.0142323
690.785	0.0142256
690.863	0.0140942
690.941	0.0140679
691.019	0.0142614
691.097	0.0142567
691.175	0.0141483
691.253	0.0141708
691.331	0.0142828
691.410	0.0142475
691.488	0.0143145
691.566	0.0142858
691.644	0.0143098
691.722	0.0143109
691.800	0.0142683
691.878	0.0143369
691.956	0.0143845
692.035	0.0141259
692.113	0.0143204
692.191	0.0141937
692.269	0.0141951
692.347	0.0143564
692.425	0.0142200
692.503	0.0143147
692.581	0.0143302
692.660	0.0142799
692.738	0.0143029
692.816	0.0141663
692.894	0.0142724
692.972	0.0143175
693.050	0.0144892
693.128	0.0142793
693.206	0.0142538
693.285	0.0142574
693.363	0.0142638
693.441	0.0142736
693.519	0.0142287
693.597	0.0142024
693.675	0.0141451
693.753	0.0141397
693.831	0.0141887
693.910	0.0140319
693.988	0.0140294
694.066	0.0140478
694.144	0.0141035
694.222	0.0140708
694.300	0.0139956
694.378	0.0139122
694.456	0.0140087
694.535	0.0139963
694.613	0.0139724
694.691	0.0142236
694.769	0.0141744
694.847	0.0142856
694.925	0.0140970
695.003	0.0141751
695.081	0.0142597
695.160	0.0144084
695.238	0.0143372
695.316	0.0144039
695.394	0.0143531
695.472	0.0144512
695.550	0.0143838
695.628	0.0143523
695.706	0.0142429
695.785	0.0144135
695.863	0.0144632
695.941	0.0141744
696.019	0.0142331
696.097	0.0141192
696.175	0.0142561
696.253	0.0142108
696.331	0.0141559
696.410	0.0140855
696.488	0.0141687
696.566	0.0141986
696.644	0.0141906
696.722	0.0141408
696.800	0.0143274
696.878	0.0142711
696.956	0.0142938
697.035	0.0144024
697.113	0.0142914
697.191	0.0144526
697.269	0.0146464
697.347	0.0146062
697.425	0.0143797
697.503	0.0145416
697.581	0.0145908
697.660	0.0144666
697.738	0.0145529
697.816	0.0144485
697.894	0.0144467
697.972	0.0143446
698.050	0.0144627
698.128	0.0144653
698.206	0.0143718
698.285	0.0143353
698.363	0.0142899
698.441	0.0142104
698.519	0.0142953
698.597	0.0142784
698.675	0.0144400
698.753	0.0143917
698.831	0.0142379
698.910	0.0141505
698.988	0.0143604
699.066	0.0144901
699.144	0.0143976
699.222	0.0143301
699.300	0.0143753
699.378	0.0143662
699.456	0.0143300
699.535	0.0144563
699.613	0.0143150
699.691	0.0144806
699.769	0.0143995
699.847	0.0142729
699.925	0.0142620
700.003	0.0142233
700.081	0.0141599
700.160	0.0143414
700.238	0.0143457
700.316	0.0141698
700.394	0.0142019
700.472	0.0142562
700.550	0.0142695
700.628	0.0143665
700.706	0.0144244
700.785	0.0144261
700.863	0.0142919
700.941	0.0144363
701.019	0.0144023
701.097	0.0144256
701.175	0.0144699
701.253	0.0143094
701.331	0.0143291
701.410	0.0143344
701.488	0.0141540
701.566	0.0143546
701.644	0.0144006
701.722	0.0143977
701.800	0.0143534
701.878	0.0142560
701.956	0.0142702
702.035	0.0142900
702.113	0.0143443
702.191	0.0144886
702.269	0.0142506
702.347	0.0143545
702.425	0.0143462
702.503	0.0144382
702.581	0.0144369
702.660	0.0144749
702.738	0.0143716
702.816	0.0145045
702.894	0.0145261
702.972	0.0143344
703.050	0.0144877
703.128	0.0145422
703.206	0.0145029
703.285	0.0144650
703.363	0.0144604
703.441	0.0145380
703.519	0.0146246
703.597	0.0146067
703.675	0.0145250
703.753	0.0144998
703.831	0.0143993
703.910	0.0145289
703.988	0.0142245
704.066	0.0143953
704.144	0.0142168
704.222	0.0141663
704.300	0.0143346
704.378	0.0143157
704.456	0.0142213
704.535	0.0142110
704.613	0.0142543
704.691	0.0142187
704.769	0.0142278
704.847	0.0144154
704.925	0.0143078
705.003	0.0144685
705.081	0.0144702
705.160	0.0145474
705.238	0.0144078
705.316	0.0144019
705.394	0.0144424
705.472	0.0143884
705.550	0.0144736
705.628	0.0144541
705.706	0.0143672
705.785	0.0142700
705.863	0.0142500
705.941	0.0142169
706.019	0.0143087
706.097	0.0140405
706.175	0.0141944
706.253	0.0142590
706.331	0.0141422
706.410	0.0141195
706.488	0.0143030
706.566	0.0142793
706.644	0.0141831
706.722	0.0143067
706.800	0.0142928
706.878	0.0141951
706.956	0.0142333
707.035	0.0143188
707.113	0.0143311
707.191	0.0143794
707.269	0.0142084
707.347	0.0144189
707.425	0.0142738
707.503	0.0142011
707.581	0.0142519
707.660	0.0142916
707.738	0.0144168
707.816	0.0143186
707.894	0.0143524
707.972	0.0143693
708.050	0.0144127
708.128	0.0143460
708.206	0.0144606
708.285	0.0145729
708.363	0.0145479
708.441	0.0143833
708.519	0.0145443
708.597	0.0144726
708.675	0.0145731
708.753	0.0144206
708.831	0.0143414
708.910	0.0144746
708.988	0.0144740
709.066	0.0143307
709.144	0.0144437
709.222	0.0143728
709.300	0.0143225
709.378	0.0142028
709.456	0.0144201
709.535	0.0143522
709.613	0.0144506
709.691	0.0144858
709.769	0.0142311
709.847	0.0143024
709.925	0.0144015
710.003	0.0144537
710.081	0.0143600
710.160	0.0142426
710.238	0.0144227
710.316	0.0144049
710.394	0.0144029
710.472	0.0144040
710.550	0.0143126
710.628	0.0142251
710.706	0.0143571
710.785	0.0142384
710.863	0.0141862
710.941	0.0142300
711.019	0.0143181
711.097	0.0141238
711.175	0.0141979
711.253	0.0143113
711.331	0.0141410
711.410	0.0141171
711.488	0.0141985
711.566	0.0141966
711.644	0.0141833
711.722	0.0143439
711.800	0.0143754
711.878	0.0142039
711.956	0.0144310
712.035	0.0142343
712.113	0.0143822
712.191	0.0141351
712.269	0.0140936
712.347	0.0140261
712.425	0.0140398
712.503	0.0139600
712.581	0.0139288
712.660	0.0139444
712.738	0.0140567
712.816	0.0138452
712.894	0.0139702
712.972	0.0139782
713.050	0.0138720
713.128	0.0138787
713.206	0.0139908
713.285	0.0140472
713.363	0.0140582
713.441	0.0140007
713.519	0.0139181
713.597	0.0141151
713.675	0.0140498
713.753	0.0139759
713.831	0.0138614
713.910	0.0140206
713.988	0.0139917
714.066	0.0140008
714.144	0.0138971
714.222	0.0138715
714.300	0.0139912
714.378	0.0140118
714.456	0.0139603
714.535	0.0140196
714.613	0.0139925
714.691	0.0140687
714.769	0.0140952
714.847	0.0140701
714.925	0.0141794
715.003	0.0141112
715.081	0.0142300
715.160	0.0140805
715.238	0.0140784
715.316	0.0141669
715.394	0.0141215
715.472	0.0141310
715.550	0.0141473
715.628	0.0140152
715.706	0.0140809
715.785	0.0142659
715.863	0.0142999
715.941	0.0142627
716.019	0.0140900
716.097	0.0143385
716.175	0.0143422
716.253	0.0142982
716.331	0.0142314
716.410	0.0142425
716.488	0.0143259
716.566	0.0143053
716.644	0.0142271
716.722	0.0142930
716.800	0.0141372
716.878	0.0141616
716.956	0.0142236
717.035	0.0143122
717.113	0.0142692
717.191	0.0141109
717.269	0.0140228
717.347	0.0141826
717.425	0.0142381
717.503	0.0141111
717.581	0.0140556
717.660	0.0142127
717.738	0.0141125
717.816	0.0142529
717.894	0.0142096
717.972	0.0142769
718.050	0.0143233
718.128	0.0142418
718.206	0.0143818
718.285	0.0144165
718.363	0.0143932
718.441	0.0144316
718.519	0.0143991
718.597	0.0144224
718.675	0.0143548
718.753	0.0142955
718.831	0.0142299
718.910	0.0143553
718.988	0.0142463
719.066	0.0142290
719.144	0.0142332
719.222	0.0141662
719.300	0.0141173
719.378	0.0141425
719.456	0.0141673
719.535	0.0142705
719.613	0.0141200
719.691	0.0141035
719.769	0.0141235
719.847	0.0142477
719.925	0.0142347
720.003	0.0141342
720.081	0.0141873
720.160	0.0142610
720.238	0.0141680
720.316	0.0142919
720.394	0.0140907
720.472	0.0141614
720.550	0.0143367
720.628	0.0139663
720.706	0.0140182
720.785	0.0142159
720.863	0.0141163
720.941	0.0141805
721.019	0.0140707
721.097	0.0140687
721.175	0.0143412
721.253	0.0143189
721.331	0.0142395
721.410	0.0142291
721.488	0.0142262
721.566	0.0143400
721.644	0.0144083
721.722	0.0144183
721.800	0.0143489
721.878	0.0144648
721.956	0.0144456
722.035	0.0144060
722.113	0.0144676
722.191	0.0144401
722.269	0.0143665
722.347	0.0144414
722.425	0.0145301
722.503	0.0145440
722.581	0.0143919
722.660	0.0143636
722.738	0.0144044
722.816	0.0145079
722.894	0.0144729
722.972	0.0143951
723.050	0.0144632
723.128	0.0143446
723.206	0.0143119
723.285	0.0143102
723.363	0.0143865
723.441	0.0144556
723.519	0.0142459
723.597	0.0142770
723.675	0.0142184
723.753	0.0143261
723.831	0.0144336
723.910	0.0143208
723.988	0.0142625
724.066	0.0143079
724.144	0.0142828
724.222	0.0143655
724.300	0.0143472
724.378	0.0143076
724.456	0.0142671
724.535	0.0143871
724.613	0.0144209
724.691	0.0144496
724.769	0.0145155
724.847	0.0144638
724.925	0.0143741
725.003	0.0142632
725.081	0.0143542
725.160	0.0145017
725.238	0.0143526
725.316	0.0143307
725.394	0.0143356
725.472	0.0143484
725.550	0.0144854
725.628	0.0144610
725.706	0.0142342
725.785	0.0144073
725.863	0.0143555
725.941	0.0143227
726.019	0.0142727
726.097	0.0142191
726.175	0.0142332
726.253	0.0142722
726.331	0.0143109
726.410	0.0143620
726.488	0.0141856
726.566	0.0142682
726.644	0.0143806
726.722	0.0143044
726.800	0.0142487
726.878	0.0141965
726.956	0.0143405
727.035	0.0143072
727.113	0.0143646
727.191	0.0143185
727.269	0.0143364
727.347	0.0142638
727.425	0.0143809
727.503	0.0142027
727.581	0.0142276
727.660	0.0142092
727.738	0.0141676
727.816	0.0142964
727.894	0.0143085
727.972	0.0143407
728.050	0.0144139
728.128	0.0142635
728.206	0.0142207
728.285	0.0144579
728.363	0.0144288
728.441	0.0144915
728.519	0.0145570
728.597	0.0145013
728.675	0.0145734
728.753	0.0145650
728.831	0.0145802
728.910	0.0146544
728.988	0.0145742
729.066	0.0146700
729.144	0.0145235
729.222	0.0147377
729.300	0.0145844
729.378	0.0146876
729.456	0.0145882
729.535	0.0146490
729.613	0.0146333
729.691	0.0146062
729.769	0.0145748
729.847	0.0145086
729.925	0.0146043
730.003	0.0144732
730.081	0.0144847
730.160	0.0144780
730.238	0.0145278
730.316	0.0144312
730.394	0.0142469
730.472	0.0143895
730.550	0.0145316
730.628	0.0143884
730.706	0.0142998
730.785	0.0143918
730.863	0.0144349
730.941	0.0144078
731.019	0.0144057
731.097	0.0143564
731.175	0.0142308
731.253	0.0143764
731.331	0.0145185
731.410	0.0144051
731.488	0.0143822
731.566	0.0144980
731.644	0.0144218
731.722	0.0144057
731.800	0.0143767
731.878	0.0144207
731.956	0.0143372
732.035	0.0143638
732.113	0.0142039
732.191	0.0143087
732.269	0.0143151
732.347	0.0143259
732.425	0.0142873
732.503	0.0142519
732.581	0.0143816
732.660	0.0143909
732.738	0.0142317
732.816	0.0142613
732.894	0.0143138
732.972	0.0142174
733.050	0.0140987
733.128	0.0141109
733.206	0.0139725
733.285	0.0140597
733.363	0.0142961
733.441	0.0142846
733.519	0.0142094
733.597	0.0140034
733.675	0.0141891
733.753	0.0142409
733.831	0.0142133
733.910	0.0142570
733.988	0.0141730
734.066	0.0142232
734.144	0.0141585
734.222	0.0141705
734.300	0.0141900
734.378	0.0141406
734.456	0.0140627
734.535	0.0142838
734.613	0.0141982
734.691	0.0142426
734.769	0.0142584
734.847	0.0141314
734.925	0.0141087
735.003	0.0141373
735.081	0.0141313
735.160	0.0143102
735.238	0.0144050
735.316	0.0143084
735.394	0.0142921
735.472	0.0143819
735.550	0.0144778
735.628	0.0143815
735.706	0.0143028
735.785	0.0144205
735.863	0.0146473
735.941	0.0144730
736.019	0.0146401
736.097	0.0145530
736.175	0.0146381
736.253	0.0146368
736.331	0.0145405
736.410	0.0143803
736.488	0.0144727
736.566	0.0146866
736.644	0.0144357
736.722	0.0145044
736.800	0.0146011
736.878	0.0144494
736.956	0.0144669
737.035	0.0142823
737.113	0.0143855
737.191	0.0142139
737.269	0.0143816
737.347	0.0143268
737.425	0.0142577
737.503	0.0143044
737.581	0.0143208
737.660	0.0142535
737.738	0.0143304
737.816	0.0143755
737.894	0.0142863
737.972	0.0142223
738.050	0.0142080
738.128	0.0141711
738.206	0.0142439
738.285	0.0143086
738.363	0.0142641
738.441	0.0142217
738.519	0.0141854
738.597	0.0144221
738.675	0.0142730
738.753	0.0140881
738.831	0.0142306
738.910	0.0142358
738.988	0.0141511
739.066	0.0141402
739.144	0.0143414
739.222	0.0142494
739.300	0.0141817
739.378	0.0143353
739.456	0.0142413
739.535	0.0143140
739.613	0.0143511
739.691	0.0143360
739.769	0.0142378
739.847	0.0141811
739.925	0.0141615
740.003	0.0141277
740.081	0.0140948
740.160	0.0141159
740.238	0.0141026
740.316	0.0141763
740.394	0.0142213
740.472	0.0141614
740.550	0.0141624
740.628	0.0142351
740.706	0.0142260
740.785	0.0142265
740.863	0.0141302
740.941	0.0143063
741.019	0.0142117
741.097	0.0141994
741.175	0.0142301
741.253	0.0141996
741.331	0.0141277
741.410	0.0142757
741.488	0.0141004
741.566	0.0140700
741.644	0.0140762
741.722	0.0141320
741.800	0.0142351
741.878	0.0142882
741.956	0.0142211
742.035	0.0143238
742.113	0.0143031
742.191	0.0141763
742.269	0.0143948
742.347	0.0144273
742.425	0.0145240
742.503	0.0143647
742.581	0.0144638
742.660	0.0145398
742.738	0.0145730
742.816	0.0145842
742.894	0.0144739
742.972	0.0145792
743.050	0.0146911
743.128	0.0146251
743.206	0.0146301
743.285	0.0146354
743.363	0.0145658
743.441	0.0146541
743.519	0.0145975
743.597	0.0144773
743.675	0.0144962
743.753	0.0145689
743.831	0.0145906
743.910	0.0144641
743.988	0.0146497
744.066	0.0144389
744.144	0.0144228
744.222	0.0144161
744.300	0.0143677
744.378	0.0143028
744.456	0.0143267
744.535	0.0141788
744.613	0.0142470
744.691	0.0142989
744.769	0.0142303
744.847	0.0141633
744.925	0.0143876
745.003	0.0142457
745.081	0.0140918
745.160	0.0142386
745.238	0.0140938
745.316	0.0142069
745.394	0.0142111
745.472	0.0142820
745.550	0.0141477
745.628	0.0141381
745.706	0.0141914
745.785	0.0141486
745.863	0.0141393
745.941	0.0141347
746.019	0.0141663
746.097	0.0141772
746.175	0.0144176
746.253	0.0142107
746.331	0.0141979
746.410	0.0142557
746.488	0.0142628
746.566	0.0142786
746.644	0.0141329
746.722	0.0141862
746.800	0.0142777
746.878	0.0143786
746.956	0.0141821
747.035	0.0140173
747.113	0.0141001
747.191	0.0140768
747.269	0.0141512
747.347	0.0142799
747.425	0.0142220
747.503	0.0141167
747.581	0.0143135
747.660	0.0142018
747.738	0.0142674
747.816	0.0142901
747.894	0.0142968
747.972	0.0142628
748.050	0.0142365
748.128	0.0141145
748.206	0.0141472
748.285	0.0142514
748.363	0.0142736
748.441	0.0143153
748.519	0.0142233
748.597	0.0141508
748.675	0.0141129
748.753	0.0142734
748.831	0.0142739
748.910	0.0142541
748.988	0.0143782
749.066	0.0142416
749.144	0.0143099
749.222	0.0144225
749.300	0.0145504
749.378	0.0144154
749.456	0.0146066
749.535	0.0145846
749.613	0.0147230
749.691	0.0145897
749.769	0.0147981
749.847	0.0147449
749.925	0.0147978
750.003	0.0146542
750.081	0.0147074
750.160	0.0148299
750.238	0.0147742
750.316	0.0146918
750.394	0.0148942
750.472	0.0146876
750.550	0.0146989
750.628	0.0147883
750.706	0.0147208
750.785	0.0145312
750.863	0.0146143
750.941	0.0146669
751.019	0.0144020
751.097	0.0144062
751.175	0.0145292
751.253	0.0144372
751.331	0.0145093
751.410	0.0143979
751.488	0.0143265
751.566	0.0144331
751.644	0.0143026
751.722	0.0142497
751.800	0.0142422
751.878	0.0143448
751.956	0.0142077
752.035	0.0142973
752.113	0.0143215
752.191	0.0142653
752.269	0.0142416
752.347	0.0142796
752.425	0.0141853
752.503	0.0143431
752.581	0.0142628
752.660	0.0142421
752.738	0.0143240
752.816	0.0142591
752.894	0.0143808
752.972	0.0144748
753.050	0.0143648
753.128	0.0142174
753.206	0.0142499
753.285	0.0143179
753.363	0.0143639
753.441	0.0143731
753.519	0.0142017
753.597	0.0142120
753.675	0.0142894
753.753	0.0142643
753.831	0.0143002
753.910	0.0143117
753.988	0.0143333
754.066	0.0142813
754.144	0.0142802
754.222	0.0142761
754.300	0.0142825
754.378	0.0143300
754.456	0.0143078
754.535	0.0142521
754.613	0.0144945
754.691	0.0143275
754.769	0.0143102
754.847	0.0142347
754.925	0.0143209
755.003	0.0142868
755.081	0.0141151
755.160	0.0142698
755.238	0.0142937
755.316	0.0141889
755.394	0.0142316
755.472	0.0142577
755.550	0.0141929
755.628	0.0141483
755.706	0.0143507
755.785	0.0143338
755.863	0.0142931
755.941	0.0142433
756.019	0.0142305
756.097	0.0144047
756.175	0.0145132
756.253	0.0145187
756.331	0.0144831
756.410	0.0143258
756.488	0.0145449
756.566	0.0145163
756.644	0.0145509
756.722	0.0145542
756.800	0.0146048
756.878	0.0146777
756.956	0.0146633
757.035	0.0145779
757.113	0.0146468
757.191	0.0146136
757.269	0.0145765
757.347	0.0146744
757.425	0.0145696
757.503	0.0145955
757.581	0.0146460
757.660	0.0145023
757.738	0.0145643
757.816	0.0145278
757.894	0.0145324
757.972	0.0143968
758.050	0.0145349
758.128	0.0144817
758.206	0.0144582
758.285	0.0143813
758.363	0.0143593
758.441	0.0141686
758.519	0.0141698
758.597	0.0143465
758.675	0.0142310
758.753	0.0141551
758.831	0.0142900
758.910	0.0142330
758.988	0.0142583
759.066	0.0142461
759.144	0.0142565
759.222	0.0142765
759.300	0.0141707
759.378	0.0142493
759.456	0.0141901
759.535	0.0141318
759.613	0.0141508
759.691	0.0143056
759.769	0.0142697
759.847	0.0142712
759.925	0.0141753
760.003	0.0141467
760.081	0.0142726
760.160	0.0142697
760.238	0.0141834
760.316	0.0140734
760.394	0.0141125
760.472	0.0141527
760.550	0.0140373
760.628	0.0139989
760.706	0.0141727
760.785	0.0142298
760.863	0.0142124
760.941	0.0141063
761.019	0.0142315
761.097	0.0142242
761.175	0.0141865
761.253	0.0141406
761.331	0.0141595
761.410	0.0142356
761.488	0.0142201
761.566	0.0142310
761.644	0.0141669
761.722	0.0141607
761.800	0.0142302
761.878	0.0142194
761.956	0.0139890
762.035	0.0141269
762.113	0.0141824
762.191	0.0140948
762.269	0.0140269
762.347	0.0140471
762.425	0.0139726
762.503	0.0141826
762.581	0.0142360
762.660	0.0141629
762.738	0.0142089
762.816	0.0141695
762.894	0.0142412
762.972	0.0141537
763.050	0.0141548
763.128	0.0142333
763.206	0.0143349
763.285	0.0141249
763.363	0.0142659
763.441	0.0143970
763.519	0.0144701
763.597	0.0145907
763.675	0.0145489
763.753	0.0145778
763.831	0.0147211
763.910	0.0146622
763.988	0.0146955
764.066	0.0145223
764.144	0.0145694
764.222	0.0146873
764.300	0.0147534
764.378	0.0147022
764.456	0.0147326
764.535	0.0147208
764.613	0.0146918
764.691	0.0147021
764.769	0.0145960
764.847	0.0144678
764.925	0.0144035
765.003	0.0144547
765.081	0.0144498
765.160	0.0143753
765.238	0.0144141
765.316	0.0142813
765.394	0.0143760
765.472	0.0142517
765.550	0.0141566
765.628	0.0143916
765.706	0.0142768
765.785	0.0141154
765.863	0.0141288
765.941	0.0140862
766.019	0.0140810
766.097	0.0142146
766.175	0.0141106
766.253	0.0140831
766.331	0.0141676
766.410	0.0139095
766.488	0.0140977
766.566	0.0141661
766.644	0.0141049
766.722	0.0141911
766.800	0.0141549
766.878	0.0141308
766.956	0.0141100
767.035	0.0141891
767.113	0.0141994
767.191	0.0141523
767.269	0.0140492
767.347	0.0141896
767.425	0.0140281
767.503	0.0141495
767.581	0.0140920
767.660	0.0140551
767.738	0.0141640
767.816	0.0142754
767.894	0.0140990
767.972	0.0141293
768.050	0.0142287
768.128	0.0142306
768.206	0.0141129
768.285	0.0141267
768.363	0.0142088
768.441	0.0141386
768.519	0.0141804
768.597	0.0142844
768.675	0.0142449
768.753	0.0140800
768.831	0.0141866
768.910	0.0141853
768.988	0.0141022
769.066	0.0140646
769.144	0.0141604
769.222	0.0142020
769.300	0.0141299
769.378	0.0139949
769.456	0.0139576
769.535	0.0141264
769.613	0.0142203
769.691	0.0142935
769.769	0.0141925
769.847	0.0143198
769.925	0.0142973
770.003	0.0141414
770.081	0.0143813
770.160	0.0144254
770.238	0.0142500
770.316	0.0143573
770.394	0.0144413
770.472	0.0144039
770.550	0.0143033
770.628	0.0145241
770.706	0.0145467
770.785	0.0146049
770.863	0.0146095
770.941	0.0146709
771.019	0.0146983
771.097	0.0146724
771.175	0.0147204
771.253	0.0147315
771.331	0.0147227
771.410	0.0147504
771.488	0.0146725
771.566	0.0147280
771.644	0.0146841
771.722	0.0147338
771.800	0.0144989
771.878	0.0147452
771.956	0.0144643
772.035	0.0143610
772.113	0.0144264
772.191	0.0144170
772.269	0.0144118
772.347	0.0143691
772.425	0.0143985
772.503	0.0142995
772.581	0.0142888
772.660	0.0142635
772.738	0.0143149
772.816	0.0142754
772.894	0.0142973
772.972	0.0142300
773.050	0.0141857
773.128	0.0142553
773.206	0.0142158
773.285	0.0142017
773.363	0.0142928
773.441	0.0142405
773.519	0.0142142
773.597	0.0142455
773.675	0.0141612
773.753	0.0142721
773.831	0.0143972
773.910	0.0141427
773.988	0.0142750
774.066	0.0143214
774.144	0.0143486
774.222	0.0143387
774.300	0.0143401
774.378	0.0144480
774.456	0.0142135
774.535	0.0142107
774.613	0.0142369
774.691	0.0142696
774.769	0.0143541
774.847	0.0142262
774.925	0.0143768
775.003	0.0143459
775.081	0.0143126
775.160	0.0142776
775.238	0.0141982
775.316	0.0143428
775.394	0.0140940
775.472	0.0143192
775.550	0.0142742
775.628	0.0143749
775.706	0.0141685
775.785	0.0142117
775.863	0.0141396
775.941	0.0142558
776.019	0.0143328
776.097	0.0142561
776.175	0.0142509
776.253	0.0142461
776.331	0.0143191
776.410	0.0142565
776.488	0.0142947
776.566	0.0142797
776.644	0.0142406
776.722	0.0141838
776.800	0.0143171
776.878	0.0144540
776.956	0.0142598
777.035	0.0144026
777.113	0.0143558
777.191	0.0143827
777.269	0.0144421
777.347	0.0146294
777.425	0.0146407
777.503	0.0145253
777.581	0.0145737
777.660	0.0145238
777.738	0.0146478
777.816	0.0146774
777.894	0.0146245
777.972	0.0146671
778.050	0.0146722
778.128	0.0148459
778.206	0.0149037
778.285	0.0147130
778.363	0.0146851
778.441	0.0147302
778.519	0.0145996
778.597	0.0146461
778.675	0.0146996
778.753	0.0145877
778.831	0.0145708
778.910	0.0146094
778.988	0.0144730
779.066	0.0146047
779.144	0.0144393
779.222	0.0145134
779.300	0.0145776
779.378	0.0144296
779.456	0.0143969
779.535	0.0143079
779.613	0.0142336
779.691	0.0143349
779.769	0.0145078
779.847	0.0142499
779.925	0.0142499
780.003	0.0144106
780.081	0.0142218
780.160	0.0142169
780.238	0.0142954
780.316	0.0141052
780.394	0.0141590
780.472	0.0142204
780.550	0.0141779
780.628	0.0141768
780.706	0.0141309
780.785	0.0140318
780.863	0.0140623
780.941	0.0142011
781.019	0.0142502
781.097	0.0141535
781.175	0.0141729
781.253	0.0142416
781.331	0.0142428
781.410	0.0141857
781.488	0.0142405
781.566	0.0141139
781.644	0.0143362
781.722	0.0142897
781.800	0.0141177
781.878	0.0140955
781.956	0.0141572
782.035	0.0142355
782.113	0.0141657
782.191	0.0141058
782.269	0.0141493
782.347	0.0142206
782.425	0.0142880
782.503	0.0142686
782.581	0.0142460
782.660	0.0141541
782.738	0.0141293
782.816	0.0142646
782.894	0.0142307
782.972	0.0142181
783.050	0.0139578
783.128	0.0141302
783.206	0.0141127
783.285	0.0141451
783.363	0.0141634
783.441	0.0140999
783.519	0.0141064
783.597	0.0141232
783.675	0.0142515
783.753	0.0142283
783.831	0.0143219
783.910	0.0141594
783.988	0.0142329
784.066	0.0142403
784.144	0.0142836
784.222	0.0143783
784.300	0.0142855
784.378	0.0144595
784.456	0.0143252
784.535	0.0143736
784.613	0.0145048
784.691	0.0143813
784.769	0.0143526
784.847	0.0146087
784.925	0.0146360
785.003	0.0144685
785.081	0.0144481
785.160	0.0146252
785.238	0.0145155
785.316	0.0145686
785.394	0.0144982
785.472	0.0145819
785.550	0.0145780
785.628	0.0144091
785.706	0.0143517
785.785	0.0143544
785.863	0.0144753
785.941	0.0144761
786.019	0.0143808
786.097	0.0143167
786.175	0.0142647
786.253	0.0142212
786.331	0.0143285
786.410	0.0142558
786.488	0.0142449
786.566	0.0143240
786.644	0.0141380
786.722	0.0141998
786.800	0.0141161
786.878	0.0140955
786.956	0.0141741
787.035	0.0140481
787.113	0.0140675
787.191	0.0140888
787.269	0.0141012
787.347	0.0141373
787.425	0.0140379
787.503	0.0140105
787.581	0.0140265
787.660	0.0141247
787.738	0.0140330
787.816	0.0140427
787.894	0.0139805
787.972	0.0139926
788.050	0.0140031
788.128	0.0140460
788.206	0.0140872
788.285	0.0139368
788.363	0.0139714
788.441	0.0140829
788.519	0.0139804
788.597	0.0139854
788.675	0.0139970
788.753	0.0140456
788.831	0.0138834
788.910	0.0139279
788.988	0.0141569
789.066	0.0140329
789.144	0.0139649
789.222	0.0140181
789.300	0.0140678
789.378	0.0139959
789.456	0.0140213
789.535	0.0139623
789.613	0.0141312
789.691	0.0141650
789.769	0.0140405
789.847	0.0139842
789.925	0.0139808
790.003	0.0139752
790.081	0.0139799
790.160	0.0140430
790.238	0.0139023
790.316	0.0140984
790.394	0.0141092
790.472	0.0140735
790.550	0.0139412
790.628	0.0139961
790.706	0.0140559
790.785	0.0140716
790.863	0.0141643
790.941	0.0141428
791.019	0.0140841
791.097	0.0142503
791.175	0.0142709
791.253	0.0141339
791.331	0.0142602
791.410	0.0143181
791.488	0.0143542
791.566	0.0145220
791.644	0.0144583
791.722	0.0143690
791.800	0.0145124
791.878	0.0145587
791.956	0.0146145
792.035	0.0144535
792.113	0.0146714
792.191	0.0145746
792.269	0.0145373
792.347	0.0145790
792.425	0.0146180
792.503	0.0145735
792.581	0.0145192
792.660	0.0145068
792.738	0.0146252
792.816	0.0146148
792.894	0.0146059
792.972	0.0146135
793.050	0.0145183
793.128	0.0146979
793.206	0.0147251
793.285	0.0145891
793.363	0.0146139
793.441	0.0144904
793.519	0.0144756
793.597	0.0144981
793.675	0.0146072
793.753	0.0144720
793.831	0.0144357
793.910	0.0144060
793.988	0.0142948
794.066	0.0142805
794.144	0.0144057
794.222	0.0143092
794.300	0.0144180
794.378	0.0142127
794.456	0.0142207
794.535	0.0143166
794.613	0.0143454
794.691	0.0141714
794.769	0.0142030
794.847	0.0143904
794.925	0.0142659
795.003	0.0143102
795.081	0.0141966
795.160	0.0142732
795.238	0.0144128
795.316	0.0142686
795.394	0.0142197
795.472	0.0143064
795.550	0.0143274
795.628	0.0144052
795.706	0.0143069
795.785	0.0141364
795.863	0.0143762
795.941	0.0143271
796.019	0.0143152
796.097	0.0144129
796.175	0.0142576
796.253	0.0143482
796.331	0.0143137
796.410	0.0143356
796.488	0.0143482
796.566	0.0141490
796.644	0.0144176
796.722	0.0142223
796.800	0.0143590
796.878	0.0143611
796.956	0.0143372
797.035	0.0142313
797.113	0.0142655
797.191	0.0142611
797.269	0.0142332
797.347	0.0141750
797.425	0.0142126
797.503	0.0143925
797.581	0.0143461
797.660	0.0142499
797.738	0.0143024
797.816	0.0143716
797.894	0.0143533
797.972	0.0144215
798.050	0.0143565
798.128	0.0143287
798.206	0.0143669
798.285	0.0142611
798.363	0.0144536
798.441	0.0145263
798.519	0.0145838
798.597	0.0146400
798.675	0.0145435
798.753	0.0145551
798.831	0.0146204
798.910	0.0146619
798.988	0.0145765
799.066	0.0145686
799.144	0.0146360
799.222	0.0146851
799.300	0.0145461
799.378	0.0146295
799.456	0.0145778
799.535	0.0145616
799.613	0.0145990
799.691	0.0146112
799.769	0.0144322
799.847	0.0145791
799.925	0.0144943
800.003	0.0144270
800.081	0.0145383
800.160	0.0144871
800.238	0.0144363
800.316	0.0144690
800.394	0.0145024
800.472	0.0145322
800.550	0.0145405
800.628	0.0144642
800.706	0.0145116
800.785	0.0144268
800.863	0.0144360
800.941	0.0143481
801.019	0.0144680
801.097	0.0142901
801.175	0.0144419
801.253	0.0143594
801.331	0.0143952
801.410	0.0143159
801.488	0.0142762
801.566	0.0141800
801.644	0.0142255
801.722	0.0142085
801.800	0.0142104
801.878	0.0142021
801.956	0.0141766
802.035	0.0142808
802.113	0.0141839
802.191	0.0142542
802.269	0.0142034
802.347	0.0141730
802.425	0.0140652
802.503	0.0139780
802.581	0.0142165
802.660	0.0141381
802.738	0.0141888
802.816	0.0141413
802.894	0.0142130
802.972	0.0143018
803.050	0.0143078
803.128	0.0143254
803.206	0.0142357
803.285	0.0143959
803.363	0.0143753
803.441	0.0143124
803.519	0.0143015
803.597	0.0142523
803.675	0.0143119
803.753	0.0143259
803.831	0.0143288
803.910	0.0142477
803.988	0.0141465
804.066	0.0142969
804.144	0.0142413
804.222	0.0141918
804.300	0.0142416
804.378	0.0141692
804.456	0.0142561
804.535	0.0142947
804.613	0.0142467
804.691	0.0141113
804.769	0.0142164
804.847	0.0142327
804.925	0.0143186
805.003	0.0143311
805.081	0.0143281
805.160	0.0144553
805.238	0.0145612
805.316	0.0144904
805.394	0.0145420
805.472	0.0144633
805.550	0.0145413
805.628	0.0146504
805.706	0.0145300
805.785	0.0146332
805.863	0.0145392
805.941	0.0146291
806.019	0.0147128
806.097	0.0147092
806.175	0.0146378
806.253	0.0145777
806.331	0.0146787
806.410	0.0146932
806.488	0.0146694
806.566	0.0146593
806.644	0.0145141
806.722	0.0145901
806.800	0.0145934
806.878	0.0144268
806.956	0.0145096
807.035	0.0143676
807.113	0.0143898
807.191	0.0143700
807.269	0.0144112
807.347	0.0143801
807.425	0.0143145
807.503	0.0142756
807.581	0.0143597
807.660	0.0144156
807.738	0.0144865
807.816	0.0142692
807.894	0.0142886
807.972	0.0142637
808.050	0.0143611
808.128	0.0142558
808.206	0.0141732
808.285	0.0142228
808.363	0.0141972
808.441	0.0141398
808.519	0.0140358
808.597	0.0141111
808.675	0.0141306
808.753	0.0141806
808.831	0.0140908
808.910	0.0140063
808.988	0.0141203
809.066	0.0142430
809.144	0.0140749
809.222	0.0139268
809.300	0.0139918
809.378	0.0140089
809.456	0.0141250
809.535	0.0140931
809.613	0.0141129
809.691	0.0140099
809.769	0.0139896
809.847	0.0141119
809.925	0.0140897
810.003	0.0140517
810.081	0.0140737
810.160	0.0142256
810.238	0.0140719
810.316	0.0142056
810.394	0.0142425
810.472	0.0141783
810.550	0.0141304
810.628	0.0141396
810.706	0.0141456
810.785	0.0141392
810.863	0.0141780
810.941	0.0141502
811.019	0.0140331
811.097	0.0142175
811.175	0.0141597
811.253	0.0140394
811.331	0.0141434
811.410	0.0141525
811.488	0.0141790
811.566	0.0141171
811.644	0.0140812
811.722	0.0140770
811.800	0.0141193
811.878	0.0142481
811.956	0.0143243
812.035	0.0142944
812.113	0.0142488
812.191	0.0143607
812.269	0.0144355
812.347	0.0143913
812.425	0.0142328
812.503	0.0143014
812.581	0.0145000
812.660	0.0144379
812.738	0.0145290
812.816	0.0145165
812.894	0.0144572
812.972	0.0145911
813.050	0.0144711
813.128	0.0145393
813.206	0.0146221
813.285	0.0145222
813.363	0.0145263
813.441	0.0144830
813.519	0.0145055
813.597	0.0144993
813.675	0.0145452
813.753	0.0144822
813.831	0.0143564
813.910	0.0143215
813.988	0.0143300
814.066	0.0142852
814.144	0.0142558
814.222	0.0142352
814.300	0.0142064
814.378	0.0143893
814.456	0.0143227
814.535	0.0142241
814.613	0.0142405
814.691	0.0141117
814.769	0.0141515
814.847	0.0142766
814.925	0.0141763
815.003	0.0141589
815.081	0.0141148
815.160	0.0140401
815.238	0.0141248
815.316	0.0140884
815.394	0.0140730
815.472	0.0142200
815.550	0.0141216
815.628	0.0140414
815.706	0.0140446
815.785	0.0142628
815.863	0.0141460
815.941	0.0141917
816.019	0.0140702
816.097	0.0140246
816.175	0.0141249
816.253	0.0140695
816.331	0.0141573
816.410	0.0140314
816.488	0.0141035
816.566	0.0142256
816.644	0.0140899
816.722	0.0139728
816.800	0.0140270
816.878	0.0139822
816.956	0.0137856
817.035	0.0138268
817.113	0.0142036
817.191	0.0140811
817.269	0.0140760
817.347	0.0141077
817.425	0.0142329
817.503	0.0142646
817.581	0.0142837
817.660	0.0142228
817.738	0.0141379
817.816	0.0142786
817.894	0.0142905
817.972	0.0143002
818.050	0.0142934
818.128	0.0143147
818.206	0.0141919
818.285	0.0142390
818.363	0.0141187
818.441	0.0142903
818.519	0.0141742
818.597	0.0142825
818.675	0.0142822
818.753	0.0144772
818.831	0.0143869
818.910	0.0142220
818.988	0.0143650
819.066	0.0143874
819.144	0.0144724
819.222	0.0145372
819.300	0.0144221
819.378	0.0145871
819.456	0.0145882
819.535	0.0146268
819.613	0.0146308
819.691	0.0146301
819.769	0.0146330
819.847	0.0147770
819.925	0.0146498
820.003	0.0148107
820.081	0.0146989
820.160	0.0147045
820.238	0.0146604
820.316	0.0149141
820.394	0.0147134
820.472	0.0148263
820.550	0.0148036
820.628	0.0147765
820.706	0.0146746
820.785	0.0146032
820.863	0.0147505
820.941	0.0147274
821.019	0.0144466
821.097	0.0145305
821.175	0.0146192
821.253	0.0145663
821.331	0.0144485
821.410	0.0144514
821.488	0.0143439
821.566	0.0143561
821.644	0.0142492
821.722	0.0143801
821.800	0.0143921
821.878	0.0145606
821.956	0.0143944
822.035	0.0143738
822.113	0.0143548
822.191	0.0141373
822.269	0.0142982
822.347	0.0143694
822.425	0.0143295
822.503	0.0143148
822.581	0.0142146
822.660	0.0143213
822.738	0.0144219
822.816	0.0141927
822.894	0.0141228
822.972	0.0141845
823.050	0.0141951
823.128	0.0142493
823.206	0.0143271
823.285	0.0142682
823.363	0.0144220
823.441	0.0143569
823.519	0.0142513
823.597	0.0143653
823.675	0.0142525
823.753	0.0142677
823.831	0.0143074
823.910	0.0142744
823.988	0.0143017
824.066	0.0143415
824.144	0.0143560
824.222	0.0143995
824.300	0.0143323
824.378	0.0142879
824.456	0.0142982
824.535	0.0143910
824.613	0.0142757
824.691	0.0143021
824.769	0.0144601
824.847	0.0143475
824.925	0.0143060
825.003	0.0144510
825.081	0.0144898
825.160	0.0144479
825.238	0.0142835
825.316	0.0142836
825.394	0.0143338
825.472	0.0143043
825.550	0.0141898
825.628	0.0142237
825.706	0.0144468
825.785	0.0143492
825.863	0.0143875
825.941	0.0144198
826.019	0.0143294
826.097	0.0144373
826.175	0.0144307
826.253	0.0144398
826.331	0.0144479
826.410	0.0145242
826.488	0.0146469
826.566	0.0145060
826.644	0.0143685
826.722	0.0145261
826.800	0.0146860
826.878	0.0146037
826.956	0.0145618
827.035	0.0146318
827.113	0.0146514
827.191	0.0146830
827.269	0.0146657
827.347	0.0146265
827.425	0.0147387
827.503	0.0147427
827.581	0.0146047
827.660	0.0145657
827.738	0.0148257
827.816	0.0147428
827.894	0.0146563
827.972	0.0145914
828.050	0.0145157
828.128	0.0146074
828.206	0.0146691
828.285	0.0144920
828.363	0.0144611
828.441	0.0144168
828.519	0.0144235
828.597	0.0145454
828.675	0.0144485
828.753	0.0144440
828.831	0.0144263
828.910	0.0145423
828.988	0.0142941
829.066	0.0144027
829.144	0.0142686
829.222	0.0142690
829.300	0.0143480
829.378	0.0143888
829.456	0.0142726
829.535	0.0142127
829.613	0.0144205
829.691	0.0142773
829.769	0.0142437
829.847	0.0141419
829.925	0.0141154
830.003	0.0142874
830.081	0.0141990
830.160	0.0143443
830.238	0.0142075
830.316	0.0140624
830.394	0.0142072
830.472	0.0141199
830.550	0.0141718
830.628	0.0142210
830.706	0.0142654
830.785	0.0142156
830.863	0.0141599
830.941	0.0141303
831.019	0.0142294
831.097	0.0142008
831.175	0.0142047
831.253	0.0142524
831.331	0.0142048
831.410	0.0142368
831.488	0.0143430
831.566	0.0142513
831.644	0.0141741
831.722	0.0143198
831.800	0.0142834
831.878	0.0142651
831.956	0.0143008
832.035	0.0143822
832.113	0.0144339
832.191	0.0143278
832.269	0.0143005
832.347	0.0142690
832.425	0.0141974
832.503	0.0142951
832.581	0.0143571
832.660	0.0143210
832.738	0.0143465
832.816	0.0140757
832.894	0.0142579
832.972	0.0142322
833.050	0.0141541
833.128	0.0141826
833.206	0.0142125
833.285	0.0143441
833.363	0.0142851
833.441	0.0142226
833.519	0.0142912
833.597	0.0143989
833.675	0.0143024
833.753	0.0144440
833.831	0.0144175
833.910	0.0145240
833.988	0.0144833
834.066	0.0143919
834.144	0.0145441
834.222	0.0142660
834.300	0.0144281
834.378	0.0146288
834.456	0.0146234
834.535	0.0144844
834.613	0.0146154
834.691	0.0145728
834.769	0.0146204
834.847	0.0144531
834.925	0.0144473
835.003	0.0145586
835.081	0.0144161
835.160	0.0143575
835.238	0.0144100
835.316	0.0144264
835.394	0.0143291
835.472	0.0143487
835.550	0.0143132
835.628	0.0142615
835.706	0.0142109
835.785	0.0142616
835.863	0.0142602
835.941	0.0142287
836.019	0.0140446
836.097	0.0140427
836.175	0.0140077
836.253	0.0141091
836.331	0.0141332
836.410	0.0140896
836.488	0.0140522
836.566	0.0140081
836.644	0.0140408
836.722	0.0140801
836.800	0.0139924
836.878	0.0140179
836.956	0.0140987
837.035	0.0140088
837.113	0.0141792
837.191	0.0141186
837.269	0.0140579
837.347	0.0139796
837.425	0.0138831
837.503	0.0140619
837.581	0.0141996
837.660	0.0140290
837.738	0.0141502
837.816	0.0139990
837.894	0.0141298
837.972	0.0141595
838.050	0.0141174
838.128	0.0141888
838.206	0.0141179
838.285	0.0141292
838.363	0.0141544
838.441	0.0143112
838.519	0.0142560
838.597	0.0142266
838.675	0.0142118
838.753	0.0141888
838.831	0.0141422
838.910	0.0142242
838.988	0.0142349
839.066	0.0142523
839.144	0.0141991
839.222	0.0141889
839.300	0.0142844
839.378	0.0142914
839.456	0.0141236
839.535	0.0141943
839.613	0.0140730
839.691	0.0141933
839.769	0.0140881
839.847	0.0142622
839.925	0.0142735
840.003	0.0140312
840.081	0.0140341
840.160	0.0141881
840.238	0.0141959
840.316	0.0142532
840.394	0.0142412
840.472	0.0141573
840.550	0.0141317
840.628	0.0142918
840.706	0.0142823
840.785	0.0142563
840.863	0.0143275
840.941	0.0144790
841.019	0.0144563
841.097	0.0143846
841.175	0.0145227
841.253	0.0144451
841.331	0.0144212
841.410	0.0144259
841.488	0.0144253
841.566	0.0144975
841.644	0.0146349
841.722	0.0146059
841.800	0.0145264
841.878	0.0146046
841.956	0.0144514
842.035	0.0145177
842.113	0.0145347
842.191	0.0143439
842.269	0.0144769
842.347	0.0143310
842.425	0.0142826
842.503	0.0143772
842.581	0.0144102
842.660	0.0142458
842.738	0.0141945
842.816	0.0143423
842.894	0.0144038
842.972	0.0143281
843.050	0.0142335
843.128	0.0141494
843.206	0.0142826
843.285	0.0142503
843.363	0.0142213
843.441	0.0143021
843.519	0.0142514
843.597	0.0142657
843.675	0.0142540
843.753	0.0143341
843.831	0.0142188
843.910	0.0141472
843.988	0.0143973
844.066	0.0143735
844.144	0.0141190
844.222	0.0142610
844.300	0.0141483
844.378	0.0142509
844.456	0.0143285
844.535	0.0142245
844.613	0.0142478
844.691	0.0143273
844.769	0.0143901
844.847	0.0141679
844.925	0.0143053
845.003	0.0142667
845.081	0.0142161
845.160	0.0143788
845.238	0.0143547
845.316	0.0143406
845.394	0.0142772
845.472	0.0143024
845.550	0.0143674
845.628	0.0142676
845.706	0.0144141
845.785	0.0144479
845.863	0.0142902
845.941	0.0143529
846.019	0.0144083
846.097	0.0142908
846.175	0.0143767
846.253	0.0144643
846.331	0.0143858
846.410	0.0143229
846.488	0.0144707
846.566	0.0142841
846.644	0.0142708
846.722	0.0142361
846.800	0.0143115
846.878	0.0143126
846.956	0.0142251
847.035	0.0142819
847.113	0.0142053
847.191	0.0142155
847.269	0.0141136
847.347	0.0142232
847.425	0.0142083
847.503	0.0142184
847.581	0.0142195
847.660	0.0141427
847.738	0.0141232
847.816	0.0143259
847.894	0.0143545
847.972	0.0142224
848.050	0.0143678
848.128	0.0143225
848.206	0.0143575
848.285	0.0144229
848.363	0.0144255
848.441	0.0145994
848.519	0.0144108
848.597	0.0145028
848.675	0.0144796
848.753	0.0146173
848.831	0.0146938
848.910	0.0146440
848.988	0.0146822
849.066	0.0145804
849.144	0.0147407
849.222	0.0146904
849.300	0.0145267
849.378	0.0145472
849.456	0.0145800
849.535	0.0145882
849.613	0.0145829
849.691	0.0144723
849.769	0.0144901
849.847	0.0145168
849.925	0.0144868
850.003	0.0143799
850.081	0.0143742
850.160	0.0144910
850.238	0.0144468
850.316	0.0142306
850.394	0.0143371
850.472	0.0144250
850.550	0.0142854
850.628	0.0143269
850.706	0.0144334
850.785	0.0144096
850.863	0.0144238
850.941	0.0144121
851.019	0.0143288
851.097	0.0144234
851.175	0.0144089
851.253	0.0144033
851.331	0.0144861
851.410	0.0142595
851.488	0.0143973
851.566	0.0143737
851.644	0.0143550
851.722	0.0142220
851.800	0.0142926
851.878	0.0143951
851.956	0.0142459
852.035	0.0143559
852.113	0.0142444
852.191	0.0142736
852.269	0.0144352
852.347	0.0144527
852.425	0.0143808
852.503	0.0143583
852.581	0.0143436
852.660	0.0143095
852.738	0.0142512
852.816	0.0142931
852.894	0.0143816
852.972	0.0143690
853.050	0.0143341
853.128	0.0143903
853.206	0.0143337
853.285	0.0144278
853.363	0.0143298
853.441	0.0143800
853.519	0.0142239
853.597	0.0143837
853.675	0.0143404
853.753	0.0142241
853.831	0.0142931
853.910	0.0142218
853.988	0.0141864
854.066	0.0142612
854.144	0.0141828
854.222	0.0141707
854.300	0.0141562
854.378	0.0141930
854.456	0.0141733
854.535	0.0141630
854.613	0.0142565
854.691	0.0142339
854.769	0.0142260
854.847	0.0143161
854.925	0.0143643
855.003	0.0142926
855.081	0.0142985
855.160	0.0143487
855.238	0.0143928
855.316	0.0145399
855.394	0.0145100
855.472	0.0145329
855.550	0.0143760
855.628	0.0145686
855.706	0.0145467
855.785	0.0144723
855.863	0.0144926
855.941	0.0147002
856.019	0.0145440
856.097	0.0145358
856.175	0.0145260
856.253	0.0146578
856.331	0.0145291
856.410	0.0144543
856.488	0.0146176
856.566	0.0145224
856.644	0.0143889
856.722	0.0144743
856.800	0.0144721
856.878	0.0143156
856.956	0.0143935
857.035	0.0143056
857.113	0.0143867
857.191	0.0143192
857.269	0.0143973
857.347	0.0143199
857.425	0.0142253
857.503	0.0142489
857.581	0.0142762
857.660	0.0141880
857.738	0.0143842
857.816	0.0141086
857.894	0.0142878
857.972	0.0141512
858.050	0.0143092
858.128	0.0143333
858.206	0.0141774
858.285	0.0142732
858.363	0.0141751
858.441	0.0142849
858.519	0.0143626
858.597	0.0141690
858.675	0.0139978
858.753	0.0141479
858.831	0.0142572
858.910	0.0142182
858.988	0.0142400
859.066	0.0141583
859.144	0.0142987
859.222	0.0141776
859.300	0.0141811
859.378	0.0141559
859.456	0.0141685
859.535	0.0141669
859.613	0.0141245
859.691	0.0141025
859.769	0.0140528
859.847	0.0140150
859.925	0.0141950
860.003	0.0141289
860.081	0.0141836
860.160	0.0143378
860.238	0.0141732
860.316	0.0141037
860.394	0.0141907
860.472	0.0143273
860.550	0.0139808
860.628	0.0141553
860.706	0.0141871
860.785	0.0142006
860.863	0.0141993
860.941	0.0143491
861.019	0.0141936
861.097	0.0141293
861.175	0.0140921
861.253	0.0141908
861.331	0.0140664
861.410	0.0141805
861.488	0.0141232
861.566	0.0142419
861.644	0.0140929
861.722	0.0142100
861.800	0.0141481
861.878	0.0142330
861.956	0.0140806
862.035	0.0142139
862.113	0.0143387
862.191	0.0142593
862.269	0.0144231
862.347	0.0143343
862.425	0.0142931
862.503	0.0144016
862.581	0.0144093
862.660	0.0144266
862.738	0.0143665
862.816	0.0144116
862.894	0.0144638
862.972	0.0144869
863.050	0.0145257
863.128	0.0145248
863.206	0.0144819
863.285	0.0143810
863.363	0.0143752
863.441	0.0144984
863.519	0.0144941
863.597	0.0144372
863.675	0.0145143
863.753	0.0144218
863.831	0.0143836
863.910	0.0143364
863.988	0.0144743
864.066	0.0142722
864.144	0.0142985
864.222	0.0142472
864.300	0.0142390
864.378	0.0140927
864.456	0.0140451
864.535	0.0141791
864.613	0.0140883
864.691	0.0142472
864.769	0.0141535
864.847	0.0140375
864.925	0.0140672
865.003	0.0141418
865.081	0.0141753
865.160	0.0141441
865.238	0.0142747
865.316	0.0141228
865.394	0.0141729
865.472	0.0141909
865.550	0.0141660
865.628	0.0140987
865.706	0.0139967
865.785	0.0142416
865.863	0.0141989
865.941	0.0139666
866.019	0.0142151
866.097	0.0141060
866.175	0.0142407
866.253	0.0140948
866.331	0.0141357
866.410	0.0141895
866.488	0.0141349
866.566	0.0141010
866.644	0.0140777
866.722	0.0140559
866.800	0.0141377
866.878	0.0143468
866.956	0.0142439
867.035	0.0141384
867.113	0.0142250
867.191	0.0141838
867.269	0.0142419
867.347	0.0142522
867.425	0.0142715
867.503	0.0142511
867.581	0.0143948
867.660	0.0144025
867.738	0.0142422
867.816	0.0145232
867.894	0.0142653
867.972	0.0144804
868.050	0.0144009
868.128	0.0143047
868.206	0.0142992
868.285	0.0142950
868.363	0.0142159
868.441	0.0141944
868.519	0.0142010
868.597	0.0143138
868.675	0.0143185
868.753	0.0142049
868.831	0.0142365
868.910	0.0143119
868.988	0.0143562
869.066	0.0141927
869.144	0.0141634
869.222	0.0143187
869.300	0.0143272
869.378	0.0144350
869.456	0.0144478
869.535	0.0142699
869.613	0.0144018
869.691	0.0143660
869.769	0.0145046
869.847	0.0146088
869.925	0.0145332
870.003	0.0145290
870.081	0.0145948
870.160	0.0146542
870.238	0.0145056
870.316	0.0146100
870.394	0.0146358
870.472	0.0145662
870.550	0.0147101
870.628	0.0145798
870.706	0.0144825
870.785	0.0145445
870.863	0.0145567
870.941	0.0144061
871.019	0.0143559
871.097	0.0144348
871.175	0.0144911
871.253	0.0144165
871.331	0.0145542
871.410	0.0143757
871.488	0.0143852
871.566	0.0141958
871.644	0.0142384
871.722	0.0143529
871.800	0.0142487
871.878	0.0143366
871.956	0.0142937
872.035	0.0144728
872.113	0.0142857
872.191	0.0143008
872.269	0.0143873
872.347	0.0143340
872.425	0.0142126
872.503	0.0143120
872.581	0.0143629
872.660	0.0143242
872.738	0.0142680
872.816	0.0141840
872.894	0.0141926
872.972	0.0143148
873.050	0.0141158
873.128	0.0142019
873.206	0.0142082
873.285	0.0142162
873.363	0.0142115
873.441	0.0143867
873.519	0.0142079
873.597	0.0141759
873.675	0.0143083
873.753	0.0143095
873.831	0.0141811
873.910	0.0141270
873.988	0.0141779
874.066	0.0143058
874.144	0.0143390
874.222	0.0143279
874.300	0.0144059
874.378	0.0143506
874.456	0.0144381
874.535	0.0143358
874.613	0.0144111
874.691	0.0145364
874.769	0.0143820
874.847	0.0143890
874.925	0.0144398
875.003	0.0145136
875.081	0.0143808
875.160	0.0143967
875.238	0.0145251
875.316	0.0142988
875.394	0.0144054
875.472	0.0143448
875.550	0.0143230
875.628	0.0143103
875.706	0.0143373
875.785	0.0143059
875.863	0.0142818
875.941	0.0144476
876.019	0.0143615
876.097	0.0143565
876.175	0.0143402
876.253	0.0143893
876.331	0.0144125
876.410	0.0143133
876.488	0.0142615
876.566	0.0142840
876.644	0.0144533
876.722	0.0144353
876.800	0.0144295
876.878	0.0144080
876.956	0.0143973
877.035	0.0146212
877.113	0.0145512
877.191	0.0145557
877.269	0.0145775
877.347	0.0145599
877.425	0.0145841
877.503	0.0146246
877.581	0.0145567
877.660	0.0145160
877.738	0.0146673
877.816	0.0146595
877.894	0.0145474
877.972	0.0145366
878.050	0.0144161
878.128	0.0145525
878.206	0.0144726
878.285	0.0144012
878.363	0.0144432
878.441	0.0143929
878.519	0.0143908
878.597	0.0142998
878.675	0.0143219
878.753	0.0143871
878.831	0.0143372
878.910	0.0144379
878.988	0.0142725
879.066	0.0141847
879.144	0.0142710
879.222	0.0141499
879.300	0.0141908
879.378	0.0144376
879.456	0.0142655
879.535	0.0143802
879.613	0.0144170
879.691	0.0142141
879.769	0.0142815
879.847	0.0142267
879.925	0.0142393
880.003	0.0141084
880.081	0.0141003
880.160	0.0141464
880.238	0.0141786
880.316	0.0141254
880.394	0.0141227
880.472	0.0140628
880.550	0.0141734
880.628	0.0142144
880.706	0.0141918
880.785	0.0141948
880.863	0.0142723
880.941	0.0141538
881.019	0.0140956
881.097	0.0142104
881.175	0.0142622
881.253	0.0142590
881.331	0.0142659
881.410	0.0144124
881.488	0.0142486
881.566	0.0142807
881.644	0.0143415
881.722	0.0142829
881.800	0.0143099
881.878	0.0143989
881.956	0.0145016
882.035	0.0143834
882.113	0.0143415
882.191	0.0144137
882.269	0.0143747
882.347	0.0143306
882.425	0.0142860
882.503	0.0142815
882.581	0.0143190
882.660	0.0142763
882.738	0.0142313
882.816	0.0142699
882.894	0.0143343
882.972	0.0141535
883.050	0.0141894
883.128	0.0143637
883.206	0.0141976
883.285	0.0142252
883.363	0.0143259
883.441	0.0141888
883.519	0.0142650
883.597	0.0142938
883.675	0.0142996
883.753	0.0142813
883.831	0.0143819
883.910	0.0143360
883.988	0.0143922
884.066	0.0143559
884.144	0.0144091
884.222	0.0145052
884.300	0.0143375
884.378	0.0145445
884.456	0.0144598
884.535	0.0146280
884.613	0.0144771
884.691	0.0143859
884.769	0.0145305
884.847	0.0144558
884.925	0.0144791
885.003	0.0144830
885.081	0.0146072
885.160	0.0144247
885.238	0.0143180
885.316	0.0143292
885.394	0.0144215
885.472	0.0142808
885.550	0.0142939
885.628	0.0143739
885.706	0.0142307
885.785	0.0141743
885.863	0.0143632
885.941	0.0142831
886.019	0.0143275
886.097	0.0142456
886.175	0.0142616
886.253	0.0142171
886.331	0.0142155
886.410	0.0142241
886.488	0.0143423
886.566	0.0143672
886.644	0.0142065
886.722	0.0141762
886.800	0.0142611
886.878	0.0142134
886.956	0.0141418
887.035	0.0142107
887.113	0.0142741
887.191	0.0140576
887.269	0.0140299
887.347	0.0140964
887.425	0.0140657
887.503	0.0141184
887.581	0.0141025
887.660	0.0141851
887.738	0.0139731
887.816	0.0140017
887.894	0.0140533
887.972	0.0140886
888.050	0.0140070
888.128	0.0141268
888.206	0.0141287
888.285	0.0138984
888.363	0.0139568
888.441	0.0141997
888.519	0.0140769
888.597	0.0141257
888.675	0.0141538
888.753	0.0141667
888.831	0.0141852
888.910	0.0143579
888.988	0.0142544
889.066	0.0141712
889.144	0.0142112
889.222	0.0143330
889.300	0.0143145
889.378	0.0141602
889.456	0.0141856
889.535	0.0141806
889.613	0.0143733
889.691	0.0142478
889.769	0.0142289
889.847	0.0141229
889.925	0.0141203
890.003	0.0141821
890.081	0.0142088
890.160	0.0141582
890.238	0.0142651
890.316	0.0143278
890.394	0.0141374
890.472	0.0141022
890.550	0.0143324
890.628	0.0142607
890.706	0.0142422
890.785	0.0142659
890.863	0.0141503
890.941	0.0143134
891.019	0.0142960
891.097	0.0143806
891.175	0.0143626
891.253	0.0142058
891.331	0.0143087
891.410	0.0143378
891.488	0.0144759
891.566	0.0144734
891.644	0.0143856
891.722	0.0144332
891.800	0.0146295
891.878	0.0146066
891.956	0.0146512
892.035	0.0145577
892.113	0.0144453
892.191	0.0144217
892.269	0.0145026
892.347	0.0145033
892.425	0.0144509
892.503	0.0144952
892.581	0.0144663
892.660	0.0143794
892.738	0.0144003
892.816	0.0141843
892.894	0.0142278
892.972	0.0143101
893.050	0.0144199
893.128	0.0143038
893.206	0.0142336
893.285	0.0142667
893.363	0.0141636
893.441	0.0143483
893.519	0.0142812
893.597	0.0141457
893.675	0.0141875
893.753	0.0143626
893.831	0.0142336
893.910	0.0142361
893.988	0.0143127
894.066	0.0144075
894.144	0.0141564
894.222	0.0142466
894.300	0.0142165
894.378	0.0141371
894.456	0.0143749
894.535	0.0141738
894.613	0.0141440
894.691	0.0142280
894.769	0.0143648
894.847	0.0143061
894.925	0.0142272
895.003	0.0143739
895.081	0.0142967
895.160	0.0141047
895.238	0.0143143
895.316	0.0142696
895.394	0.0143138
895.472	0.0143272
895.550	0.0143808
895.628	0.0142635
895.706	0.0143349
895.785	0.0143757
895.863	0.0143826
895.941	0.0143620
896.019	0.0144289
896.097	0.0144057
896.175	0.0144115
896.253	0.0145470
896.331	0.0143690
896.410	0.0144518
896.488	0.0143979
896.566	0.0144963
896.644	0.0143232
896.722	0.0144497
896.800	0.0144393
896.878	0.0143243
896.956	0.0145073
897.035	0.0144045
897.113	0.0142724
897.191	0.0142334
897.269	0.0143093
897.347	0.0144147
897.425	0.0144510
897.503	0.0142014
897.581	0.0143201
897.660	0.0143144
897.738	0.0143661
897.816	0.0143416
897.894	0.0143667
897.972	0.0142490
898.050	0.0143326
898.128	0.0143612
898.206	0.0143214
898.285	0.0142975
898.363	0.0142503
898.441	0.0142609
898.519	0.0143970
898.597	0.0144878
898.675	0.0144470
898.753	0.0144895
898.831	0.0144190
898.910	0.0145734
898.988	0.0144888
899.066	0.0144588
899.144	0.0145147
899.222	0.0145609
899.300	0.0145391
899.378	0.0146175
899.456	0.0144060
899.535	0.0145123
899.613	0.0145745
899.691	0.0144265
899.769	0.0144398
899.847	0.0143910
899.925	0.0144174
900.003	0.0141862
900.081	0.0143451
900.160	0.0144260
900.238	0.0143194
900.316	0.0141618
900.394	0.0141697
900.472	0.0143301
900.550	0.0143604
900.628	0.0142246
900.706	0.0141888
900.785	0.0142640
900.863	0.0141775
900.941	0.0143019
901.019	0.0143737
901.097	0.0142513
901.175	0.0139886
901.253	0.0142005
901.331	0.0143904
901.410	0.0141379
901.488	0.0142072
901.566	0.0141824
901.644	0.0141936
901.722	0.0142120
901.800	0.0141563
901.878	0.0141968
901.956	0.0142494
902.035	0.0141102
902.113	0.0142185
902.191	0.0142124
902.269	0.0141479
902.347	0.0142279
902.425	0.0141972
902.503	0.0142178
902.581	0.0142560
902.660	0.0142413
902.738	0.0142895
902.816	0.0142132
902.894	0.0143124
902.972	0.0143607
903.050	0.0142812
903.128	0.0142654
903.206	0.0144273
903.285	0.0141980
903.363	0.0141804
903.441	0.0143404
903.519	0.0144125
903.597	0.0143584
903.675	0.0141808
903.753	0.0143539
903.831	0.0143180
903.910	0.0142406
903.988	0.0143315
904.066	0.0143716
904.144	0.0142579
904.222	0.0142542
904.300	0.0142413
904.378	0.0142309
904.456	0.0143488
904.535	0.0143474
904.613	0.0142662
904.691	0.0142371
904.769	0.0143198
904.847	0.0140903
904.925	0.0141940
905.003	0.0142696
905.081	0.0143664
905.160	0.0142573
905.238	0.0141177
905.316	0.0141335
905.394	0.0141352
905.472	0.0143462
905.550	0.0143356
905.628	0.0142532
905.706	0.0143315
905.785	0.0144465
905.863	0.0144276
905.941	0.0144041
906.019	0.0143967
906.097	0.0145612
906.175	0.0145624
906.253	0.0146376
906.331	0.0143966
906.410	0.0144903
906.488	0.0146284
906.566	0.0145916
906.644	0.0144983
906.722	0.0145164
906.800	0.0145413
906.878	0.0144868
906.956	0.0144745
907.035	0.0145492
907.113	0.0143993
907.191	0.0144341
907.269	0.0143819
907.347	0.0144826
907.425	0.0144134
907.503	0.0144967
907.581	0.0143443
907.660	0.0143148
907.738	0.0143005
907.816	0.0144059
907.894	0.0143497
907.972	0.0142838
908.050	0.0143478
908.128	0.0141138
908.206	0.0142249
908.285	0.0140285
908.363	0.0140849
908.441	0.0140782
908.519	0.0142218
908.597	0.0142489
908.675	0.0141619
908.753	0.0140752
908.831	0.0141919
908.910	0.0142033
908.988	0.0140459
909.066	0.0141630
909.144	0.0141198
909.222	0.0141175
909.300	0.0141379
909.378	0.0139719
909.456	0.0142110
909.535	0.0141650
909.613	0.0143573
909.691	0.0143155
909.769	0.0142152
909.847	0.0142136
909.925	0.0142482
910.003	0.0142022
910.081	0.0143018
910.160	0.0143197
910.238	0.0142843
910.316	0.0143552
910.394	0.0143094
910.472	0.0144076
910.550	0.0143681
910.628	0.0142815
910.706	0.0142171
910.785	0.0143618
910.863	0.0143179
910.941	0.0143946
911.019	0.0145577
911.097	0.0143202
911.175	0.0144579
911.253	0.0142359
911.331	0.0144399
911.410	0.0143509
911.488	0.0144080
911.566	0.0143728
911.644	0.0143514
911.722	0.0143723
911.800	0.0143774
911.878	0.0144499
911.956	0.0143546
912.035	0.0143391
912.113	0.0144646
912.191	0.0143675
912.269	0.0143939
912.347	0.0143674
912.425	0.0143428
912.503	0.0141916
912.581	0.0143074
912.660	0.0143948
912.738	0.0143319
912.816	0.0143067
912.894	0.0142719
912.972	0.0143214
913.050	0.0142892
913.128	0.0142440
913.206	0.0143249
913.285	0.0142793
913.363	0.0142503
913.441	0.0142648
913.519	0.0143554
913.597	0.0142680
913.675	0.0143369
913.753	0.0144203
913.831	0.0142400
913.910	0.0142948
913.988	0.0143636
914.066	0.0142152
914.144	0.0142918
914.222	0.0142146
914.300	0.0142173
914.378	0.0142997
914.456	0.0143500
914.535	0.0141328
914.613	0.0141908
914.691	0.0141044
914.769	0.0140941
914.847	0.0141393
914.925	0.0139581
915.003	0.0139262
915.081	0.0140957
915.160	0.0140812
915.238	0.0142414
915.316	0.0139555
915.394	0.0141934
915.472	0.0141592
915.550	0.0139336
915.628	0.0141611
915.706	0.0142924
915.785	0.0140546
915.863	0.0141805
915.941	0.0142360
916.019	0.0140791
916.097	0.0142253
916.175	0.0141533
916.253	0.0141435
916.331	0.0142134
916.410	0.0143193
916.488	0.0141453
916.566	0.0141731
916.644	0.0143039
916.722	0.0142868
916.800	0.0142204
916.878	0.0141960
916.956	0.0142244
917.035	0.0142783
917.113	0.0140655
917.191	0.0141387
917.269	0.0143643
917.347	0.0141875
917.425	0.0142981
917.503	0.0142537
917.581	0.0143053
917.660	0.0143153
917.738	0.0142493
917.816	0.0142739
917.894	0.0140874
917.972	0.0143067
918.050	0.0143436
918.128	0.0143935
918.206	0.0143539
918.285	0.0143402
918.363	0.0142665
918.441	0.0141674
918.519	0.0143331
918.597	0.0143600
918.675	0.0142812
918.753	0.0143454
918.831	0.0142125
918.910	0.0143646
918.988	0.0142931
919.066	0.0143307
919.144	0.0142360
919.222	0.0143512
919.300	0.0143623
919.378	0.0143255
919.456	0.0142101
919.535	0.0142626
919.613	0.0142547
919.691	0.0142444
919.769	0.0143312
919.847	0.0143021
919.925	0.0143436
920.003	0.0144533
920.081	0.0143369
920.160	0.0143588
920.238	0.0144048
920.316	0.0143268
920.394	0.0144303
920.472	0.0143164
920.550	0.0143956
920.628	0.0145190
920.706	0.0145534
920.785	0.0146781
920.863	0.0146427
920.941	0.0145292
921.019	0.0146586
921.097	0.0146068
921.175	0.0147455
921.253	0.0146893
921.331	0.0146947
921.410	0.0146899
921.488	0.0144946
921.566	0.0145197
921.644	0.0145715
921.722	0.0144666
921.800	0.0146043
921.878	0.0145390
921.956	0.0144586
922.035	0.0145278
922.113	0.0144663
922.191	0.0143535
922.269	0.0145429
922.347	0.0145503
922.425	0.0144475
922.503	0.0145860
922.581	0.0145638
922.660	0.0143444
922.738	0.0143129
922.816	0.0144183
922.894	0.0144458
922.972	0.0144849
923.050	0.0144009
923.128	0.0145261
923.206	0.0145605
923.285	0.0144794
923.363	0.0144761
923.441	0.0144415
923.519	0.0144494
923.597	0.0143205
923.675	0.0144579
923.753	0.0143015
923.831	0.0144247
923.910	0.0142947
923.988	0.0142168
924.066	0.0143108
924.144	0.0143602
924.222	0.0143837
924.300	0.0144395
924.378	0.0143192
924.456	0.0143140
924.535	0.0143104
924.613	0.0142860
924.691	0.0143938
924.769	0.0141994
924.847	0.0142299
924.925	0.0144120
925.003	0.0144226
925.081	0.0143527
925.160	0.0143719
925.238	0.0143637
925.316	0.0144370
925.394	0.0144620
925.472	0.0145155
925.550	0.0145895
925.628	0.0145081
925.706	0.0145067
925.785	0.0145249
925.863	0.0146177
925.941	0.0144587
926.019	0.0143972
926.097	0.0144036
926.175	0.0144612
926.253	0.0143176
926.331	0.0143301
926.410	0.0144102
926.488	0.0143578
926.566	0.0143645
926.644	0.0143285
926.722	0.0144404
926.800	0.0143716
926.878	0.0143781
926.956	0.0142165
927.035	0.0143488
927.113	0.0143453
927.191	0.0144781
927.269	0.0144426
927.347	0.0145095
927.425	0.0143872
927.503	0.0143497
927.581	0.0144060
927.660	0.0146051
927.738	0.0144386
927.816	0.0145815
927.894	0.0146754
927.972	0.0145823
928.050	0.0145496
928.128	0.0146594
928.206	0.0146368
928.285	0.0146934
928.363	0.0145690
928.441	0.0145797
928.519	0.0146164
928.597	0.0144682
928.675	0.0145412
928.753	0.0146596
928.831	0.0144848
928.910	0.0144403
928.988	0.0143946
929.066	0.0143394
929.144	0.0144803
929.222	0.0143153
929.300	0.0143796
929.378	0.0142969
929.456	0.0142750
929.535	0.0144849
929.613	0.0143987
929.691	0.0143542
929.769	0.0142302
929.847	0.0142048
929.925	0.0140960
930.003	0.0141521
930.081	0.0141859
930.160	0.0141943
930.238	0.0141993
930.316	0.0141544
930.394	0.0142739
930.472	0.0141624
930.550	0.0143685
930.628	0.0141591
930.706	0.0142352
930.785	0.0143244
930.863	0.0143026
930.941	0.0140973
931.019	0.0140008
931.097	0.0140964
931.175	0.0142375
931.253	0.0140195
931.331	0.0140123
931.410	0.0140868
931.488	0.0140835
931.566	0.0140426
931.644	0.0140092
931.722	0.0139170
931.800	0.0141329
931.878	0.0139444
931.956	0.0141113
932.035	0.0140375
932.113	0.0140833
932.191	0.0141742
932.269	0.0141431
932.347	0.0141272
932.425	0.0141794
932.503	0.0142084
932.581	0.0142652
932.660	0.0142336
932.738	0.0141058
932.816	0.0142517
932.894	0.0142060
932.972	0.0141694
933.050	0.0141648
933.128	0.0142176
933.206	0.0143571
933.285	0.0142074
933.363	0.0140086
933.441	0.0141497
933.519	0.0141245
933.597	0.0142414
933.675	0.0141725
933.753	0.0141898
933.831	0.0139904
933.910	0.0138923
933.988	0.0140154
934.066	0.0142068
934.144	0.0141203
934.222	0.0140829
934.300	0.0139987
934.378	0.0140379
934.456	0.0139496
934.535	0.0139687
934.613	0.0140816
934.691	0.0142587
934.769	0.0140701
934.847	0.0140970
934.925	0.0141745
935.003	0.0142666
935.081	0.0142802
935.160	0.0142511
935.238	0.0141341
935.316	0.0142558
935.394	0.0143913
935.472	0.0142731
935.550	0.0142507
935.628	0.0144456
935.706	0.0145233
935.785	0.0144021
935.863	0.0143321
935.941	0.0143204
936.019	0.0141149
936.097	0.0143172
936.175	0.0142891
936.253	0.0141904
936.331	0.0142517
936.410	0.0142602
936.488	0.0142941
936.566	0.0142699
936.644	0.0143333
936.722	0.0143099
936.800	0.0142998
936.878	0.0142053
936.956	0.0142971
937.035	0.0143169
937.113	0.0143639
937.191	0.0142766
937.269	0.0144353
937.347	0.0143002
937.425	0.0143201
937.503	0.0144122
937.581	0.0143921
937.660	0.0143771
937.738	0.0143439
937.816	0.0144011
937.894	0.0142217
937.972	0.0143263
938.050	0.0143732
938.128	0.0143163
938.206	0.0141589
938.285	0.0142463
938.363	0.0141840
938.441	0.0142081
938.519	0.0142129
938.597	0.0143139
938.675	0.0142118
938.753	0.0140725
938.831	0.0140966
938.910	0.0142130
938.988	0.0142592
939.066	0.0140399
939.144	0.0141756
939.222	0.0141805
939.300	0.0141596
939.378	0.0141961
939.456	0.0142825
939.535	0.0141750
939.613	0.0141781
939.691	0.0142113
939.769	0.0142190
939.847	0.0141782
939.925	0.0143961
940.003	0.0143601
940.081	0.0143107
940.160	0.0142223
940.238	0.0142089
940.316	0.0142796
940.394	0.0142650
940.472	0.0142675
940.550	0.0143179
940.628	0.0143871
940.706	0.0142767
940.785	0.0141785
940.863	0.0142189
940.941	0.0142590
941.019	0.0142529
941.097	0.0141582
941.175	0.0142137
941.253	0.0141621
941.331	0.0142867
941.410	0.0142734
941.488	0.0142310
941.566	0.0143122
941.644	0.0143684
941.722	0.0143734
941.800	0.0144975
941.878	0.0145121
941.956	0.0143324
942.035	0.0144878
942.113	0.0144319
942.191	0.0145720
942.269	0.0144173
942.347	0.0144265
942.425	0.0146700
942.503	0.0145692
942.581	0.0145069
942.660	0.0145895
942.738	0.0146565
942.816	0.0145726
942.894	0.0145430
942.972	0.0146745
943.050	0.0145776
943.128	0.0144967
943.206	0.0147110
943.285	0.0146593
943.363	0.0145052
943.441	0.0145947
943.519	0.0144842
943.597	0.0145395
943.675	0.0145418
943.753	0.0144638
943.831	0.0145449
943.910	0.0144259
943.988	0.0144997
944.066	0.0144645
944.144	0.0144672
944.222	0.0145357
944.300	0.0143036
944.378	0.0144794
944.456	0.0143560
944.535	0.0144894
944.613	0.0144389
944.691	0.0144202
944.769	0.0143792
944.847	0.0144411
944.925	0.0144105
945.003	0.0144258
945.081	0.0144322
945.160	0.0142533
945.238	0.0142751
945.316	0.0143016
945.394	0.0142263
945.472	0.0142591
945.550	0.0143398
945.628	0.0142168
945.706	0.0143265
945.785	0.0142854
945.863	0.0143191
945.941	0.0143394
946.019	0.0143909
946.097	0.0142499
946.175	0.0144054
946.253	0.0143423
946.331	0.0144167
946.410	0.0144085
946.488	0.0143771
946.566	0.0142979
946.644	0.0144223
946.722	0.0144743
946.800	0.0144186
946.878	0.0144765
946.956	0.0143551
947.035	0.0143797
947.113	0.0144464
947.191	0.0145348
947.269	0.0144743
947.347	0.0145035
947.425	0.0144990
947.503	0.0146035
947.581	0.0145533
947.660	0.0144167
947.738	0.0144770
947.816	0.0145116
947.894	0.0144195
947.972	0.0143233
948.050	0.0145274
948.128	0.0143917
948.206	0.0142212
948.285	0.0143560
948.363	0.0141022
948.441	0.0141644
948.519	0.0144643
948.597	0.0141693
948.675	0.0141403
948.753	0.0142417
948.831	0.0141889
948.910	0.0143714
948.988	0.0142193
949.066	0.0143111
949.144	0.0142683
949.222	0.0142417
949.300	0.0144745
949.378	0.0144825
949.456	0.0143431
949.535	0.0143406
949.613	0.0143595
949.691	0.0143691
949.769	0.0144713
949.847	0.0143671
949.925	0.0144572
950.003	0.0145376
950.081	0.0146434
950.160	0.0145866
950.238	0.0145629
950.316	0.0145773
950.394	0.0146836
950.472	0.0145319
950.550	0.0144464
950.628	0.0145631
950.706	0.0143652
950.785	0.0145449
950.863	0.0143670
950.941	0.0144131
951.019	0.0143882
951.097	0.0143562
951.175	0.0143638
951.253	0.0142859
951.331	0.0143507
951.410	0.0142938
951.488	0.0142670
951.566	0.0142188
951.644	0.0142519
951.722	0.0143809
951.800	0.0142705
951.878	0.0143824
951.956	0.0144221
952.035	0.0142227
952.113	0.0143573
952.191	0.0142869
952.269	0.0141946
952.347	0.0141744
952.425	0.0143624
952.503	0.0142702
952.581	0.0142571
952.660	0.0141908
952.738	0.0141882
952.816	0.0141669
952.894	0.0141320
952.972	0.0141314
953.050	0.0141929
953.128	0.0141364
953.206	0.0142446
953.285	0.0142640
953.363	0.0142170
953.441	0.0140294
953.519	0.0141389
953.597	0.0142947
953.675	0.0142357
953.753	0.0142131
953.831	0.0144032
953.910	0.0142028
953.988	0.0141568
954.066	0.0143166
954.144	0.0142780
954.222	0.0141286
954.300	0.0142776
954.378	0.0143311
954.456	0.0143045
954.535	0.0142496
954.613	0.0143376
954.691	0.0142246
954.769	0.0142166
954.847	0.0143542
954.925	0.0141103
955.003	0.0142047
955.081	0.0142233
955.160	0.0141520
955.238	0.0142253
955.316	0.0141570
955.394	0.0141616
955.472	0.0142639
955.550	0.0143700
955.628	0.0142874
955.706	0.0140933
955.785	0.0141488
955.863	0.0141483
955.941	0.0142255
956.019	0.0142570
956.097	0.0141736
956.175	0.0141518
956.253	0.0143017
956.331	0.0143013
956.410	0.0142710
956.488	0.0141532
956.566	0.0143631
956.644	0.0142970
956.722	0.0143730
956.800	0.0142547
956.878	0.0143848
956.956	0.0143950
957.035	0.0144437
957.113	0.0145354
957.191	0.0145225
957.269	0.0145096
957.347	0.0144862
957.425	0.0144641
957.503	0.0145138
957.581	0.0146240
957.660	0.0145395
957.738	0.0144361
957.816	0.0144886
957.894	0.0145198
957.972	0.0144731
958.050	0.0145124
958.128	0.0143852
958.206	0.0144172
958.285	0.0143812
958.363	0.0144083
958.441	0.0145299
958.519	0.0143639
958.597	0.0144414
958.675	0.0144020
958.753	0.0143840
958.831	0.0144211
958.910	0.0143605
958.988	0.0143819
959.066	0.0142420
959.144	0.0143209
959.222	0.0143131
959.300	0.0142420
959.378	0.0142638
959.456	0.0142611
959.535	0.0142047
959.613	0.0141833
959.691	0.0142039
959.769	0.0142038
959.847	0.0141713
959.925	0.0141553
960.003	0.0140958
960.081	0.0140615
960.160	0.0140205
960.238	0.0138924
960.316	0.0140172
960.394	0.0140526
960.472	0.0140684
960.550	0.0140160
960.628	0.0140235
960.706	0.0141849
960.785	0.0141052
960.863	0.0139246
960.941	0.0139511
961.019	0.0141554
961.097	0.0142370
961.175	0.0140665
961.253	0.0141460
961.331	0.0141449
961.410	0.0142411
961.488	0.0141828
961.566	0.0141357
961.644	0.0142123
961.722	0.0140714
961.800	0.0140859
961.878	0.0142216
961.956	0.0143121
962.035	0.0142734
962.113	0.0140605
962.191	0.0141529
962.269	0.0142043
962.347	0.0140848
962.425	0.0141094
962.503	0.0143081
962.581	0.0141270
962.660	0.0141027
962.738	0.0140915
962.816	0.0141087
962.894	0.0141558
962.972	0.0143067
963.050	0.0141628
963.128	0.0140207
963.206	0.0142299
963.285	0.0141438
963.363	0.0142154
963.441	0.0141572
963.519	0.0143027
963.597	0.0142973
963.675	0.0143118
963.753	0.0143075
963.831	0.0144418
963.910	0.0145067
963.988	0.0144627
964.066	0.0144176
964.144	0.0144621
964.222	0.0145010
964.300	0.0144958
964.378	0.0145427
964.456	0.0144901
964.535	0.0145296
964.613	0.0144571
964.691	0.0145036
964.769	0.0145808
964.847	0.0145001
964.925	0.0145114
965.003	0.0144965
965.081	0.0145292
965.160	0.0144616
965.238	0.0144477
965.316	0.0143637
965.394	0.0142969
965.472	0.0143329
965.550	0.0143873
965.628	0.0144334
965.706	0.0141315
965.785	0.0142930
965.863	0.0142783
965.941	0.0142714
966.019	0.0141864
966.097	0.0141911
966.175	0.0141275
966.253	0.0140598
966.331	0.0140714
966.410	0.0141068
966.488	0.0140899
966.566	0.0139977
966.644	0.0140197
966.722	0.0141539
966.800	0.0142088
966.878	0.0138721
966.956	0.0140479
967.035	0.0140984
967.113	0.0139839
967.191	0.0140415
967.269	0.0140895
967.347	0.0143284
967.425	0.0142264
967.503	0.0138519
967.581	0.0142007
967.660	0.0142472
967.738	0.0141181
967.816	0.0139890
967.894	0.0140489
967.972	0.0141910
968.050	0.0142780
968.128	0.0142259
968.206	0.0142863
968.285	0.0141817
968.363	0.0143234
968.441	0.0143798
968.519	0.0142346
968.597	0.0142924
968.675	0.0144133
968.753	0.0144116
968.831	0.0144649
968.910	0.0143002
968.988	0.0144209
969.066	0.0144777
969.144	0.0145135
969.222	0.0146822
969.300	0.0146427
969.378	0.0145782
969.456	0.0146932
969.535	0.0146870
969.613	0.0146335
969.691	0.0145782
969.769	0.0145193
969.847	0.0146690
969.925	0.0145079
970.003	0.0144173
970.081	0.0146725
970.160	0.0145370
970.238	0.0146003
970.316	0.0145699
970.394	0.0144572
970.472	0.0144582
970.550	0.0144648
970.628	0.0146162
970.706	0.0146245
970.785	0.0145370
970.863	0.0145801
970.941	0.0145349
971.019	0.0144656
971.097	0.0145660
971.175	0.0145721
971.253	0.0145207
971.331	0.0144399
971.410	0.0146694
971.488	0.0146152
971.566	0.0144898
971.644	0.0145486
971.722	0.0145078
971.800	0.0144298
971.878	0.0146043
971.956	0.0145153
972.035	0.0145296
972.113	0.0145517
972.191	0.0145945
972.269	0.0144971
972.347	0.0143210
972.425	0.0145679
972.503	0.0144658
972.581	0.0144652
972.660	0.0143209
972.738	0.0143825
972.816	0.0145268
972.894	0.0144325
972.972	0.0142754
973.050	0.0142017
973.128	0.0142408
973.206	0.0143387
973.285	0.0142068
973.363	0.0143059
973.441	0.0143336
973.519	0.0142454
973.597	0.0143169
973.675	0.0142748
973.753	0.0141988
973.831	0.0141763
973.910	0.0141987
973.988	0.0142259
974.066	0.0141984
974.144	0.0141612
974.222	0.0143040
974.300	0.0142014
974.378	0.0143995
974.456	0.0142764
974.535	0.0142157
974.613	0.0140466
974.691	0.0140403
974.769	0.0141556
974.847	0.0142336
974.925	0.0142097
975.003	0.0141408
975.081	0.0141158
975.160	0.0141539
975.238	0.0141703
975.316	0.0142667
975.394	0.0143066
975.472	0.0142027
975.550	0.0142258
975.628	0.0142227
975.706	0.0141446
975.785	0.0142750
975.863	0.0144254
975.941	0.0142197
976.019	0.0142077
976.097	0.0141801
976.175	0.0142854
976.253	0.0143828
976.331	0.0144414
976.410	0.0143357
976.488	0.0142931
976.566	0.0142634
976.644	0.0144643
976.722	0.0142202
976.800	0.0142666
976.878	0.0142310
976.956	0.0143044
977.035	0.0140474
977.113	0.0143472
977.191	0.0142158
977.269	0.0141090
977.347	0.0141507
977.425	0.0142814
977.503	0.0142988
977.581	0.0140623
977.660	0.0141504
977.738	0.0143014
977.816	0.0142226
977.894	0.0140384
977.972	0.0141093
978.050	0.0141434
978.128	0.0139949
978.206	0.0142223
978.285	0.0143203
978.363	0.0140757
978.441	0.0141014
978.519	0.0142924
978.597	0.0142516
978.675	0.0141727
978.753	0.0141155
978.831	0.0142372
978.910	0.0142562
978.988	0.0143847
979.066	0.0142596
979.144	0.0141949
979.222	0.0142974
979.300	0.0143332
979.378	0.0143299
979.456	0.0143134
979.535	0.0142787
979.613	0.0143905
979.691	0.0143152
979.769	0.0142706
979.847	0.0142715
979.925	0.0142651
