05/03/2022	20:47:38	Ver.	4.1	UNKNOWN
Optical Delay	660.003261	Delta X		0.078125	Sweeps	1	Scan Rate	0/0
Coordinates	Axis 1	NaN	Axis 2	NaN	Axis 3	NaN	Axis 4	NaN	Axis 5	NaN	Axis 6	0.000000
TX Power	0.000000	RX Power	0.000000

660.003	0.0145734
660.081	0.0145081
660.160	0.0144681
660.238	0.0145831
660.316	0.0145657
660.394	0.0145511
660.472	0.0145106
660.550	0.0145140
660.628	0.0144227
660.706	0.0144841
660.785	0.0145225
660.863	0.0145425
660.941	0.0146432
661.019	0.0146705
661.097	0.0145010
661.175	0.0145354
661.253	0.0145953
661.331	0.0146091
661.410	0.0144974
661.488	0.0146011
661.566	0.0144478
661.644	0.0144743
661.722	0.0145997
661.800	0.0145688
661.878	0.0145182
661.956	0.0146579
662.035	0.0145679
662.113	0.0144921
662.191	0.0146020
662.269	0.0146999
662.347	0.0146394
662.425	0.0144617
662.503	0.0145942
662.581	0.0145493
662.660	0.0143941
662.738	0.0145181
662.816	0.0145585
662.894	0.0144327
662.972	0.0145647
663.050	0.0145577
663.128	0.0146542
663.206	0.0145071
663.285	0.0145233
663.363	0.0145425
663.441	0.0145026
663.519	0.0145396
663.597	0.0147849
663.675	0.0146447
663.753	0.0145921
663.831	0.0144911
663.910	0.0145561
663.988	0.0145468
664.066	0.0145654
664.144	0.0146347
664.222	0.0145046
664.300	0.0144670
664.378	0.0146160
664.456	0.0145493
664.535	0.0144750
664.613	0.0145164
664.691	0.0145074
664.769	0.0144209
664.847	0.0144463
664.925	0.0145261
665.003	0.0144903
665.081	0.0145474
665.160	0.0144115
665.238	0.0146493
665.316	0.0146100
665.394	0.0144076
665.472	0.0143990
665.550	0.0144978
665.628	0.0144293
665.706	0.0144817
665.785	0.0145289
665.863	0.0146048
665.941	0.0144198
666.019	0.0144392
666.097	0.0144401
666.175	0.0144009
666.253	0.0144054
666.331	0.0145104
666.410	0.0144302
666.488	0.0143499
666.566	0.0144814
666.644	0.0145202
666.722	0.0144328
666.800	0.0144530
666.878	0.0144624
666.956	0.0145303
667.035	0.0145527
667.113	0.0145354
667.191	0.0142770
667.269	0.0144661
667.347	0.0144732
667.425	0.0145681
667.503	0.0145546
667.581	0.0144664
667.660	0.0145153
667.738	0.0145227
667.816	0.0143448
667.894	0.0145583
667.972	0.0144967
668.050	0.0144767
668.128	0.0143971
668.206	0.0146287
668.285	0.0144713
668.363	0.0144131
668.441	0.0145766
668.519	0.0145338
668.597	0.0144096
668.675	0.0143325
668.753	0.0144391
668.831	0.0145145
668.910	0.0144578
668.988	0.0144464
669.066	0.0144357
669.144	0.0145265
669.222	0.0145955
669.300	0.0144991
669.378	0.0144998
669.456	0.0143578
669.535	0.0145969
669.613	0.0145715
669.691	0.0143231
669.769	0.0143466
669.847	0.0143874
669.925	0.0145387
670.003	0.0144771
670.081	0.0143497
670.160	0.0144225
670.238	0.0145760
670.316	0.0144841
670.394	0.0145301
670.472	0.0144484
670.550	0.0144810
670.628	0.0146068
670.706	0.0145591
670.785	0.0144766
670.863	0.0145413
670.941	0.0144290
671.019	0.0144953
671.097	0.0145627
671.175	0.0145805
671.253	0.0144360
671.331	0.0144880
671.410	0.0145283
671.488	0.0143557
671.566	0.0143597
671.644	0.0144750
671.722	0.0144999
671.800	0.0145123
671.878	0.0145213
671.956	0.0144737
672.035	0.0144440
672.113	0.0143713
672.191	0.0143947
672.269	0.0145923
672.347	0.0144118
672.425	0.0145022
672.503	0.0143819
672.581	0.0144476
672.660	0.0143281
672.738	0.0144163
672.816	0.0145648
672.894	0.0145673
672.972	0.0145114
673.050	0.0144717
673.128	0.0145100
673.206	0.0144817
673.285	0.0144428
673.363	0.0145842
673.441	0.0145203
673.519	0.0144685
673.597	0.0145174
673.675	0.0145702
673.753	0.0145753
673.831	0.0145239
673.910	0.0146096
673.988	0.0145332
674.066	0.0145570
674.144	0.0145061
674.222	0.0144972
674.300	0.0143555
674.378	0.0144421
674.456	0.0145619
674.535	0.0145316
674.613	0.0145216
674.691	0.0143754
674.769	0.0144050
674.847	0.0145128
674.925	0.0144980
675.003	0.0144811
675.081	0.0144936
675.160	0.0144197
675.238	0.0143451
675.316	0.0144621
675.394	0.0145480
675.472	0.0145972
675.550	0.0143697
675.628	0.0143903
675.706	0.0144894
675.785	0.0143710
675.863	0.0144404
675.941	0.0143334
676.019	0.0143569
676.097	0.0144172
676.175	0.0145242
676.253	0.0145404
676.331	0.0144735
676.410	0.0144299
676.488	0.0143064
676.566	0.0145020
676.644	0.0144408
676.722	0.0144135
676.800	0.0144000
676.878	0.0143540
676.956	0.0145089
677.035	0.0145647
677.113	0.0144086
677.191	0.0145195
677.269	0.0143971
677.347	0.0145566
677.425	0.0145580
677.503	0.0145815
677.581	0.0144863
677.660	0.0144282
677.738	0.0145241
677.816	0.0145744
677.894	0.0146194
677.972	0.0145885
678.050	0.0144831
678.128	0.0145265
678.206	0.0144611
678.285	0.0145673
678.363	0.0145693
678.441	0.0144463
678.519	0.0145842
678.597	0.0146688
678.675	0.0146701
678.753	0.0145760
678.831	0.0144158
678.910	0.0146049
678.988	0.0146029
679.066	0.0146352
679.144	0.0145357
679.222	0.0146601
679.300	0.0145042
679.378	0.0146132
679.456	0.0145304
679.535	0.0145514
679.613	0.0145450
679.691	0.0146384
679.769	0.0146397
679.847	0.0144907
679.925	0.0146081
680.003	0.0145522
680.081	0.0145793
680.160	0.0145927
680.238	0.0145680
680.316	0.0147176
680.394	0.0146381
680.472	0.0146682
680.550	0.0145731
680.628	0.0145837
680.706	0.0146021
680.785	0.0145936
680.863	0.0145373
680.941	0.0145445
681.019	0.0145838
681.097	0.0144868
681.175	0.0146404
681.253	0.0144736
681.331	0.0142882
681.410	0.0145190
681.488	0.0145886
681.566	0.0145217
681.644	0.0146824
681.722	0.0146204
681.800	0.0144966
681.878	0.0145814
681.956	0.0144891
682.035	0.0144786
682.113	0.0145073
682.191	0.0145903
682.269	0.0147435
682.347	0.0146236
682.425	0.0146622
682.503	0.0147589
682.581	0.0146104
682.660	0.0145941
682.738	0.0146683
682.816	0.0145220
682.894	0.0145566
682.972	0.0145409
683.050	0.0146040
683.128	0.0144997
683.206	0.0144926
683.285	0.0145233
683.363	0.0146590
683.441	0.0144357
683.519	0.0144396
683.597	0.0145023
683.675	0.0145725
683.753	0.0145201
683.831	0.0145050
683.910	0.0144034
683.988	0.0144792
684.066	0.0145906
684.144	0.0142852
684.222	0.0144662
684.300	0.0145293
684.378	0.0145408
684.456	0.0144284
684.535	0.0146706
684.613	0.0145904
684.691	0.0146523
684.769	0.0145471
684.847	0.0147158
684.925	0.0145713
685.003	0.0144971
685.081	0.0145110
685.160	0.0146111
685.238	0.0146449
685.316	0.0146117
685.394	0.0145235
685.472	0.0145513
685.550	0.0146005
685.628	0.0146146
685.706	0.0144777
685.785	0.0145408
685.863	0.0144426
685.941	0.0145275
686.019	0.0144361
686.097	0.0144919
686.175	0.0144936
686.253	0.0144148
686.331	0.0143217
686.410	0.0142791
686.488	0.0144267
686.566	0.0145422
686.644	0.0145149
686.722	0.0144678
686.800	0.0144115
686.878	0.0146456
686.956	0.0144737
687.035	0.0144581
687.113	0.0144772
687.191	0.0145901
687.269	0.0145467
687.347	0.0144802
687.425	0.0145667
687.503	0.0144907
687.581	0.0144526
687.660	0.0146336
687.738	0.0144902
687.816	0.0145873
687.894	0.0145443
687.972	0.0143726
688.050	0.0143688
688.128	0.0143243
688.206	0.0144090
688.285	0.0143711
688.363	0.0144221
688.441	0.0144749
688.519	0.0145467
688.597	0.0145821
688.675	0.0144294
688.753	0.0145182
688.831	0.0144508
688.910	0.0146712
688.988	0.0144713
689.066	0.0145221
689.144	0.0144250
689.222	0.0143960
689.300	0.0144400
689.378	0.0144834
689.456	0.0145219
689.535	0.0144272
689.613	0.0144230
689.691	0.0145280
689.769	0.0145605
689.847	0.0146499
689.925	0.0146632
690.003	0.0147031
690.081	0.0147202
690.160	0.0144931
690.238	0.0147334
690.316	0.0146678
690.394	0.0145026
690.472	0.0145650
690.550	0.0145737
690.628	0.0144511
690.706	0.0145484
690.785	0.0145280
690.863	0.0144039
690.941	0.0144315
691.019	0.0146825
691.097	0.0145677
691.175	0.0144823
691.253	0.0144201
691.331	0.0143340
691.410	0.0143886
691.488	0.0144717
691.566	0.0143416
691.644	0.0144613
691.722	0.0144895
691.800	0.0144299
691.878	0.0143744
691.956	0.0142986
692.035	0.0142930
692.113	0.0143468
692.191	0.0145068
692.269	0.0143577
692.347	0.0145251
692.425	0.0145191
692.503	0.0145121
692.581	0.0143736
692.660	0.0145210
692.738	0.0143352
692.816	0.0143008
692.894	0.0142862
692.972	0.0143155
693.050	0.0144109
693.128	0.0144111
693.206	0.0143760
693.285	0.0143283
693.363	0.0144314
693.441	0.0143862
693.519	0.0143681
693.597	0.0143983
693.675	0.0144850
693.753	0.0144946
693.831	0.0145032
693.910	0.0145094
693.988	0.0144649
694.066	0.0144424
694.144	0.0142653
694.222	0.0144299
694.300	0.0145583
694.378	0.0145023
694.456	0.0144401
694.535	0.0143027
694.613	0.0144514
694.691	0.0145510
694.769	0.0144193
694.847	0.0143829
694.925	0.0143342
695.003	0.0141830
695.081	0.0144547
695.160	0.0143774
695.238	0.0144373
695.316	0.0143102
695.394	0.0144899
695.472	0.0144077
695.550	0.0142671
695.628	0.0143377
695.706	0.0143880
695.785	0.0145013
695.863	0.0144191
695.941	0.0144878
696.019	0.0145103
696.097	0.0144801
696.175	0.0145499
696.253	0.0145149
696.331	0.0143991
696.410	0.0144181
696.488	0.0144714
696.566	0.0144780
696.644	0.0143266
696.722	0.0144582
696.800	0.0143466
696.878	0.0142515
696.956	0.0143641
697.035	0.0142943
697.113	0.0142758
697.191	0.0144489
697.269	0.0143209
697.347	0.0143598
697.425	0.0143046
697.503	0.0144120
697.581	0.0144008
697.660	0.0143224
697.738	0.0144808
697.816	0.0144692
697.894	0.0145058
697.972	0.0145809
698.050	0.0144720
698.128	0.0144520
698.206	0.0145067
698.285	0.0145274
698.363	0.0144587
698.441	0.0143579
698.519	0.0143323
698.597	0.0144048
698.675	0.0144341
698.753	0.0144662
698.831	0.0144197
698.910	0.0143030
698.988	0.0145027
699.066	0.0143764
699.144	0.0143761
699.222	0.0144820
699.300	0.0144434
699.378	0.0145123
699.456	0.0143268
699.535	0.0145545
699.613	0.0144547
699.691	0.0144315
699.769	0.0145993
699.847	0.0144815
699.925	0.0145378
700.003	0.0144638
700.081	0.0145430
700.160	0.0145706
700.238	0.0144796
700.316	0.0144570
700.394	0.0145756
700.472	0.0145009
700.550	0.0142890
700.628	0.0144081
700.706	0.0144671
700.785	0.0145145
700.863	0.0145361
700.941	0.0144849
701.019	0.0144289
701.097	0.0146076
701.175	0.0145862
701.253	0.0146650
701.331	0.0147415
701.410	0.0146102
701.488	0.0146012
701.566	0.0145919
701.644	0.0145483
701.722	0.0146342
701.800	0.0145853
701.878	0.0145842
701.956	0.0146721
702.035	0.0146415
702.113	0.0147506
702.191	0.0147227
702.269	0.0145863
702.347	0.0146049
702.425	0.0146759
702.503	0.0146642
702.581	0.0146964
702.660	0.0146200
702.738	0.0146417
702.816	0.0145531
702.894	0.0147258
702.972	0.0144822
703.050	0.0145089
703.128	0.0146644
703.206	0.0145380
703.285	0.0145614
703.363	0.0145193
703.441	0.0145446
703.519	0.0145048
703.597	0.0146056
703.675	0.0145638
703.753	0.0145880
703.831	0.0146023
703.910	0.0146128
703.988	0.0147441
704.066	0.0146499
704.144	0.0145698
704.222	0.0147353
704.300	0.0146538
704.378	0.0146777
704.456	0.0146812
704.535	0.0145171
704.613	0.0146923
704.691	0.0147260
704.769	0.0145621
704.847	0.0146742
704.925	0.0146259
705.003	0.0144727
705.081	0.0145240
705.160	0.0144976
705.238	0.0144609
705.316	0.0145874
705.394	0.0145787
705.472	0.0145335
705.550	0.0146593
705.628	0.0145777
705.706	0.0145587
705.785	0.0145615
705.863	0.0146174
705.941	0.0144989
706.019	0.0145845
706.097	0.0145855
706.175	0.0145433
706.253	0.0146689
706.331	0.0146820
706.410	0.0145599
706.488	0.0145046
706.566	0.0145240
706.644	0.0146329
706.722	0.0146205
706.800	0.0145317
706.878	0.0146191
706.956	0.0145921
707.035	0.0143803
707.113	0.0145913
707.191	0.0146413
707.269	0.0146389
707.347	0.0146271
707.425	0.0147021
707.503	0.0146600
707.581	0.0145235
707.660	0.0145695
707.738	0.0147009
707.816	0.0146780
707.894	0.0145583
707.972	0.0145929
708.050	0.0146986
708.128	0.0147618
708.206	0.0146024
708.285	0.0146346
708.363	0.0145949
708.441	0.0146883
708.519	0.0147478
708.597	0.0147112
708.675	0.0146698
708.753	0.0147265
708.831	0.0145719
708.910	0.0146216
708.988	0.0146394
709.066	0.0145973
709.144	0.0146577
709.222	0.0147338
709.300	0.0146193
709.378	0.0145718
709.456	0.0146572
709.535	0.0146392
709.613	0.0146388
709.691	0.0145385
709.769	0.0145305
709.847	0.0146207
709.925	0.0146056
710.003	0.0145716
710.081	0.0145822
710.160	0.0145490
710.238	0.0145461
710.316	0.0145499
710.394	0.0145406
710.472	0.0144361
710.550	0.0144341
710.628	0.0145537
710.706	0.0144936
710.785	0.0145705
710.863	0.0145465
710.941	0.0146487
711.019	0.0144569
711.097	0.0146262
711.175	0.0145044
711.253	0.0144817
711.331	0.0144785
711.410	0.0145317
711.488	0.0145498
711.566	0.0145122
711.644	0.0145512
711.722	0.0145049
711.800	0.0143718
711.878	0.0144968
711.956	0.0144392
712.035	0.0145061
712.113	0.0144833
712.191	0.0145022
712.269	0.0145056
712.347	0.0145707
712.425	0.0145388
712.503	0.0145478
712.581	0.0144819
712.660	0.0143697
712.738	0.0145378
712.816	0.0145484
712.894	0.0145711
712.972	0.0146246
713.050	0.0144472
713.128	0.0145768
713.206	0.0145174
713.285	0.0143833
713.363	0.0145931
713.441	0.0143995
713.519	0.0143590
713.597	0.0144457
713.675	0.0144708
713.753	0.0144396
713.831	0.0144573
713.910	0.0145440
713.988	0.0143594
714.066	0.0143828
714.144	0.0144172
714.222	0.0145165
714.300	0.0144142
714.378	0.0145415
714.456	0.0145792
714.535	0.0145889
714.613	0.0144196
714.691	0.0144374
714.769	0.0144411
714.847	0.0144659
714.925	0.0145882
715.003	0.0147011
715.081	0.0144810
715.160	0.0146925
715.238	0.0145985
715.316	0.0145171
715.394	0.0145399
715.472	0.0145422
715.550	0.0146070
715.628	0.0146124
715.706	0.0147121
715.785	0.0145979
715.863	0.0145604
715.941	0.0145039
716.019	0.0145515
716.097	0.0143835
716.175	0.0145226
716.253	0.0145660
716.331	0.0144293
716.410	0.0145975
716.488	0.0145795
716.566	0.0144357
716.644	0.0145609
716.722	0.0145449
716.800	0.0146227
716.878	0.0144308
716.956	0.0146258
717.035	0.0146014
717.113	0.0145166
717.191	0.0145235
717.269	0.0142986
717.347	0.0143614
717.425	0.0145815
717.503	0.0146195
717.581	0.0145040
717.660	0.0144957
717.738	0.0146613
717.816	0.0144451
717.894	0.0143745
717.972	0.0145192
718.050	0.0145116
718.128	0.0144214
718.206	0.0145076
718.285	0.0144155
718.363	0.0145361
718.441	0.0143929
718.519	0.0144427
718.597	0.0145319
718.675	0.0144286
718.753	0.0144202
718.831	0.0144773
718.910	0.0143066
718.988	0.0143541
719.066	0.0143826
719.144	0.0145260
719.222	0.0143324
719.300	0.0144028
719.378	0.0144332
719.456	0.0143870
719.535	0.0143257
719.613	0.0144331
719.691	0.0143829
719.769	0.0143575
719.847	0.0144229
719.925	0.0145134
720.003	0.0145287
720.081	0.0145407
720.160	0.0144082
720.238	0.0144911
720.316	0.0144798
720.394	0.0144069
720.472	0.0145982
720.550	0.0145734
720.628	0.0143857
720.706	0.0145625
720.785	0.0145416
720.863	0.0145132
720.941	0.0143758
721.019	0.0144176
721.097	0.0145444
721.175	0.0144641
721.253	0.0144964
721.331	0.0146748
721.410	0.0145398
721.488	0.0146099
721.566	0.0144154
721.644	0.0145200
721.722	0.0144640
721.800	0.0145654
721.878	0.0144812
721.956	0.0146943
722.035	0.0145192
722.113	0.0145742
722.191	0.0146385
722.269	0.0145534
722.347	0.0146453
722.425	0.0146562
722.503	0.0145063
722.581	0.0146326
722.660	0.0145602
722.738	0.0146096
722.816	0.0143713
722.894	0.0144875
722.972	0.0145536
723.050	0.0145905
723.128	0.0145271
723.206	0.0144402
723.285	0.0145592
723.363	0.0145055
723.441	0.0143819
723.519	0.0145126
723.597	0.0143699
723.675	0.0143991
723.753	0.0145213
723.831	0.0143636
723.910	0.0145718
723.988	0.0144041
724.066	0.0145448
724.144	0.0143578
724.222	0.0143961
724.300	0.0145687
724.378	0.0145647
724.456	0.0143868
724.535	0.0143495
724.613	0.0144694
724.691	0.0145105
724.769	0.0144208
724.847	0.0144881
724.925	0.0145174
725.003	0.0144362
725.081	0.0144904
725.160	0.0144798
725.238	0.0146597
725.316	0.0145736
725.394	0.0145015
725.472	0.0144099
725.550	0.0146127
725.628	0.0144889
725.706	0.0145869
725.785	0.0144389
725.863	0.0143960
725.941	0.0144952
726.019	0.0145104
726.097	0.0145078
726.175	0.0144884
726.253	0.0145401
726.331	0.0145084
726.410	0.0145640
726.488	0.0145489
726.566	0.0144512
726.644	0.0144061
726.722	0.0144572
726.800	0.0144382
726.878	0.0144205
726.956	0.0144577
727.035	0.0145214
727.113	0.0144920
727.191	0.0145515
727.269	0.0144198
727.347	0.0145405
727.425	0.0144730
727.503	0.0144174
727.581	0.0144991
727.660	0.0145345
727.738	0.0145602
727.816	0.0145450
727.894	0.0145237
727.972	0.0143920
728.050	0.0145573
728.128	0.0144681
728.206	0.0145008
728.285	0.0145832
728.363	0.0146436
728.441	0.0146590
728.519	0.0144820
728.597	0.0146230
728.675	0.0145561
728.753	0.0146092
728.831	0.0145728
728.910	0.0145878
728.988	0.0147459
729.066	0.0146147
729.144	0.0147100
729.222	0.0145576
729.300	0.0147612
729.378	0.0146794
729.456	0.0145490
729.535	0.0146491
729.613	0.0146441
729.691	0.0145837
729.769	0.0146381
729.847	0.0145640
729.925	0.0146052
730.003	0.0146907
730.081	0.0147056
730.160	0.0145322
730.238	0.0146500
730.316	0.0146700
730.394	0.0145742
730.472	0.0145333
730.550	0.0147054
730.628	0.0146001
730.706	0.0145136
730.785	0.0145155
730.863	0.0145178
730.941	0.0143665
731.019	0.0145357
731.097	0.0146192
731.175	0.0146846
731.253	0.0145452
731.331	0.0145919
731.410	0.0145795
731.488	0.0146109
731.566	0.0146040
731.644	0.0145342
731.722	0.0144980
731.800	0.0144515
731.878	0.0145452
731.956	0.0146590
732.035	0.0143715
732.113	0.0145252
732.191	0.0146233
732.269	0.0145303
732.347	0.0144456
732.425	0.0145461
732.503	0.0144757
732.581	0.0145237
732.660	0.0144704
732.738	0.0145227
732.816	0.0145409
732.894	0.0146016
732.972	0.0145369
733.050	0.0146547
733.128	0.0145860
733.206	0.0145153
733.285	0.0146836
733.363	0.0145327
733.441	0.0144392
733.519	0.0144923
733.597	0.0145302
733.675	0.0145756
733.753	0.0144896
733.831	0.0145555
733.910	0.0145544
733.988	0.0145869
734.066	0.0146018
734.144	0.0146791
734.222	0.0146023
734.300	0.0146871
734.378	0.0144763
734.456	0.0145525
734.535	0.0145576
734.613	0.0146089
734.691	0.0145865
734.769	0.0145272
734.847	0.0144946
734.925	0.0144821
735.003	0.0143877
735.081	0.0144965
735.160	0.0146053
735.238	0.0147115
735.316	0.0145242
735.394	0.0145601
735.472	0.0146009
735.550	0.0146148
735.628	0.0145845
735.706	0.0145916
735.785	0.0146447
735.863	0.0147065
735.941	0.0145795
736.019	0.0145763
736.097	0.0146516
736.175	0.0145765
736.253	0.0145553
736.331	0.0146561
736.410	0.0146115
736.488	0.0147222
736.566	0.0145881
736.644	0.0146059
736.722	0.0147073
736.800	0.0145116
736.878	0.0144579
736.956	0.0147282
737.035	0.0145499
737.113	0.0146341
737.191	0.0145955
737.269	0.0143684
737.347	0.0146023
737.425	0.0146209
737.503	0.0144547
737.581	0.0144787
737.660	0.0144300
737.738	0.0144051
737.816	0.0144798
737.894	0.0146283
737.972	0.0145847
738.050	0.0145284
738.128	0.0144868
738.206	0.0146268
738.285	0.0145372
738.363	0.0144437
738.441	0.0144879
738.519	0.0146819
738.597	0.0145195
738.675	0.0145146
738.753	0.0145616
738.831	0.0146411
738.910	0.0144340
738.988	0.0145502
739.066	0.0145641
739.144	0.0145444
739.222	0.0145866
739.300	0.0145593
739.378	0.0143833
739.456	0.0145119
739.535	0.0145263
739.613	0.0144691
739.691	0.0145601
739.769	0.0144827
739.847	0.0145090
739.925	0.0144671
740.003	0.0145679
740.081	0.0147111
740.160	0.0144424
740.238	0.0144579
740.316	0.0144795
740.394	0.0146749
740.472	0.0146615
740.550	0.0147026
740.628	0.0145183
740.706	0.0144068
740.785	0.0145486
740.863	0.0145936
740.941	0.0145303
741.019	0.0145718
741.097	0.0146107
741.175	0.0145811
741.253	0.0144770
741.331	0.0146603
741.410	0.0144186
741.488	0.0145822
741.566	0.0146534
741.644	0.0145545
741.722	0.0144382
741.800	0.0145368
741.878	0.0144987
741.956	0.0145023
742.035	0.0145094
742.113	0.0143678
742.191	0.0143813
742.269	0.0145407
742.347	0.0146925
742.425	0.0146262
742.503	0.0143851
742.581	0.0144900
742.660	0.0146071
742.738	0.0145840
742.816	0.0145022
742.894	0.0144930
742.972	0.0144835
743.050	0.0146027
743.128	0.0145089
743.206	0.0145900
743.285	0.0145812
743.363	0.0146261
743.441	0.0145122
743.519	0.0146135
743.597	0.0147257
743.675	0.0146388
743.753	0.0146761
743.831	0.0146263
743.910	0.0145987
743.988	0.0145747
744.066	0.0145280
744.144	0.0147707
744.222	0.0145718
744.300	0.0144399
744.378	0.0145840
744.456	0.0144093
744.535	0.0145168
744.613	0.0144768
744.691	0.0145455
744.769	0.0145524
744.847	0.0144346
744.925	0.0143523
745.003	0.0145696
745.081	0.0144460
745.160	0.0145404
745.238	0.0144306
745.316	0.0145022
745.394	0.0144926
745.472	0.0144382
745.550	0.0144347
745.628	0.0145622
745.706	0.0145238
745.785	0.0145644
745.863	0.0144211
745.941	0.0144714
746.019	0.0144831
746.097	0.0144965
746.175	0.0145307
746.253	0.0144347
746.331	0.0144630
746.410	0.0145080
746.488	0.0143552
746.566	0.0146101
746.644	0.0144601
746.722	0.0145132
746.800	0.0145506
746.878	0.0144581
746.956	0.0144255
747.035	0.0143562
747.113	0.0145723
747.191	0.0144213
747.269	0.0144651
747.347	0.0145650
747.425	0.0144955
747.503	0.0144064
747.581	0.0144402
747.660	0.0144270
747.738	0.0143752
747.816	0.0144136
747.894	0.0145152
747.972	0.0144516
748.050	0.0143720
748.128	0.0144717
748.206	0.0145457
748.285	0.0143895
748.363	0.0144789
748.441	0.0143750
748.519	0.0144699
748.597	0.0143530
748.675	0.0145078
748.753	0.0143776
748.831	0.0144332
748.910	0.0144536
748.988	0.0145427
749.066	0.0143906
749.144	0.0143359
749.222	0.0145233
749.300	0.0144318
749.378	0.0143478
749.456	0.0144484
749.535	0.0144223
749.613	0.0143848
749.691	0.0144696
749.769	0.0145029
749.847	0.0144961
749.925	0.0144117
750.003	0.0144636
750.081	0.0146118
750.160	0.0145864
750.238	0.0143967
750.316	0.0145882
750.394	0.0144479
750.472	0.0145242
750.550	0.0144581
750.628	0.0144569
750.706	0.0144917
750.785	0.0144521
750.863	0.0146738
750.941	0.0144972
751.019	0.0144227
751.097	0.0144830
751.175	0.0145836
751.253	0.0144205
751.331	0.0145795
751.410	0.0145709
751.488	0.0145383
751.566	0.0144063
751.644	0.0143777
751.722	0.0143828
751.800	0.0144688
751.878	0.0145123
751.956	0.0144840
752.035	0.0144453
752.113	0.0143954
752.191	0.0144614
752.269	0.0144814
752.347	0.0144877
752.425	0.0144168
752.503	0.0144510
752.581	0.0144958
752.660	0.0144449
752.738	0.0145057
752.816	0.0143756
752.894	0.0144953
752.972	0.0143746
753.050	0.0143626
753.128	0.0143127
753.206	0.0143848
753.285	0.0143103
753.363	0.0143559
753.441	0.0142690
753.519	0.0144926
753.597	0.0143626
753.675	0.0142788
753.753	0.0142740
753.831	0.0141681
753.910	0.0142155
753.988	0.0142605
754.066	0.0144145
754.144	0.0143079
754.222	0.0142613
754.300	0.0143697
754.378	0.0143581
754.456	0.0142818
754.535	0.0143079
754.613	0.0143636
754.691	0.0141939
754.769	0.0144124
754.847	0.0143639
754.925	0.0142992
755.003	0.0144505
755.081	0.0143418
755.160	0.0143636
755.238	0.0143690
755.316	0.0144109
755.394	0.0143487
755.472	0.0144117
755.550	0.0143886
755.628	0.0145021
755.706	0.0144463
755.785	0.0143906
755.863	0.0144686
755.941	0.0144304
756.019	0.0143052
756.097	0.0145261
756.175	0.0143947
756.253	0.0145388
756.331	0.0143468
756.410	0.0144154
756.488	0.0144229
756.566	0.0145030
756.644	0.0143774
756.722	0.0143211
756.800	0.0144166
756.878	0.0144170
756.956	0.0145616
757.035	0.0145219
757.113	0.0144829
757.191	0.0145475
757.269	0.0146057
757.347	0.0144290
757.425	0.0146494
757.503	0.0146081
757.581	0.0146993
757.660	0.0145489
757.738	0.0147106
757.816	0.0145975
757.894	0.0146143
757.972	0.0147678
758.050	0.0146043
758.128	0.0146425
758.206	0.0145872
758.285	0.0145914
758.363	0.0145840
758.441	0.0146397
758.519	0.0145650
758.597	0.0146499
758.675	0.0146414
758.753	0.0146637
758.831	0.0145671
758.910	0.0146236
758.988	0.0146314
759.066	0.0145088
759.144	0.0145653
759.222	0.0145900
759.300	0.0146045
759.378	0.0144757
759.456	0.0145615
759.535	0.0145741
759.613	0.0145725
759.691	0.0144553
759.769	0.0146622
759.847	0.0145541
759.925	0.0145097
760.003	0.0146577
760.081	0.0144822
760.160	0.0145425
760.238	0.0145181
760.316	0.0145554
760.394	0.0145067
760.472	0.0146864
760.550	0.0146605
760.628	0.0146028
760.706	0.0145629
760.785	0.0145970
760.863	0.0144399
760.941	0.0145019
761.019	0.0145909
761.097	0.0145228
761.175	0.0145477
761.253	0.0145174
761.331	0.0146180
761.410	0.0145190
761.488	0.0145919
761.566	0.0144694
761.644	0.0144341
761.722	0.0146284
761.800	0.0146744
761.878	0.0147004
761.956	0.0145132
762.035	0.0146063
762.113	0.0147250
762.191	0.0146745
762.269	0.0145427
762.347	0.0145934
762.425	0.0144559
762.503	0.0146931
762.581	0.0145652
762.660	0.0145121
762.738	0.0146130
762.816	0.0147004
762.894	0.0145979
762.972	0.0146326
763.050	0.0146667
763.128	0.0145525
763.206	0.0146321
763.285	0.0147031
763.363	0.0145812
763.441	0.0145353
763.519	0.0145791
763.597	0.0144949
763.675	0.0145066
763.753	0.0147008
763.831	0.0145161
763.910	0.0144977
763.988	0.0145237
764.066	0.0144788
764.144	0.0145377
764.222	0.0146386
764.300	0.0145905
764.378	0.0146819
764.456	0.0145731
764.535	0.0145798
764.613	0.0146722
764.691	0.0145791
764.769	0.0147648
764.847	0.0147668
764.925	0.0146545
765.003	0.0146440
765.081	0.0144996
765.160	0.0146619
765.238	0.0145783
765.316	0.0145450
765.394	0.0146286
765.472	0.0144756
765.550	0.0145476
765.628	0.0145758
765.706	0.0146340
765.785	0.0144958
765.863	0.0145459
765.941	0.0145228
766.019	0.0144992
766.097	0.0145494
766.175	0.0144508
766.253	0.0145447
766.331	0.0145078
766.410	0.0144258
766.488	0.0145544
766.566	0.0144432
766.644	0.0143556
766.722	0.0142422
766.800	0.0144470
766.878	0.0144815
766.956	0.0144333
767.035	0.0144463
767.113	0.0143904
767.191	0.0143268
767.269	0.0143591
767.347	0.0143056
767.425	0.0145058
767.503	0.0144178
767.581	0.0144942
767.660	0.0143944
767.738	0.0143917
767.816	0.0144047
767.894	0.0143391
767.972	0.0143944
768.050	0.0145843
768.128	0.0145176
768.206	0.0144669
768.285	0.0144141
768.363	0.0143204
768.441	0.0145364
768.519	0.0143032
768.597	0.0144789
768.675	0.0143607
768.753	0.0143794
768.831	0.0143724
768.910	0.0144088
768.988	0.0142504
769.066	0.0144482
769.144	0.0144138
769.222	0.0144141
769.300	0.0144786
769.378	0.0144672
769.456	0.0144129
769.535	0.0143776
769.613	0.0143726
769.691	0.0143973
769.769	0.0144267
769.847	0.0144984
769.925	0.0144127
770.003	0.0143958
770.081	0.0143318
770.160	0.0144098
770.238	0.0144901
770.316	0.0143974
770.394	0.0144839
770.472	0.0145438
770.550	0.0144334
770.628	0.0143980
770.706	0.0143816
770.785	0.0144016
770.863	0.0143970
770.941	0.0144843
771.019	0.0144939
771.097	0.0143648
771.175	0.0143364
771.253	0.0144432
771.331	0.0144624
771.410	0.0143913
771.488	0.0143731
771.566	0.0145004
771.644	0.0146131
771.722	0.0144385
771.800	0.0145166
771.878	0.0145595
771.956	0.0146004
772.035	0.0146561
772.113	0.0145856
772.191	0.0146893
772.269	0.0146377
772.347	0.0146244
772.425	0.0147069
772.503	0.0147202
772.581	0.0145355
772.660	0.0144660
772.738	0.0145196
772.816	0.0145911
772.894	0.0146152
772.972	0.0144067
773.050	0.0146880
773.128	0.0145969
773.206	0.0145021
773.285	0.0144555
773.363	0.0144841
773.441	0.0145295
773.519	0.0146979
773.597	0.0145375
773.675	0.0145509
773.753	0.0145369
773.831	0.0145161
773.910	0.0145584
773.988	0.0144484
774.066	0.0144577
774.144	0.0145806
774.222	0.0145439
774.300	0.0144508
774.378	0.0144711
774.456	0.0143008
774.535	0.0144467
774.613	0.0144694
774.691	0.0145352
774.769	0.0146221
774.847	0.0146391
774.925	0.0144892
775.003	0.0143484
775.081	0.0145604
775.160	0.0144804
775.238	0.0144946
775.316	0.0145438
775.394	0.0144795
775.472	0.0145355
775.550	0.0145191
775.628	0.0144454
775.706	0.0144897
775.785	0.0143990
775.863	0.0143481
775.941	0.0144400
776.019	0.0145217
776.097	0.0145269
776.175	0.0143608
776.253	0.0144118
776.331	0.0144523
776.410	0.0145396
776.488	0.0144598
776.566	0.0142792
776.644	0.0143927
776.722	0.0143916
776.800	0.0143703
776.878	0.0144511
776.956	0.0145253
777.035	0.0144081
777.113	0.0144393
777.191	0.0142476
777.269	0.0144398
777.347	0.0145325
777.425	0.0142997
777.503	0.0143111
777.581	0.0145699
777.660	0.0144246
777.738	0.0143699
777.816	0.0141800
777.894	0.0144537
777.972	0.0143977
778.050	0.0144198
778.128	0.0145020
778.206	0.0144077
778.285	0.0143725
778.363	0.0142249
778.441	0.0143265
778.519	0.0144283
778.597	0.0143848
778.675	0.0144040
778.753	0.0145389
778.831	0.0143626
778.910	0.0144801
778.988	0.0145624
779.066	0.0144479
779.144	0.0145145
779.222	0.0143700
779.300	0.0145450
779.378	0.0145153
779.456	0.0145092
779.535	0.0145330
779.613	0.0146448
779.691	0.0145898
779.769	0.0146317
779.847	0.0145033
779.925	0.0145020
780.003	0.0146301
780.081	0.0144923
780.160	0.0146073
780.238	0.0145802
780.316	0.0146202
780.394	0.0145734
780.472	0.0144823
780.550	0.0145391
780.628	0.0146688
780.706	0.0145036
780.785	0.0144252
780.863	0.0144877
780.941	0.0144462
781.019	0.0143181
781.097	0.0145029
781.175	0.0144445
781.253	0.0144252
781.331	0.0144585
781.410	0.0144822
781.488	0.0144913
781.566	0.0143920
781.644	0.0143266
781.722	0.0144592
781.800	0.0145142
781.878	0.0144247
781.956	0.0143843
782.035	0.0144780
782.113	0.0144204
782.191	0.0143535
782.269	0.0144186
782.347	0.0144430
782.425	0.0142863
782.503	0.0146810
782.581	0.0145342
782.660	0.0144545
782.738	0.0144786
782.816	0.0144749
782.894	0.0144589
782.972	0.0144130
783.050	0.0143436
783.128	0.0143907
783.206	0.0144946
783.285	0.0143945
783.363	0.0143262
783.441	0.0143327
783.519	0.0143881
783.597	0.0144627
783.675	0.0143904
783.753	0.0143546
783.831	0.0144405
783.910	0.0145119
783.988	0.0144370
784.066	0.0144085
784.144	0.0143333
784.222	0.0143250
784.300	0.0143334
784.378	0.0144003
784.456	0.0144099
784.535	0.0144904
784.613	0.0143639
784.691	0.0143317
784.769	0.0145755
784.847	0.0143699
784.925	0.0143257
785.003	0.0142939
785.081	0.0144044
785.160	0.0142500
785.238	0.0144318
785.316	0.0144993
785.394	0.0142994
785.472	0.0144418
785.550	0.0145120
785.628	0.0144049
785.706	0.0143359
785.785	0.0144625
785.863	0.0144176
785.941	0.0144256
786.019	0.0145171
786.097	0.0144630
786.175	0.0144581
786.253	0.0144854
786.331	0.0143883
786.410	0.0145184
786.488	0.0145674
786.566	0.0144720
786.644	0.0144878
786.722	0.0145031
786.800	0.0144951
786.878	0.0145683
786.956	0.0145018
787.035	0.0145477
787.113	0.0145063
787.191	0.0144968
787.269	0.0146360
787.347	0.0145811
787.425	0.0144881
787.503	0.0144241
787.581	0.0145934
787.660	0.0144782
787.738	0.0145411
787.816	0.0146281
787.894	0.0144204
787.972	0.0145267
788.050	0.0144563
788.128	0.0145803
788.206	0.0144312
788.285	0.0143382
788.363	0.0144037
788.441	0.0145458
788.519	0.0144773
788.597	0.0144475
788.675	0.0144879
788.753	0.0144355
788.831	0.0144422
788.910	0.0143450
788.988	0.0144595
789.066	0.0144567
789.144	0.0145055
789.222	0.0145625
789.300	0.0144247
789.378	0.0144222
789.456	0.0144044
789.535	0.0145099
789.613	0.0144942
789.691	0.0144761
789.769	0.0144611
789.847	0.0144296
789.925	0.0144436
790.003	0.0145792
790.081	0.0146294
790.160	0.0144130
790.238	0.0145022
790.316	0.0145101
790.394	0.0144132
790.472	0.0145624
790.550	0.0145998
790.628	0.0144672
790.706	0.0144298
790.785	0.0144786
790.863	0.0145235
790.941	0.0144405
791.019	0.0143181
791.097	0.0144685
791.175	0.0144609
791.253	0.0145250
791.331	0.0145496
791.410	0.0145924
791.488	0.0145811
791.566	0.0145032
791.644	0.0145380
791.722	0.0145393
791.800	0.0144866
791.878	0.0145438
791.956	0.0144546
792.035	0.0144484
792.113	0.0143118
792.191	0.0144701
792.269	0.0145659
792.347	0.0144992
792.425	0.0144639
792.503	0.0144608
792.581	0.0143653
792.660	0.0144300
792.738	0.0145427
792.816	0.0144231
792.894	0.0143462
792.972	0.0143867
793.050	0.0144994
793.128	0.0145380
793.206	0.0146128
793.285	0.0145214
793.363	0.0145328
793.441	0.0145184
793.519	0.0145647
793.597	0.0144810
793.675	0.0145476
793.753	0.0145581
793.831	0.0145083
793.910	0.0146704
793.988	0.0146655
794.066	0.0147314
794.144	0.0146134
794.222	0.0145079
794.300	0.0146548
794.378	0.0146590
794.456	0.0146892
794.535	0.0146319
794.613	0.0143970
794.691	0.0145599
794.769	0.0145053
794.847	0.0146311
794.925	0.0145865
795.003	0.0145960
795.081	0.0144633
795.160	0.0145378
795.238	0.0145352
795.316	0.0144349
795.394	0.0145087
795.472	0.0144766
795.550	0.0144521
795.628	0.0143577
795.706	0.0144640
795.785	0.0144634
795.863	0.0145290
795.941	0.0144013
796.019	0.0143901
796.097	0.0145387
796.175	0.0144236
796.253	0.0144766
796.331	0.0143861
796.410	0.0143979
796.488	0.0144888
796.566	0.0145190
796.644	0.0144115
796.722	0.0145385
796.800	0.0145430
796.878	0.0145824
796.956	0.0143807
797.035	0.0144910
797.113	0.0144666
797.191	0.0145673
797.269	0.0144621
797.347	0.0145808
797.425	0.0145075
797.503	0.0144865
797.581	0.0144842
797.660	0.0143636
797.738	0.0144493
797.816	0.0145049
797.894	0.0146159
797.972	0.0145342
798.050	0.0144396
798.128	0.0145619
798.206	0.0145233
798.285	0.0144463
798.363	0.0146288
798.441	0.0147147
798.519	0.0145338
798.597	0.0144122
798.675	0.0144052
798.753	0.0146518
798.831	0.0146124
798.910	0.0146096
798.988	0.0145226
799.066	0.0146510
799.144	0.0145509
799.222	0.0145338
799.300	0.0146649
799.378	0.0145860
799.456	0.0144934
799.535	0.0146399
799.613	0.0144861
799.691	0.0144540
799.769	0.0145232
799.847	0.0145734
799.925	0.0145562
800.003	0.0145836
800.081	0.0145834
800.160	0.0145026
800.238	0.0144344
800.316	0.0144447
800.394	0.0145881
800.472	0.0144669
800.550	0.0144325
800.628	0.0144600
800.706	0.0145759
800.785	0.0145338
800.863	0.0145346
800.941	0.0146700
801.019	0.0144205
801.097	0.0144704
801.175	0.0145809
801.253	0.0144862
801.331	0.0145117
801.410	0.0147471
801.488	0.0145190
801.566	0.0145494
801.644	0.0145734
801.722	0.0145491
801.800	0.0144852
801.878	0.0145412
801.956	0.0146246
802.035	0.0146154
802.113	0.0145471
802.191	0.0145494
802.269	0.0146001
802.347	0.0144373
802.425	0.0145481
802.503	0.0145283
802.581	0.0144684
802.660	0.0142886
802.738	0.0142675
802.816	0.0145924
802.894	0.0145966
802.972	0.0145518
803.050	0.0145024
803.128	0.0143519
803.206	0.0144559
803.285	0.0143929
803.363	0.0143108
803.441	0.0143509
803.519	0.0143872
803.597	0.0144301
803.675	0.0144064
803.753	0.0144029
803.831	0.0144375
803.910	0.0144282
803.988	0.0144493
804.066	0.0143597
804.144	0.0143409
804.222	0.0143497
804.300	0.0143140
804.378	0.0144442
804.456	0.0144839
804.535	0.0144651
804.613	0.0143343
804.691	0.0144709
804.769	0.0144294
804.847	0.0143382
804.925	0.0142617
805.003	0.0142680
805.081	0.0143955
805.160	0.0142707
805.238	0.0143617
805.316	0.0142944
805.394	0.0144190
805.472	0.0144321
805.550	0.0143245
805.628	0.0143201
805.706	0.0142837
805.785	0.0143867
805.863	0.0144912
805.941	0.0143159
806.019	0.0142884
806.097	0.0143326
806.175	0.0142884
806.253	0.0143854
806.331	0.0143610
806.410	0.0143555
806.488	0.0143571
806.566	0.0143967
806.644	0.0143614
806.722	0.0141850
806.800	0.0143945
806.878	0.0143967
806.956	0.0142405
807.035	0.0143892
807.113	0.0143971
807.191	0.0145152
807.269	0.0143671
807.347	0.0143810
807.425	0.0142696
807.503	0.0142766
807.581	0.0144200
807.660	0.0144740
807.738	0.0143082
807.816	0.0143189
807.894	0.0141751
807.972	0.0143996
808.050	0.0144328
808.128	0.0145043
808.206	0.0143743
808.285	0.0144625
808.363	0.0144105
808.441	0.0145053
808.519	0.0146298
808.597	0.0145005
808.675	0.0145013
808.753	0.0145314
808.831	0.0146638
808.910	0.0144994
808.988	0.0144907
809.066	0.0145930
809.144	0.0145181
809.222	0.0144665
809.300	0.0144942
809.378	0.0144691
809.456	0.0145223
809.535	0.0146429
809.613	0.0143726
809.691	0.0145078
809.769	0.0143235
809.847	0.0143745
809.925	0.0144976
810.003	0.0144920
810.081	0.0142854
810.160	0.0143400
810.238	0.0143988
810.316	0.0142998
810.394	0.0144266
810.472	0.0144184
810.550	0.0143379
810.628	0.0144495
810.706	0.0145535
810.785	0.0144200
810.863	0.0143587
810.941	0.0145758
811.019	0.0144431
811.097	0.0144650
811.175	0.0144582
811.253	0.0144378
811.331	0.0144794
811.410	0.0145576
811.488	0.0144249
811.566	0.0144748
811.644	0.0143351
811.722	0.0144006
811.800	0.0143784
811.878	0.0145914
811.956	0.0146209
812.035	0.0144346
812.113	0.0145074
812.191	0.0145269
812.269	0.0144360
812.347	0.0146354
812.425	0.0145109
812.503	0.0146829
812.581	0.0145116
812.660	0.0145427
812.738	0.0144506
812.816	0.0145425
812.894	0.0145457
812.972	0.0145914
813.050	0.0144945
813.128	0.0145930
813.206	0.0146334
813.285	0.0145764
813.363	0.0146227
813.441	0.0145651
813.519	0.0144091
813.597	0.0146087
813.675	0.0146381
813.753	0.0146379
813.831	0.0146091
813.910	0.0145590
813.988	0.0144906
814.066	0.0145731
814.144	0.0145973
814.222	0.0144207
814.300	0.0144754
814.378	0.0145036
814.456	0.0144470
814.535	0.0145152
814.613	0.0145856
814.691	0.0146364
814.769	0.0146451
814.847	0.0145435
814.925	0.0144831
815.003	0.0143767
815.081	0.0144973
815.160	0.0145551
815.238	0.0145621
815.316	0.0146032
815.394	0.0146436
815.472	0.0146035
815.550	0.0145045
815.628	0.0145448
815.706	0.0146706
815.785	0.0145078
815.863	0.0146230
815.941	0.0146760
816.019	0.0145959
816.097	0.0146450
816.175	0.0146654
816.253	0.0146602
816.331	0.0145690
816.410	0.0146556
816.488	0.0146907
816.566	0.0146050
816.644	0.0145605
816.722	0.0146092
816.800	0.0145237
816.878	0.0147528
816.956	0.0145133
817.035	0.0145184
817.113	0.0145066
817.191	0.0146435
817.269	0.0144971
817.347	0.0143889
817.425	0.0144297
817.503	0.0146078
817.581	0.0145053
817.660	0.0145164
817.738	0.0145039
817.816	0.0145644
817.894	0.0145184
817.972	0.0145160
818.050	0.0145438
818.128	0.0144724
818.206	0.0144710
818.285	0.0144595
818.363	0.0143581
818.441	0.0145310
818.519	0.0146215
818.597	0.0145097
818.675	0.0143871
818.753	0.0146027
818.831	0.0145985
818.910	0.0145020
818.988	0.0145846
819.066	0.0143497
819.144	0.0145014
819.222	0.0146513
819.300	0.0145067
819.378	0.0144214
819.456	0.0144009
819.535	0.0144576
819.613	0.0145126
819.691	0.0144359
819.769	0.0144461
819.847	0.0145288
819.925	0.0144534
820.003	0.0144443
820.081	0.0144570
820.160	0.0144357
820.238	0.0146854
820.316	0.0146563
820.394	0.0145705
820.472	0.0145219
820.550	0.0144420
820.628	0.0144833
820.706	0.0146270
820.785	0.0145993
820.863	0.0145244
820.941	0.0146310
821.019	0.0144540
821.097	0.0144740
821.175	0.0146254
821.253	0.0144701
821.331	0.0145186
821.410	0.0145544
821.488	0.0144027
821.566	0.0145313
821.644	0.0144965
821.722	0.0144821
821.800	0.0144556
821.878	0.0145538
821.956	0.0144791
822.035	0.0146271
822.113	0.0144342
822.191	0.0144629
822.269	0.0144804
822.347	0.0145745
822.425	0.0144573
822.503	0.0145757
822.581	0.0144769
822.660	0.0145655
822.738	0.0145286
822.816	0.0145850
822.894	0.0146961
822.972	0.0146828
823.050	0.0145161
823.128	0.0146025
823.206	0.0146426
823.285	0.0145953
823.363	0.0145879
823.441	0.0146632
823.519	0.0147182
823.597	0.0145700
823.675	0.0144884
823.753	0.0146262
823.831	0.0144907
823.910	0.0147073
823.988	0.0145543
824.066	0.0145219
824.144	0.0145641
824.222	0.0145071
824.300	0.0146113
824.378	0.0144073
824.456	0.0144231
824.535	0.0144827
824.613	0.0144909
824.691	0.0144416
824.769	0.0144296
824.847	0.0144117
824.925	0.0143745
825.003	0.0144659
825.081	0.0145187
825.160	0.0144520
825.238	0.0145575
825.316	0.0144631
825.394	0.0144025
825.472	0.0145226
825.550	0.0144476
825.628	0.0143377
825.706	0.0145393
825.785	0.0144704
825.863	0.0145711
825.941	0.0143806
826.019	0.0144342
826.097	0.0143988
826.175	0.0144403
826.253	0.0144742
826.331	0.0145369
826.410	0.0144954
826.488	0.0144552
826.566	0.0143816
826.644	0.0144299
826.722	0.0144603
826.800	0.0145143
826.878	0.0144176
826.956	0.0144023
827.035	0.0142949
827.113	0.0144975
827.191	0.0144302
827.269	0.0142828
827.347	0.0143576
827.425	0.0145068
827.503	0.0144069
827.581	0.0146567
827.660	0.0143824
827.738	0.0144494
827.816	0.0144746
827.894	0.0144144
827.972	0.0144279
828.050	0.0144337
828.128	0.0145179
828.206	0.0145014
828.285	0.0145094
828.363	0.0145486
828.441	0.0143822
828.519	0.0144846
828.597	0.0145441
828.675	0.0144438
828.753	0.0144402
828.831	0.0146606
828.910	0.0144918
828.988	0.0145561
829.066	0.0145205
829.144	0.0145556
829.222	0.0145112
829.300	0.0146259
829.378	0.0145457
829.456	0.0144485
829.535	0.0145344
829.613	0.0143975
829.691	0.0145222
829.769	0.0145586
829.847	0.0146584
829.925	0.0145090
830.003	0.0145009
830.081	0.0145470
830.160	0.0146316
830.238	0.0145851
830.316	0.0145942
830.394	0.0146281
830.472	0.0145354
830.550	0.0147565
830.628	0.0144972
830.706	0.0145781
830.785	0.0144815
830.863	0.0146154
830.941	0.0147305
831.019	0.0147206
831.097	0.0146779
831.175	0.0145755
831.253	0.0146543
831.331	0.0146066
831.410	0.0145562
831.488	0.0145948
831.566	0.0146363
831.644	0.0146098
831.722	0.0145038
831.800	0.0144582
831.878	0.0144751
831.956	0.0146012
832.035	0.0146417
832.113	0.0145666
832.191	0.0144661
832.269	0.0144533
832.347	0.0143757
832.425	0.0144347
832.503	0.0143038
832.581	0.0143398
832.660	0.0143761
832.738	0.0144250
832.816	0.0145014
832.894	0.0143945
832.972	0.0143731
833.050	0.0144330
833.128	0.0144954
833.206	0.0144577
833.285	0.0143716
833.363	0.0145054
833.441	0.0144911
833.519	0.0144962
833.597	0.0145277
833.675	0.0145582
833.753	0.0144374
833.831	0.0143843
833.910	0.0145524
833.988	0.0145053
834.066	0.0144957
834.144	0.0145485
834.222	0.0144161
834.300	0.0145458
834.378	0.0145382
834.456	0.0144683
834.535	0.0145917
834.613	0.0145562
834.691	0.0144790
834.769	0.0144347
834.847	0.0142867
834.925	0.0143970
835.003	0.0144609
835.081	0.0145731
835.160	0.0144379
835.238	0.0144437
835.316	0.0143875
835.394	0.0145100
835.472	0.0144669
835.550	0.0144327
835.628	0.0143976
835.706	0.0144047
835.785	0.0144915
835.863	0.0143785
835.941	0.0144607
836.019	0.0145872
836.097	0.0145564
836.175	0.0143854
836.253	0.0144720
836.331	0.0144646
836.410	0.0145414
836.488	0.0144192
836.566	0.0145481
836.644	0.0144283
836.722	0.0143745
836.800	0.0145231
836.878	0.0143767
836.956	0.0144554
837.035	0.0145203
837.113	0.0145748
837.191	0.0145667
837.269	0.0146915
837.347	0.0146269
837.425	0.0146619
837.503	0.0145928
837.581	0.0146346
837.660	0.0145693
837.738	0.0146709
837.816	0.0146812
837.894	0.0146799
837.972	0.0145846
838.050	0.0145573
838.128	0.0146709
838.206	0.0146219
838.285	0.0147831
838.363	0.0147897
838.441	0.0146392
838.519	0.0146756
838.597	0.0146156
838.675	0.0146120
838.753	0.0146059
838.831	0.0145886
838.910	0.0146181
838.988	0.0144923
839.066	0.0145555
839.144	0.0144662
839.222	0.0144581
839.300	0.0145782
839.378	0.0144996
839.456	0.0145580
839.535	0.0144696
839.613	0.0146204
839.691	0.0145241
839.769	0.0143287
839.847	0.0144531
839.925	0.0144897
840.003	0.0145317
840.081	0.0145277
840.160	0.0145313
840.238	0.0146074
840.316	0.0145740
840.394	0.0144548
840.472	0.0144150
840.550	0.0144347
840.628	0.0144878
840.706	0.0145181
840.785	0.0144689
840.863	0.0144839
840.941	0.0144642
841.019	0.0144679
841.097	0.0144617
841.175	0.0145490
841.253	0.0144776
841.331	0.0142177
841.410	0.0145406
841.488	0.0143821
841.566	0.0143993
841.644	0.0144671
841.722	0.0143749
841.800	0.0145345
841.878	0.0144317
841.956	0.0144279
842.035	0.0143987
842.113	0.0143891
842.191	0.0145028
842.269	0.0144762
842.347	0.0144478
842.425	0.0144875
842.503	0.0144681
842.581	0.0144071
842.660	0.0144601
842.738	0.0144326
842.816	0.0144969
842.894	0.0144110
842.972	0.0144814
843.050	0.0144573
843.128	0.0145509
843.206	0.0145370
843.285	0.0144652
843.363	0.0144594
843.441	0.0144570
843.519	0.0144470
843.597	0.0144605
843.675	0.0145238
843.753	0.0146088
843.831	0.0145505
843.910	0.0145048
843.988	0.0144080
844.066	0.0144341
844.144	0.0145798
844.222	0.0144243
844.300	0.0145269
844.378	0.0145065
844.456	0.0145652
844.535	0.0144305
844.613	0.0144567
844.691	0.0144958
844.769	0.0144442
844.847	0.0144213
844.925	0.0145624
845.003	0.0144465
845.081	0.0145150
845.160	0.0144582
845.238	0.0145152
845.316	0.0145967
845.394	0.0145238
845.472	0.0145927
845.550	0.0145672
845.628	0.0145300
845.706	0.0145615
845.785	0.0144745
845.863	0.0145477
845.941	0.0146345
846.019	0.0145788
846.097	0.0147710
846.175	0.0146521
846.253	0.0146961
846.331	0.0146009
846.410	0.0145467
846.488	0.0145783
846.566	0.0145843
846.644	0.0146586
846.722	0.0145164
846.800	0.0144209
846.878	0.0145305
846.956	0.0144423
847.035	0.0145710
847.113	0.0145016
847.191	0.0145396
847.269	0.0145324
847.347	0.0144257
847.425	0.0146518
847.503	0.0144618
847.581	0.0144897
847.660	0.0145578
847.738	0.0144537
847.816	0.0145532
847.894	0.0144769
847.972	0.0146363
848.050	0.0145085
848.128	0.0145445
848.206	0.0145920
848.285	0.0144284
848.363	0.0144389
848.441	0.0144505
848.519	0.0146368
848.597	0.0143399
848.675	0.0145207
848.753	0.0145416
848.831	0.0144538
848.910	0.0144518
848.988	0.0145438
849.066	0.0144914
849.144	0.0145036
849.222	0.0145697
849.300	0.0145407
849.378	0.0144425
849.456	0.0145998
849.535	0.0144587
849.613	0.0145318
849.691	0.0144853
849.769	0.0145631
849.847	0.0145494
849.925	0.0143391
850.003	0.0146011
850.081	0.0145610
850.160	0.0146431
850.238	0.0145340
850.316	0.0145920
850.394	0.0145451
850.472	0.0144719
850.550	0.0145358
850.628	0.0145745
850.706	0.0145235
850.785	0.0147282
850.863	0.0144926
850.941	0.0143991
851.019	0.0146002
851.097	0.0145441
851.175	0.0144521
851.253	0.0145206
851.331	0.0144106
851.410	0.0144033
851.488	0.0145828
851.566	0.0145125
851.644	0.0144366
851.722	0.0144184
851.800	0.0145015
851.878	0.0144502
851.956	0.0144949
852.035	0.0144554
852.113	0.0146027
852.191	0.0144739
852.269	0.0144204
852.347	0.0145969
852.425	0.0146442
852.503	0.0146312
852.581	0.0145199
852.660	0.0146610
852.738	0.0146299
852.816	0.0146639
852.894	0.0146207
852.972	0.0146893
853.050	0.0147054
853.128	0.0146545
853.206	0.0146421
853.285	0.0146954
853.363	0.0146537
853.441	0.0146294
853.519	0.0146416
853.597	0.0146615
853.675	0.0145888
853.753	0.0146753
853.831	0.0146053
853.910	0.0146686
853.988	0.0145571
854.066	0.0144943
854.144	0.0145831
854.222	0.0145883
854.300	0.0144626
854.378	0.0144749
854.456	0.0144664
854.535	0.0144868
854.613	0.0144171
854.691	0.0144588
854.769	0.0145601
854.847	0.0144055
854.925	0.0145070
855.003	0.0144376
855.081	0.0144489
855.160	0.0145356
855.238	0.0144365
855.316	0.0145533
855.394	0.0144608
855.472	0.0144728
855.550	0.0143688
855.628	0.0145139
855.706	0.0144383
855.785	0.0142665
855.863	0.0145116
855.941	0.0146080
856.019	0.0144993
856.097	0.0146072
856.175	0.0145613
856.253	0.0144851
856.331	0.0144624
856.410	0.0146462
856.488	0.0144894
856.566	0.0145109
856.644	0.0144568
856.722	0.0145749
856.800	0.0146608
856.878	0.0146561
856.956	0.0145575
857.035	0.0145885
857.113	0.0146334
857.191	0.0144942
857.269	0.0146604
857.347	0.0146114
857.425	0.0145834
857.503	0.0146393
857.581	0.0145724
857.660	0.0144678
857.738	0.0145695
857.816	0.0145399
857.894	0.0146021
857.972	0.0145236
858.050	0.0144592
858.128	0.0145911
858.206	0.0145583
858.285	0.0144550
858.363	0.0146751
858.441	0.0147073
858.519	0.0145322
858.597	0.0144708
858.675	0.0146701
858.753	0.0144062
858.831	0.0145937
858.910	0.0146345
858.988	0.0145216
859.066	0.0145527
859.144	0.0145647
859.222	0.0144741
859.300	0.0146033
859.378	0.0145954
859.456	0.0146326
859.535	0.0145787
859.613	0.0145447
859.691	0.0146748
859.769	0.0145490
859.847	0.0145151
859.925	0.0145322
860.003	0.0145625
860.081	0.0145802
860.160	0.0146654
860.238	0.0146729
860.316	0.0145825
860.394	0.0145483
860.472	0.0146569
860.550	0.0147001
860.628	0.0145794
860.706	0.0145853
860.785	0.0146187
860.863	0.0145777
860.941	0.0146927
861.019	0.0146439
861.097	0.0146136
861.175	0.0144923
861.253	0.0144788
861.331	0.0144951
861.410	0.0144674
861.488	0.0144570
861.566	0.0145049
861.644	0.0145286
861.722	0.0143838
861.800	0.0143871
861.878	0.0144468
861.956	0.0142934
862.035	0.0145508
862.113	0.0145279
862.191	0.0145203
862.269	0.0145015
862.347	0.0145471
862.425	0.0143484
862.503	0.0144049
862.581	0.0144165
862.660	0.0145173
862.738	0.0144321
862.816	0.0142960
862.894	0.0145366
862.972	0.0144746
863.050	0.0143189
863.128	0.0144685
863.206	0.0146841
863.285	0.0144906
863.363	0.0144472
863.441	0.0144350
863.519	0.0145447
863.597	0.0144733
863.675	0.0143222
863.753	0.0143800
863.831	0.0143897
863.910	0.0144424
863.988	0.0142616
864.066	0.0143475
864.144	0.0144710
864.222	0.0143497
864.300	0.0145976
864.378	0.0145358
864.456	0.0144798
864.535	0.0144728
864.613	0.0145187
864.691	0.0145539
864.769	0.0145771
864.847	0.0144322
864.925	0.0144448
865.003	0.0145217
865.081	0.0145330
865.160	0.0144895
865.238	0.0144202
865.316	0.0144885
865.394	0.0144383
865.472	0.0145661
865.550	0.0144451
865.628	0.0143909
865.706	0.0144960
865.785	0.0145107
865.863	0.0143843
865.941	0.0144190
866.019	0.0144559
866.097	0.0145242
866.175	0.0145528
866.253	0.0143436
866.331	0.0144588
866.410	0.0145003
866.488	0.0145700
866.566	0.0144003
866.644	0.0144653
866.722	0.0143313
866.800	0.0144870
866.878	0.0144858
866.956	0.0145118
867.035	0.0145593
867.113	0.0146211
867.191	0.0145890
867.269	0.0145220
867.347	0.0145406
867.425	0.0145290
867.503	0.0144889
867.581	0.0145445
867.660	0.0144131
867.738	0.0146146
867.816	0.0144618
867.894	0.0145915
867.972	0.0145607
868.050	0.0146107
868.128	0.0145075
868.206	0.0144818
868.285	0.0145287
868.363	0.0146909
868.441	0.0146096
868.519	0.0145190
868.597	0.0144333
868.675	0.0144675
868.753	0.0145306
868.831	0.0144741
868.910	0.0145377
868.988	0.0144098
869.066	0.0143014
869.144	0.0144148
869.222	0.0143757
869.300	0.0144056
869.378	0.0143876
869.456	0.0143380
869.535	0.0143316
869.613	0.0144050
869.691	0.0144075
869.769	0.0144426
869.847	0.0143348
869.925	0.0143234
870.003	0.0142446
870.081	0.0144085
870.160	0.0142760
870.238	0.0142437
870.316	0.0143468
870.394	0.0144053
870.472	0.0143111
870.550	0.0143015
870.628	0.0142485
870.706	0.0142972
870.785	0.0142661
870.863	0.0142925
870.941	0.0143130
871.019	0.0143950
871.097	0.0142760
871.175	0.0143523
871.253	0.0144182
871.331	0.0143199
871.410	0.0143687
871.488	0.0143745
871.566	0.0144028
871.644	0.0144487
871.722	0.0143767
871.800	0.0143907
871.878	0.0143170
871.956	0.0142974
872.035	0.0143890
872.113	0.0143948
872.191	0.0143142
872.269	0.0144090
872.347	0.0142277
872.425	0.0143300
872.503	0.0144183
872.581	0.0143608
872.660	0.0144690
872.738	0.0142464
872.816	0.0143767
872.894	0.0143374
872.972	0.0143395
873.050	0.0144130
873.128	0.0143769
873.206	0.0143529
873.285	0.0144634
873.363	0.0144847
873.441	0.0142528
873.519	0.0144672
873.597	0.0143932
873.675	0.0144430
873.753	0.0145299
873.831	0.0144750
873.910	0.0145286
873.988	0.0145862
874.066	0.0146397
874.144	0.0145773
874.222	0.0145482
874.300	0.0146096
874.378	0.0145285
874.456	0.0145367
874.535	0.0145155
874.613	0.0147318
874.691	0.0145625
874.769	0.0145733
874.847	0.0146762
874.925	0.0149174
875.003	0.0148222
875.081	0.0145603
875.160	0.0146226
875.238	0.0147434
875.316	0.0147593
875.394	0.0146462
875.472	0.0146220
875.550	0.0147250
875.628	0.0148201
875.706	0.0146662
875.785	0.0146335
875.863	0.0147238
875.941	0.0148771
876.019	0.0145971
876.097	0.0145131
876.175	0.0146468
876.253	0.0145791
876.331	0.0145577
876.410	0.0147096
876.488	0.0145677
876.566	0.0145924
876.644	0.0144603
876.722	0.0143733
876.800	0.0145564
876.878	0.0144942
876.956	0.0144453
877.035	0.0145089
877.113	0.0144897
877.191	0.0143959
877.269	0.0143861
877.347	0.0145092
877.425	0.0143758
877.503	0.0143719
877.581	0.0144516
877.660	0.0144695
877.738	0.0143827
877.816	0.0144509
877.894	0.0143919
877.972	0.0144385
878.050	0.0143875
878.128	0.0145064
878.206	0.0145501
878.285	0.0144250
878.363	0.0144992
878.441	0.0145893
878.519	0.0145280
878.597	0.0146426
878.675	0.0143922
878.753	0.0144837
878.831	0.0144964
878.910	0.0144026
878.988	0.0145259
879.066	0.0144593
879.144	0.0144897
879.222	0.0143697
879.300	0.0144946
879.378	0.0145563
879.456	0.0144431
879.535	0.0145616
879.613	0.0143432
879.691	0.0144165
879.769	0.0145950
879.847	0.0144604
879.925	0.0144596
880.003	0.0144672
880.081	0.0145164
880.160	0.0146141
880.238	0.0145253
880.316	0.0143967
880.394	0.0144514
880.472	0.0145387
880.550	0.0143863
880.628	0.0143723
880.706	0.0145617
880.785	0.0145683
880.863	0.0145991
880.941	0.0143396
881.019	0.0144317
881.097	0.0144994
881.175	0.0144618
881.253	0.0144891
881.331	0.0146083
881.410	0.0145071
881.488	0.0144965
881.566	0.0144975
881.644	0.0145757
881.722	0.0144787
881.800	0.0145425
881.878	0.0145731
881.956	0.0145672
882.035	0.0145271
882.113	0.0145512
882.191	0.0144292
882.269	0.0146495
882.347	0.0145766
882.425	0.0144666
882.503	0.0146248
882.581	0.0145564
882.660	0.0146293
882.738	0.0146539
882.816	0.0146555
882.894	0.0146664
882.972	0.0145601
883.050	0.0145924
883.128	0.0146272
883.206	0.0145207
883.285	0.0144570
883.363	0.0144849
883.441	0.0145535
883.519	0.0144417
883.597	0.0147003
883.675	0.0145853
883.753	0.0144376
883.831	0.0143825
883.910	0.0144266
883.988	0.0145258
884.066	0.0144785
884.144	0.0144372
884.222	0.0143742
884.300	0.0143899
884.378	0.0142100
884.456	0.0143678
884.535	0.0144919
884.613	0.0143430
884.691	0.0143042
884.769	0.0142379
884.847	0.0144008
884.925	0.0143470
885.003	0.0143549
885.081	0.0144226
885.160	0.0143041
885.238	0.0143298
885.316	0.0144320
885.394	0.0142536
885.472	0.0143531
885.550	0.0142869
885.628	0.0141964
885.706	0.0142514
885.785	0.0142577
885.863	0.0144147
885.941	0.0143192
886.019	0.0143746
886.097	0.0144940
886.175	0.0143510
886.253	0.0142488
886.331	0.0143271
886.410	0.0144440
886.488	0.0143073
886.566	0.0143146
886.644	0.0144473
886.722	0.0144947
886.800	0.0144518
886.878	0.0144248
886.956	0.0144630
887.035	0.0143853
887.113	0.0144575
887.191	0.0143729
887.269	0.0144061
887.347	0.0144727
887.425	0.0143768
887.503	0.0146220
887.581	0.0145980
887.660	0.0144891
887.738	0.0143709
887.816	0.0144264
887.894	0.0144138
887.972	0.0144872
888.050	0.0144472
888.128	0.0144296
888.206	0.0145132
888.285	0.0144992
888.363	0.0145309
888.441	0.0144881
888.519	0.0144962
888.597	0.0145382
888.675	0.0145455
888.753	0.0146336
888.831	0.0146101
888.910	0.0146086
888.988	0.0146146
889.066	0.0146196
889.144	0.0145544
889.222	0.0147392
889.300	0.0147540
889.378	0.0148301
889.456	0.0147513
889.535	0.0145856
889.613	0.0146436
889.691	0.0146541
889.769	0.0147034
889.847	0.0146765
889.925	0.0147152
890.003	0.0145594
890.081	0.0145520
890.160	0.0146595
890.238	0.0145937
890.316	0.0146349
890.394	0.0146706
890.472	0.0145972
890.550	0.0145755
890.628	0.0146012
890.706	0.0146323
890.785	0.0145091
890.863	0.0145436
890.941	0.0144274
891.019	0.0145051
891.097	0.0145834
891.175	0.0145510
891.253	0.0144295
891.331	0.0144235
891.410	0.0145654
891.488	0.0145210
891.566	0.0144941
891.644	0.0145522
891.722	0.0143469
891.800	0.0143385
891.878	0.0144242
891.956	0.0145156
892.035	0.0145106
892.113	0.0144638
892.191	0.0145348
892.269	0.0144830
892.347	0.0145020
892.425	0.0144566
892.503	0.0144368
892.581	0.0145151
892.660	0.0144352
892.738	0.0144034
892.816	0.0144683
892.894	0.0144798
892.972	0.0144964
893.050	0.0144084
893.128	0.0144257
893.206	0.0146162
893.285	0.0144537
893.363	0.0144651
893.441	0.0145326
893.519	0.0144618
893.597	0.0145191
893.675	0.0145117
893.753	0.0145664
893.831	0.0144779
893.910	0.0144665
893.988	0.0145480
894.066	0.0145187
894.144	0.0146035
894.222	0.0145330
894.300	0.0145334
894.378	0.0145226
894.456	0.0145390
894.535	0.0144843
894.613	0.0145766
894.691	0.0144243
894.769	0.0144627
894.847	0.0145796
894.925	0.0146564
895.003	0.0145447
895.081	0.0144366
895.160	0.0145436
895.238	0.0146364
895.316	0.0144949
895.394	0.0145537
895.472	0.0145693
895.550	0.0144705
895.628	0.0145427
895.706	0.0145366
895.785	0.0145327
895.863	0.0145116
895.941	0.0145827
896.019	0.0146090
896.097	0.0146840
896.175	0.0146151
896.253	0.0145217
896.331	0.0145573
896.410	0.0145522
896.488	0.0145372
896.566	0.0144732
896.644	0.0145244
896.722	0.0146569
896.800	0.0146377
896.878	0.0145610
896.956	0.0147766
897.035	0.0146003
897.113	0.0145782
897.191	0.0145750
897.269	0.0145809
897.347	0.0146552
897.425	0.0147492
897.503	0.0145188
897.581	0.0146732
897.660	0.0145507
897.738	0.0146231
897.816	0.0146594
897.894	0.0145804
897.972	0.0146260
898.050	0.0145732
898.128	0.0144849
898.206	0.0145705
898.285	0.0145260
898.363	0.0143367
898.441	0.0143271
898.519	0.0144699
898.597	0.0145782
898.675	0.0144965
898.753	0.0144218
898.831	0.0144008
898.910	0.0145530
898.988	0.0144817
899.066	0.0144318
899.144	0.0143036
899.222	0.0142905
899.300	0.0144283
899.378	0.0142777
899.456	0.0144588
899.535	0.0143934
899.613	0.0144842
899.691	0.0142426
899.769	0.0143045
899.847	0.0143061
899.925	0.0143372
900.003	0.0144267
900.081	0.0142900
900.160	0.0142759
900.238	0.0142796
900.316	0.0143362
900.394	0.0142094
900.472	0.0143787
900.550	0.0143723
900.628	0.0143806
900.706	0.0142789
900.785	0.0143033
900.863	0.0144830
900.941	0.0143915
901.019	0.0144402
901.097	0.0143944
901.175	0.0144181
901.253	0.0142868
901.331	0.0143730
901.410	0.0143905
901.488	0.0142898
901.566	0.0145024
901.644	0.0144111
901.722	0.0143649
901.800	0.0144009
901.878	0.0145083
901.956	0.0144563
902.035	0.0144085
902.113	0.0143336
902.191	0.0142912
902.269	0.0144170
902.347	0.0144840
902.425	0.0143987
902.503	0.0144702
902.581	0.0143432
902.660	0.0144170
902.738	0.0144843
902.816	0.0144786
902.894	0.0143837
902.972	0.0146706
903.050	0.0144439
903.128	0.0143791
903.206	0.0143217
903.285	0.0143791
903.363	0.0147247
903.441	0.0145368
903.519	0.0145054
903.597	0.0145242
903.675	0.0144313
903.753	0.0145605
903.831	0.0145866
903.910	0.0146516
903.988	0.0146407
904.066	0.0145569
904.144	0.0145652
904.222	0.0145808
904.300	0.0146732
904.378	0.0146022
904.456	0.0146194
904.535	0.0146235
904.613	0.0147041
904.691	0.0146695
904.769	0.0145778
904.847	0.0145714
904.925	0.0145201
905.003	0.0145953
905.081	0.0145682
905.160	0.0145859
905.238	0.0147132
905.316	0.0145959
905.394	0.0145796
905.472	0.0145300
905.550	0.0145724
905.628	0.0144660
905.706	0.0145203
905.785	0.0144327
905.863	0.0144865
905.941	0.0142738
906.019	0.0143959
906.097	0.0144501
906.175	0.0144302
906.253	0.0145786
906.331	0.0145422
906.410	0.0145348
906.488	0.0143596
906.566	0.0144624
906.644	0.0145994
906.722	0.0145180
906.800	0.0143522
906.878	0.0144335
906.956	0.0144154
907.035	0.0143878
907.113	0.0143806
907.191	0.0143634
907.269	0.0142986
907.347	0.0143709
907.425	0.0144881
907.503	0.0143676
907.581	0.0145409
907.660	0.0142973
907.738	0.0144222
907.816	0.0143873
907.894	0.0143748
907.972	0.0143430
908.050	0.0145409
908.128	0.0146136
908.206	0.0144813
908.285	0.0145092
908.363	0.0144966
908.441	0.0143919
908.519	0.0145903
908.597	0.0145796
908.675	0.0145129
908.753	0.0145161
908.831	0.0144125
908.910	0.0145700
908.988	0.0146727
909.066	0.0144666
909.144	0.0146159
909.222	0.0146227
909.300	0.0146363
909.378	0.0145128
909.456	0.0145958
909.535	0.0146219
909.613	0.0145234
909.691	0.0144653
909.769	0.0146481
909.847	0.0145506
909.925	0.0145228
910.003	0.0144389
910.081	0.0145480
910.160	0.0145473
910.238	0.0144884
910.316	0.0146615
910.394	0.0146645
910.472	0.0146246
910.550	0.0145075
910.628	0.0144874
910.706	0.0144978
910.785	0.0144592
910.863	0.0145585
910.941	0.0145184
911.019	0.0145509
911.097	0.0146162
911.175	0.0145158
911.253	0.0145448
911.331	0.0143788
911.410	0.0146172
911.488	0.0145861
911.566	0.0144358
911.644	0.0145829
911.722	0.0146983
911.800	0.0146808
911.878	0.0146114
911.956	0.0145510
912.035	0.0146409
912.113	0.0146529
912.191	0.0146481
912.269	0.0144717
912.347	0.0145424
912.425	0.0146228
912.503	0.0144791
912.581	0.0145155
912.660	0.0145249
912.738	0.0144765
912.816	0.0145396
912.894	0.0145483
912.972	0.0144954
913.050	0.0145800
913.128	0.0145531
913.206	0.0144221
913.285	0.0145271
913.363	0.0143845
913.441	0.0144552
913.519	0.0144577
913.597	0.0145252
913.675	0.0145573
913.753	0.0144232
913.831	0.0145441
913.910	0.0145242
913.988	0.0146267
914.066	0.0146355
914.144	0.0145618
914.222	0.0145559
914.300	0.0144617
914.378	0.0145607
914.456	0.0146500
914.535	0.0145237
914.613	0.0143922
914.691	0.0144023
914.769	0.0145381
914.847	0.0144092
914.925	0.0144463
915.003	0.0143102
915.081	0.0144732
915.160	0.0144430
915.238	0.0145814
915.316	0.0146063
915.394	0.0144757
915.472	0.0144365
915.550	0.0144393
915.628	0.0145493
915.706	0.0145661
915.785	0.0144728
915.863	0.0146835
915.941	0.0145570
916.019	0.0146581
916.097	0.0146050
916.175	0.0145452
916.253	0.0145891
916.331	0.0148115
916.410	0.0147350
916.488	0.0144353
916.566	0.0145979
916.644	0.0147320
916.722	0.0147066
916.800	0.0146453
916.878	0.0146162
916.956	0.0146588
917.035	0.0146761
917.113	0.0145647
917.191	0.0145522
917.269	0.0145885
917.347	0.0145463
917.425	0.0145415
917.503	0.0144846
917.581	0.0145870
917.660	0.0145493
917.738	0.0146505
917.816	0.0145240
917.894	0.0145061
917.972	0.0145296
918.050	0.0146687
918.128	0.0146011
918.206	0.0146467
918.285	0.0146427
918.363	0.0144748
918.441	0.0145033
918.519	0.0146863
918.597	0.0147909
918.675	0.0147621
918.753	0.0146380
918.831	0.0147929
918.910	0.0147058
918.988	0.0147375
919.066	0.0146796
919.144	0.0145641
919.222	0.0146497
919.300	0.0148666
919.378	0.0146822
919.456	0.0146211
919.535	0.0145885
919.613	0.0147014
919.691	0.0146668
919.769	0.0145451
919.847	0.0144044
919.925	0.0145023
920.003	0.0146356
920.081	0.0145853
920.160	0.0144540
920.238	0.0146701
920.316	0.0145501
920.394	0.0145036
920.472	0.0145259
920.550	0.0144196
920.628	0.0145145
920.706	0.0146237
920.785	0.0145350
920.863	0.0145242
920.941	0.0145258
921.019	0.0143910
921.097	0.0145457
921.175	0.0144839
921.253	0.0144772
921.331	0.0144613
921.410	0.0143972
921.488	0.0144751
921.566	0.0145627
921.644	0.0144788
921.722	0.0143671
921.800	0.0144817
921.878	0.0144902
921.956	0.0144924
922.035	0.0144457
922.113	0.0142006
922.191	0.0143978
922.269	0.0144327
922.347	0.0145033
922.425	0.0144494
922.503	0.0143930
922.581	0.0143407
922.660	0.0142948
922.738	0.0143980
922.816	0.0145230
922.894	0.0144298
922.972	0.0144334
923.050	0.0144832
923.128	0.0144351
923.206	0.0143568
923.285	0.0145047
923.363	0.0143928
923.441	0.0143306
923.519	0.0142799
923.597	0.0143763
923.675	0.0145168
923.753	0.0143737
923.831	0.0144831
923.910	0.0145225
923.988	0.0144653
924.066	0.0143884
924.144	0.0144380
924.222	0.0143718
924.300	0.0145278
924.378	0.0143105
924.456	0.0144754
924.535	0.0145624
924.613	0.0144528
924.691	0.0143877
924.769	0.0145193
924.847	0.0145647
924.925	0.0144344
925.003	0.0144261
925.081	0.0145770
925.160	0.0145982
925.238	0.0144505
925.316	0.0144828
925.394	0.0145319
925.472	0.0145607
925.550	0.0145045
925.628	0.0144595
925.706	0.0143936
925.785	0.0145524
925.863	0.0148056
925.941	0.0145596
926.019	0.0145633
926.097	0.0145036
926.175	0.0145061
926.253	0.0145055
926.331	0.0144711
926.410	0.0144869
926.488	0.0146033
926.566	0.0145524
926.644	0.0145222
926.722	0.0145530
926.800	0.0145629
926.878	0.0145741
926.956	0.0145693
927.035	0.0146906
927.113	0.0145370
927.191	0.0145240
927.269	0.0145388
927.347	0.0146162
927.425	0.0145441
927.503	0.0145592
927.581	0.0145207
927.660	0.0145429
927.738	0.0144684
927.816	0.0144640
927.894	0.0145122
927.972	0.0145489
928.050	0.0147175
928.128	0.0145432
928.206	0.0144523
928.285	0.0145128
928.363	0.0145033
928.441	0.0144180
928.519	0.0144621
928.597	0.0146482
928.675	0.0146732
928.753	0.0145988
928.831	0.0145476
928.910	0.0144823
928.988	0.0145800
929.066	0.0146819
929.144	0.0145737
929.222	0.0144566
929.300	0.0145246
929.378	0.0146240
929.456	0.0144597
929.535	0.0143673
929.613	0.0143855
929.691	0.0144128
929.769	0.0143805
929.847	0.0145624
929.925	0.0145996
930.003	0.0145235
930.081	0.0145821
930.160	0.0144830
930.238	0.0144529
930.316	0.0144698
930.394	0.0143499
930.472	0.0144907
930.550	0.0145947
930.628	0.0147023
930.706	0.0145463
930.785	0.0145060
930.863	0.0145098
930.941	0.0142866
931.019	0.0144877
931.097	0.0145968
931.175	0.0144212
931.253	0.0145283
931.331	0.0145673
931.410	0.0145076
931.488	0.0144640
931.566	0.0145924
931.644	0.0144720
931.722	0.0144114
931.800	0.0145031
931.878	0.0145400
931.956	0.0144247
932.035	0.0144854
932.113	0.0143961
932.191	0.0142462
932.269	0.0143556
932.347	0.0144601
932.425	0.0145108
932.503	0.0143886
932.581	0.0143873
932.660	0.0143855
932.738	0.0145715
932.816	0.0145049
932.894	0.0144285
932.972	0.0143830
933.050	0.0145728
933.128	0.0145538
933.206	0.0144796
933.285	0.0146403
933.363	0.0146316
933.441	0.0145721
933.519	0.0146030
933.597	0.0146540
933.675	0.0146471
933.753	0.0146387
933.831	0.0147234
933.910	0.0147057
933.988	0.0146098
934.066	0.0145914
934.144	0.0146004
934.222	0.0146194
934.300	0.0145852
934.378	0.0145124
934.456	0.0145832
934.535	0.0145963
934.613	0.0145086
934.691	0.0144742
934.769	0.0144367
934.847	0.0145773
934.925	0.0145323
935.003	0.0145173
935.081	0.0144761
935.160	0.0145447
935.238	0.0145770
935.316	0.0143880
935.394	0.0144043
935.472	0.0146889
935.550	0.0146312
935.628	0.0145031
935.706	0.0144827
935.785	0.0144697
935.863	0.0146042
935.941	0.0145502
936.019	0.0146275
936.097	0.0144891
936.175	0.0144511
936.253	0.0144807
936.331	0.0145389
936.410	0.0145272
936.488	0.0146185
936.566	0.0145208
936.644	0.0145059
936.722	0.0143835
936.800	0.0143368
936.878	0.0145679
936.956	0.0145123
937.035	0.0144643
937.113	0.0144142
937.191	0.0144760
937.269	0.0145143
937.347	0.0144645
937.425	0.0144724
937.503	0.0144587
937.581	0.0144073
937.660	0.0144786
937.738	0.0144055
937.816	0.0145064
937.894	0.0142550
937.972	0.0143445
938.050	0.0143829
938.128	0.0143606
938.206	0.0144001
938.285	0.0144120
938.363	0.0144710
938.441	0.0143790
938.519	0.0144208
938.597	0.0145338
938.675	0.0143997
938.753	0.0144255
938.831	0.0143804
938.910	0.0143803
938.988	0.0143705
939.066	0.0146172
939.144	0.0143882
939.222	0.0143574
939.300	0.0144402
939.378	0.0144048
939.456	0.0144094
939.535	0.0143314
939.613	0.0144044
939.691	0.0144822
939.769	0.0142837
939.847	0.0143852
939.925	0.0143680
940.003	0.0144593
940.081	0.0144876
940.160	0.0145474
940.238	0.0144634
940.316	0.0144667
940.394	0.0145405
940.472	0.0146104
940.550	0.0145251
940.628	0.0145440
940.706	0.0146376
940.785	0.0145535
940.863	0.0145924
940.941	0.0145966
941.019	0.0146262
941.097	0.0145160
941.175	0.0144467
941.253	0.0146538
941.331	0.0145007
941.410	0.0145659
941.488	0.0145470
941.566	0.0147729
941.644	0.0146671
941.722	0.0144964
941.800	0.0145777
941.878	0.0144016
941.956	0.0145689
942.035	0.0144958
942.113	0.0144743
942.191	0.0144257
942.269	0.0145284
942.347	0.0144860
942.425	0.0143008
942.503	0.0144907
942.581	0.0144141
942.660	0.0144513
942.738	0.0144749
942.816	0.0144414
942.894	0.0143862
942.972	0.0143642
943.050	0.0145673
943.128	0.0144454
943.206	0.0145031
943.285	0.0143979
943.363	0.0142690
943.441	0.0143214
943.519	0.0144218
943.597	0.0142755
943.675	0.0144448
943.753	0.0143709
943.831	0.0141708
943.910	0.0143237
943.988	0.0144022
944.066	0.0143931
944.144	0.0143861
944.222	0.0143487
944.300	0.0143407
944.378	0.0145150
944.456	0.0145553
944.535	0.0143687
944.613	0.0143425
944.691	0.0143818
944.769	0.0145086
944.847	0.0144964
944.925	0.0144339
945.003	0.0145558
945.081	0.0144824
945.160	0.0144718
945.238	0.0143790
945.316	0.0145189
945.394	0.0145204
945.472	0.0144180
945.550	0.0144518
945.628	0.0143000
945.706	0.0144360
945.785	0.0145738
945.863	0.0145474
945.941	0.0144411
946.019	0.0144679
946.097	0.0144541
946.175	0.0144127
946.253	0.0145267
946.331	0.0144891
946.410	0.0144980
946.488	0.0145799
946.566	0.0145351
946.644	0.0143813
946.722	0.0144775
946.800	0.0144014
946.878	0.0144154
946.956	0.0144756
947.035	0.0144758
947.113	0.0145091
947.191	0.0144666
947.269	0.0145892
947.347	0.0145036
947.425	0.0145702
947.503	0.0146147
947.581	0.0145784
947.660	0.0145074
947.738	0.0145720
947.816	0.0146332
947.894	0.0146420
947.972	0.0146307
948.050	0.0146587
948.128	0.0146331
948.206	0.0145414
948.285	0.0146030
948.363	0.0147067
948.441	0.0146160
948.519	0.0147233
948.597	0.0146561
948.675	0.0147385
948.753	0.0146878
948.831	0.0146971
948.910	0.0147630
948.988	0.0147092
949.066	0.0146827
949.144	0.0146963
949.222	0.0146136
949.300	0.0146348
949.378	0.0147091
949.456	0.0145474
949.535	0.0145915
949.613	0.0144657
949.691	0.0146134
949.769	0.0146926
949.847	0.0146129
949.925	0.0144849
950.003	0.0145285
950.081	0.0144881
950.160	0.0147627
950.238	0.0146528
950.316	0.0145045
950.394	0.0146544
950.472	0.0146564
950.550	0.0146738
950.628	0.0145934
950.706	0.0145630
950.785	0.0146613
950.863	0.0146588
950.941	0.0145681
951.019	0.0146727
951.097	0.0145084
951.175	0.0145509
951.253	0.0146375
951.331	0.0145493
951.410	0.0146304
951.488	0.0146368
951.566	0.0145680
951.644	0.0146896
951.722	0.0146175
951.800	0.0146038
951.878	0.0144968
951.956	0.0145985
952.035	0.0146350
952.113	0.0146894
952.191	0.0145760
952.269	0.0145705
952.347	0.0148032
952.425	0.0144572
952.503	0.0146747
952.581	0.0146931
952.660	0.0145091
952.738	0.0146587
952.816	0.0147292
952.894	0.0146291
952.972	0.0146488
953.050	0.0145158
953.128	0.0146243
953.206	0.0146650
953.285	0.0145114
953.363	0.0144860
953.441	0.0144428
953.519	0.0144535
953.597	0.0144548
953.675	0.0144424
953.753	0.0143881
953.831	0.0144830
953.910	0.0145670
953.988	0.0144280
954.066	0.0143660
954.144	0.0144606
954.222	0.0144274
954.300	0.0145227
954.378	0.0144232
954.456	0.0144039
954.535	0.0144492
954.613	0.0144353
954.691	0.0143578
954.769	0.0143574
954.847	0.0144137
954.925	0.0145455
955.003	0.0145128
955.081	0.0143880
955.160	0.0143487
955.238	0.0144987
955.316	0.0144583
955.394	0.0144205
955.472	0.0145625
955.550	0.0144888
955.628	0.0144811
955.706	0.0145298
955.785	0.0145466
955.863	0.0145350
955.941	0.0144234
956.019	0.0145254
956.097	0.0143446
956.175	0.0144118
956.253	0.0145757
956.331	0.0144618
956.410	0.0145853
956.488	0.0146428
956.566	0.0145234
956.644	0.0143968
956.722	0.0144070
956.800	0.0144249
956.878	0.0145339
956.956	0.0145277
957.035	0.0144339
957.113	0.0144073
957.191	0.0145271
957.269	0.0144263
957.347	0.0144677
957.425	0.0144318
957.503	0.0143543
957.581	0.0144715
957.660	0.0145833
957.738	0.0144490
957.816	0.0144775
957.894	0.0144782
957.972	0.0146136
958.050	0.0144547
958.128	0.0144711
958.206	0.0144405
958.285	0.0143892
958.363	0.0144737
958.441	0.0144782
958.519	0.0143282
958.597	0.0143606
958.675	0.0144863
958.753	0.0144450
958.831	0.0144163
958.910	0.0145542
958.988	0.0144563
959.066	0.0144997
959.144	0.0144265
959.222	0.0143871
959.300	0.0144055
959.378	0.0145242
959.456	0.0143034
959.535	0.0144327
959.613	0.0141856
959.691	0.0143826
959.769	0.0144884
959.847	0.0145599
959.925	0.0144977
960.003	0.0144054
960.081	0.0144339
960.160	0.0144667
960.238	0.0143440
960.316	0.0144199
960.394	0.0144810
960.472	0.0144678
960.550	0.0144769
960.628	0.0142683
960.706	0.0143232
960.785	0.0145455
960.863	0.0145133
960.941	0.0144637
961.019	0.0145704
961.097	0.0145985
961.175	0.0145049
961.253	0.0143867
961.331	0.0143654
961.410	0.0146323
961.488	0.0144811
961.566	0.0145893
961.644	0.0146203
961.722	0.0145173
961.800	0.0145098
961.878	0.0144765
961.956	0.0146496
962.035	0.0146537
962.113	0.0145577
962.191	0.0146480
962.269	0.0145758
962.347	0.0146529
962.425	0.0145534
962.503	0.0146018
962.581	0.0146339
962.660	0.0146233
962.738	0.0147497
962.816	0.0146516
962.894	0.0145866
962.972	0.0147617
963.050	0.0148047
963.128	0.0147513
963.206	0.0146438
963.285	0.0146411
963.363	0.0146625
963.441	0.0146195
963.519	0.0147321
963.597	0.0146729
963.675	0.0145978
963.753	0.0145723
963.831	0.0145975
963.910	0.0144880
963.988	0.0145755
964.066	0.0146616
964.144	0.0146407
964.222	0.0145326
964.300	0.0144717
964.378	0.0147400
964.456	0.0145978
964.535	0.0144504
964.613	0.0144694
964.691	0.0145112
964.769	0.0143781
964.847	0.0144877
964.925	0.0143373
965.003	0.0143607
965.081	0.0143929
965.160	0.0144854
965.238	0.0144040
965.316	0.0143688
965.394	0.0144148
965.472	0.0145485
965.550	0.0144254
965.628	0.0142889
965.706	0.0143571
965.785	0.0144529
965.863	0.0143906
965.941	0.0143227
966.019	0.0144291
966.097	0.0144427
966.175	0.0143240
966.253	0.0142334
966.331	0.0142895
966.410	0.0143704
966.488	0.0144370
966.566	0.0142543
966.644	0.0144173
966.722	0.0143533
966.800	0.0142867
966.878	0.0144032
966.956	0.0144055
967.035	0.0144650
967.113	0.0143435
967.191	0.0143895
967.269	0.0145005
967.347	0.0144225
967.425	0.0143684
967.503	0.0144038
967.581	0.0145293
967.660	0.0144744
967.738	0.0144384
967.816	0.0143173
967.894	0.0142352
967.972	0.0143990
968.050	0.0145274
968.128	0.0143658
968.206	0.0144361
968.285	0.0143856
968.363	0.0144830
968.441	0.0145030
968.519	0.0144897
968.597	0.0144964
968.675	0.0144295
968.753	0.0145073
968.831	0.0143945
968.910	0.0143898
968.988	0.0144263
969.066	0.0143751
969.144	0.0145224
969.222	0.0145399
969.300	0.0145631
969.378	0.0143663
969.456	0.0143163
969.535	0.0145619
969.613	0.0146542
969.691	0.0145710
969.769	0.0145069
969.847	0.0145720
969.925	0.0144601
970.003	0.0146637
970.081	0.0146712
970.160	0.0145725
970.238	0.0147517
970.316	0.0147594
970.394	0.0146985
970.472	0.0146102
970.550	0.0147476
970.628	0.0147098
970.706	0.0147265
970.785	0.0147318
970.863	0.0147142
970.941	0.0146825
971.019	0.0147480
971.097	0.0146769
971.175	0.0148090
971.253	0.0146087
971.331	0.0147137
971.410	0.0146555
971.488	0.0147003
971.566	0.0146745
971.644	0.0145666
971.722	0.0147713
971.800	0.0145509
971.878	0.0145055
971.956	0.0145799
972.035	0.0145074
972.113	0.0145798
972.191	0.0144912
972.269	0.0144861
972.347	0.0143331
972.425	0.0144689
972.503	0.0146290
972.581	0.0145055
972.660	0.0145221
972.738	0.0146571
972.816	0.0146301
972.894	0.0144605
972.972	0.0145848
973.050	0.0144897
973.128	0.0145032
973.206	0.0145930
973.285	0.0144598
973.363	0.0145866
973.441	0.0145148
973.519	0.0144106
973.597	0.0144273
973.675	0.0143790
973.753	0.0146371
973.831	0.0145302
973.910	0.0144569
973.988	0.0145278
974.066	0.0146613
974.144	0.0146619
974.222	0.0146007
974.300	0.0146994
974.378	0.0145830
974.456	0.0145908
974.535	0.0146098
974.613	0.0145583
974.691	0.0145686
974.769	0.0146433
974.847	0.0145183
974.925	0.0145124
975.003	0.0145987
975.081	0.0146532
975.160	0.0145720
975.238	0.0146629
975.316	0.0146793
975.394	0.0145956
975.472	0.0144316
975.550	0.0145408
975.628	0.0145137
975.706	0.0144469
975.785	0.0144300
975.863	0.0145481
975.941	0.0145966
976.019	0.0146294
976.097	0.0143882
976.175	0.0146165
976.253	0.0144965
976.331	0.0144443
976.410	0.0145278
976.488	0.0146423
976.566	0.0145132
976.644	0.0144398
976.722	0.0144557
976.800	0.0144620
976.878	0.0146922
976.956	0.0145883
977.035	0.0146585
977.113	0.0145315
977.191	0.0144867
977.269	0.0143610
977.347	0.0145808
977.425	0.0146682
977.503	0.0145065
977.581	0.0145688
977.660	0.0145458
977.738	0.0145306
977.816	0.0145630
977.894	0.0146545
977.972	0.0145653
978.050	0.0145512
978.128	0.0146387
978.206	0.0146004
978.285	0.0146837
978.363	0.0147195
978.441	0.0145349
978.519	0.0146399
978.597	0.0145403
978.675	0.0144536
978.753	0.0144686
978.831	0.0145749
978.910	0.0145591
978.988	0.0145527
979.066	0.0146130
979.144	0.0144929
979.222	0.0145034
979.300	0.0146303
979.378	0.0146243
979.456	0.0145202
979.535	0.0145086
979.613	0.0144476
979.691	0.0146262
979.769	0.0145179
979.847	0.0144379
979.925	0.0145300
