05/03/2022	20:48:03	Ver.	4.1	UNKNOWN
Optical Delay	660.003261	Delta X		0.078125	Sweeps	1	Scan Rate	0/0
Coordinates	Axis 1	NaN	Axis 2	NaN	Axis 3	NaN	Axis 4	NaN	Axis 5	NaN	Axis 6	0.000000
TX Power	0.000000	RX Power	0.000000

660.003	0.0148934
660.081	0.0147984
660.160	0.0148326
660.238	0.0149744
660.316	0.0148421
660.394	0.0148396
660.472	0.0148340
660.550	0.0149414
660.628	0.0147900
660.706	0.0148685
660.785	0.0148003
660.863	0.0149204
660.941	0.0148549
661.019	0.0147973
661.097	0.0148590
661.175	0.0147806
661.253	0.0149018
661.331	0.0147689
661.410	0.0148261
661.488	0.0147900
661.566	0.0146442
661.644	0.0147726
661.722	0.0149143
661.800	0.0147541
661.878	0.0148717
661.956	0.0147697
662.035	0.0147988
662.113	0.0149040
662.191	0.0147747
662.269	0.0147076
662.347	0.0147977
662.425	0.0148408
662.503	0.0147620
662.581	0.0147808
662.660	0.0149332
662.738	0.0147422
662.816	0.0148901
662.894	0.0149064
662.972	0.0148336
663.050	0.0148363
663.128	0.0147502
663.206	0.0148306
663.285	0.0149267
663.363	0.0148343
663.441	0.0147691
663.519	0.0149118
663.597	0.0147355
663.675	0.0148349
663.753	0.0148242
663.831	0.0147923
663.910	0.0148946
663.988	0.0149493
664.066	0.0147810
664.144	0.0148311
664.222	0.0148747
664.300	0.0148618
664.378	0.0147569
664.456	0.0148453
664.535	0.0148660
664.613	0.0148936
664.691	0.0148371
664.769	0.0148264
664.847	0.0148206
664.925	0.0148927
665.003	0.0149234
665.081	0.0148637
665.160	0.0147388
665.238	0.0147655
665.316	0.0149211
665.394	0.0148595
665.472	0.0147042
665.550	0.0147590
665.628	0.0148583
665.706	0.0149388
665.785	0.0148959
665.863	0.0149525
665.941	0.0148325
666.019	0.0147144
666.097	0.0149437
666.175	0.0150089
666.253	0.0149441
666.331	0.0150018
666.410	0.0148091
666.488	0.0149592
666.566	0.0149061
666.644	0.0147977
666.722	0.0148363
666.800	0.0148975
666.878	0.0149097
666.956	0.0148770
667.035	0.0147250
667.113	0.0147535
667.191	0.0150040
667.269	0.0148164
667.347	0.0147758
667.425	0.0147755
667.503	0.0148524
667.581	0.0149014
667.660	0.0147886
667.738	0.0147433
667.816	0.0148808
667.894	0.0148706
667.972	0.0148322
668.050	0.0148100
668.128	0.0149397
668.206	0.0148975
668.285	0.0147732
668.363	0.0147637
668.441	0.0148077
668.519	0.0148638
668.597	0.0148073
668.675	0.0148018
668.753	0.0148046
668.831	0.0148014
668.910	0.0147915
668.988	0.0147310
669.066	0.0148992
669.144	0.0148794
669.222	0.0148482
669.300	0.0148009
669.378	0.0149221
669.456	0.0148437
669.535	0.0148052
669.613	0.0148138
669.691	0.0148488
669.769	0.0147867
669.847	0.0148668
669.925	0.0148963
670.003	0.0147887
670.081	0.0148639
670.160	0.0148074
670.238	0.0148867
670.316	0.0148463
670.394	0.0147283
670.472	0.0147803
670.550	0.0147710
670.628	0.0147443
670.706	0.0147649
670.785	0.0148095
670.863	0.0148314
670.941	0.0148297
671.019	0.0149599
671.097	0.0146033
671.175	0.0146632
671.253	0.0147335
671.331	0.0147988
671.410	0.0148781
671.488	0.0148688
671.566	0.0147341
671.644	0.0147888
671.722	0.0147993
671.800	0.0149239
671.878	0.0149197
671.956	0.0148746
672.035	0.0147755
672.113	0.0148866
672.191	0.0147957
672.269	0.0148833
672.347	0.0149528
672.425	0.0147977
672.503	0.0147808
672.581	0.0149848
672.660	0.0148525
672.738	0.0149286
672.816	0.0149375
672.894	0.0148459
672.972	0.0147541
673.050	0.0147681
673.128	0.0148956
673.206	0.0149839
673.285	0.0147710
673.363	0.0149519
673.441	0.0149055
673.519	0.0148934
673.597	0.0147750
673.675	0.0148431
673.753	0.0148631
673.831	0.0147227
673.910	0.0146620
673.988	0.0146900
674.066	0.0147042
674.144	0.0146767
674.222	0.0148000
674.300	0.0147531
674.378	0.0148306
674.456	0.0147062
674.535	0.0147862
674.613	0.0148698
674.691	0.0147926
674.769	0.0146545
674.847	0.0147571
674.925	0.0147004
675.003	0.0148231
675.081	0.0148228
675.160	0.0148605
675.238	0.0146742
675.316	0.0146706
675.394	0.0147617
675.472	0.0147214
675.550	0.0147453
675.628	0.0147285
675.706	0.0147392
675.785	0.0147953
675.863	0.0148962
675.941	0.0147222
676.019	0.0147544
676.097	0.0149350
676.175	0.0150320
676.253	0.0147826
676.331	0.0147403
676.410	0.0148312
676.488	0.0149187
676.566	0.0148833
676.644	0.0148598
676.722	0.0148840
676.800	0.0148854
676.878	0.0148737
676.956	0.0149341
677.035	0.0149814
677.113	0.0149026
677.191	0.0151154
677.269	0.0149644
677.347	0.0149133
677.425	0.0149628
677.503	0.0150959
677.581	0.0150122
677.660	0.0150341
677.738	0.0149846
677.816	0.0150014
677.894	0.0151357
677.972	0.0150167
678.050	0.0149062
678.128	0.0149875
678.206	0.0148550
678.285	0.0150301
678.363	0.0150246
678.441	0.0150084
678.519	0.0149541
678.597	0.0148840
678.675	0.0149247
678.753	0.0149960
678.831	0.0149210
678.910	0.0148551
678.988	0.0148658
679.066	0.0149806
679.144	0.0148335
679.222	0.0148218
679.300	0.0149048
679.378	0.0149761
679.456	0.0148642
679.535	0.0149636
679.613	0.0147400
679.691	0.0148134
679.769	0.0148468
679.847	0.0148630
679.925	0.0148052
680.003	0.0148373
680.081	0.0148768
680.160	0.0148170
680.238	0.0147572
680.316	0.0147749
680.394	0.0148579
680.472	0.0147250
680.550	0.0147416
680.628	0.0148323
680.706	0.0147070
680.785	0.0148251
680.863	0.0149429
680.941	0.0148851
681.019	0.0147900
681.097	0.0148769
681.175	0.0149422
681.253	0.0149755
681.331	0.0148193
681.410	0.0149308
681.488	0.0148844
681.566	0.0149081
681.644	0.0149046
681.722	0.0148933
681.800	0.0148858
681.878	0.0148614
681.956	0.0148396
682.035	0.0149505
682.113	0.0148103
682.191	0.0147794
682.269	0.0148072
682.347	0.0148457
682.425	0.0149244
682.503	0.0147172
682.581	0.0147610
682.660	0.0149123
682.738	0.0148354
682.816	0.0148036
682.894	0.0149674
682.972	0.0148622
683.050	0.0149030
683.128	0.0147809
683.206	0.0147942
683.285	0.0149069
683.363	0.0148042
683.441	0.0147586
683.519	0.0147393
683.597	0.0148875
683.675	0.0148957
683.753	0.0148891
683.831	0.0148582
683.910	0.0148178
683.988	0.0149759
684.066	0.0148521
684.144	0.0147405
684.222	0.0148215
684.300	0.0147975
684.378	0.0149084
684.456	0.0147623
684.535	0.0148598
684.613	0.0148022
684.691	0.0148496
684.769	0.0147733
684.847	0.0147060
684.925	0.0147208
685.003	0.0148246
685.081	0.0147400
685.160	0.0147788
685.238	0.0147996
685.316	0.0146435
685.394	0.0147899
685.472	0.0148118
685.550	0.0146422
685.628	0.0147654
685.706	0.0147461
685.785	0.0146774
685.863	0.0147984
685.941	0.0146659
686.019	0.0149111
686.097	0.0148975
686.175	0.0148160
686.253	0.0149249
686.331	0.0148590
686.410	0.0147687
686.488	0.0146749
686.566	0.0148080
686.644	0.0148316
686.722	0.0148614
686.800	0.0148868
686.878	0.0148798
686.956	0.0149656
687.035	0.0148724
687.113	0.0148223
687.191	0.0148209
687.269	0.0148283
687.347	0.0148078
687.425	0.0147036
687.503	0.0147612
687.581	0.0148294
687.660	0.0147033
687.738	0.0147504
687.816	0.0147900
687.894	0.0147911
687.972	0.0146923
688.050	0.0149960
688.128	0.0149227
688.206	0.0148429
688.285	0.0147202
688.363	0.0148190
688.441	0.0148493
688.519	0.0148013
688.597	0.0148792
688.675	0.0147449
688.753	0.0148032
688.831	0.0147356
688.910	0.0146845
688.988	0.0149323
689.066	0.0148302
689.144	0.0148959
689.222	0.0147839
689.300	0.0149249
689.378	0.0149383
689.456	0.0148885
689.535	0.0148569
689.613	0.0147966
689.691	0.0147182
689.769	0.0147863
689.847	0.0148930
689.925	0.0148187
690.003	0.0147735
690.081	0.0148112
690.160	0.0147546
690.238	0.0147184
690.316	0.0147611
690.394	0.0147945
690.472	0.0146408
690.550	0.0147855
690.628	0.0147785
690.706	0.0148624
690.785	0.0147778
690.863	0.0146890
690.941	0.0147532
691.019	0.0145787
691.097	0.0147767
691.175	0.0147304
691.253	0.0146571
691.331	0.0145967
691.410	0.0147389
691.488	0.0147257
691.566	0.0146503
691.644	0.0147157
691.722	0.0147485
691.800	0.0147289
691.878	0.0148030
691.956	0.0147301
692.035	0.0146407
692.113	0.0145977
692.191	0.0146636
692.269	0.0147176
692.347	0.0146359
692.425	0.0147570
692.503	0.0146880
692.581	0.0146707
692.660	0.0146268
692.738	0.0146607
692.816	0.0148032
692.894	0.0148432
692.972	0.0147248
693.050	0.0148141
693.128	0.0147830
693.206	0.0146830
693.285	0.0148131
693.363	0.0148165
693.441	0.0147060
693.519	0.0147173
693.597	0.0148064
693.675	0.0145896
693.753	0.0146034
693.831	0.0148480
693.910	0.0148039
693.988	0.0147340
694.066	0.0147878
694.144	0.0147601
694.222	0.0147737
694.300	0.0147277
694.378	0.0146589
694.456	0.0148344
694.535	0.0147018
694.613	0.0148949
694.691	0.0147472
694.769	0.0148180
694.847	0.0148351
694.925	0.0148109
695.003	0.0148499
695.081	0.0148745
695.160	0.0149706
695.238	0.0149184
695.316	0.0150037
695.394	0.0149499
695.472	0.0149144
695.550	0.0149327
695.628	0.0149685
695.706	0.0148316
695.785	0.0149629
695.863	0.0148949
695.941	0.0148637
696.019	0.0146626
696.097	0.0148422
696.175	0.0147619
696.253	0.0148229
696.331	0.0146719
696.410	0.0148357
696.488	0.0148814
696.566	0.0149405
696.644	0.0149165
696.722	0.0149061
696.800	0.0148377
696.878	0.0149174
696.956	0.0148831
697.035	0.0148519
697.113	0.0148483
697.191	0.0148297
697.269	0.0147726
697.347	0.0147558
697.425	0.0147797
697.503	0.0148895
697.581	0.0147986
697.660	0.0148502
697.738	0.0148536
697.816	0.0148066
697.894	0.0148282
697.972	0.0148668
698.050	0.0147937
698.128	0.0147665
698.206	0.0147939
698.285	0.0147135
698.363	0.0148555
698.441	0.0147170
698.519	0.0146747
698.597	0.0148381
698.675	0.0147707
698.753	0.0148411
698.831	0.0147235
698.910	0.0148110
698.988	0.0148960
699.066	0.0147668
699.144	0.0148529
699.222	0.0148553
699.300	0.0150003
699.378	0.0148384
699.456	0.0149918
699.535	0.0149015
699.613	0.0149075
699.691	0.0149212
699.769	0.0150371
699.847	0.0148688
699.925	0.0148519
700.003	0.0148943
700.081	0.0149773
700.160	0.0148885
700.238	0.0149475
700.316	0.0149274
700.394	0.0150365
700.472	0.0149463
700.550	0.0150421
700.628	0.0149342
700.706	0.0149467
700.785	0.0150922
700.863	0.0150577
700.941	0.0149738
701.019	0.0150571
701.097	0.0149314
701.175	0.0149482
701.253	0.0149759
701.331	0.0150317
701.410	0.0149846
701.488	0.0150067
701.566	0.0151497
701.644	0.0149868
701.722	0.0150639
701.800	0.0149239
701.878	0.0149395
701.956	0.0150247
702.035	0.0150350
702.113	0.0149564
702.191	0.0149088
702.269	0.0147681
702.347	0.0149191
702.425	0.0149123
702.503	0.0148102
702.581	0.0149179
702.660	0.0148987
702.738	0.0149929
702.816	0.0148351
702.894	0.0148759
702.972	0.0150511
703.050	0.0147672
703.128	0.0148472
703.206	0.0149632
703.285	0.0150309
703.363	0.0149784
703.441	0.0148636
703.519	0.0151900
703.597	0.0149254
703.675	0.0148874
703.753	0.0148705
703.831	0.0147720
703.910	0.0148186
703.988	0.0148597
704.066	0.0148375
704.144	0.0149068
704.222	0.0147653
704.300	0.0149222
704.378	0.0148821
704.456	0.0149450
704.535	0.0149062
704.613	0.0147176
704.691	0.0149155
704.769	0.0147773
704.847	0.0147912
704.925	0.0149461
705.003	0.0149556
705.081	0.0149014
705.160	0.0148721
705.238	0.0148994
705.316	0.0149277
705.394	0.0148646
705.472	0.0149565
705.550	0.0147444
705.628	0.0149123
705.706	0.0150328
705.785	0.0148402
705.863	0.0148904
705.941	0.0149409
706.019	0.0148882
706.097	0.0149026
706.175	0.0149057
706.253	0.0149589
706.331	0.0148092
706.410	0.0147517
706.488	0.0148045
706.566	0.0148494
706.644	0.0149265
706.722	0.0148365
706.800	0.0148632
706.878	0.0148367
706.956	0.0149071
707.035	0.0149581
707.113	0.0149146
707.191	0.0149488
707.269	0.0148822
707.347	0.0148440
707.425	0.0148798
707.503	0.0150437
707.581	0.0150141
707.660	0.0147922
707.738	0.0147417
707.816	0.0148042
707.894	0.0149232
707.972	0.0147088
708.050	0.0148364
708.128	0.0148396
708.206	0.0148079
708.285	0.0148314
708.363	0.0149805
708.441	0.0149583
708.519	0.0148363
708.597	0.0149815
708.675	0.0148629
708.753	0.0149623
708.831	0.0149348
708.910	0.0149555
708.988	0.0148154
709.066	0.0148078
709.144	0.0148145
709.222	0.0148630
709.300	0.0148003
709.378	0.0149421
709.456	0.0148338
709.535	0.0147314
709.613	0.0147902
709.691	0.0146865
709.769	0.0148195
709.847	0.0148355
709.925	0.0147285
710.003	0.0147160
710.081	0.0148080
710.160	0.0149472
710.238	0.0147178
710.316	0.0146829
710.394	0.0147565
710.472	0.0148415
710.550	0.0149265
710.628	0.0147317
710.706	0.0148843
710.785	0.0148273
710.863	0.0146702
710.941	0.0147578
711.019	0.0147506
711.097	0.0147158
711.175	0.0147994
711.253	0.0148054
711.331	0.0147736
711.410	0.0147501
711.488	0.0146878
711.566	0.0147750
711.644	0.0148151
711.722	0.0148228
711.800	0.0146870
711.878	0.0148643
711.956	0.0147784
712.035	0.0146323
712.113	0.0145565
712.191	0.0147545
712.269	0.0147831
712.347	0.0146906
712.425	0.0147051
712.503	0.0147028
712.581	0.0147176
712.660	0.0146754
712.738	0.0147063
712.816	0.0147920
712.894	0.0147662
712.972	0.0147099
713.050	0.0147233
713.128	0.0146953
713.206	0.0147328
713.285	0.0147337
713.363	0.0147974
713.441	0.0148090
713.519	0.0147884
713.597	0.0147705
713.675	0.0149233
713.753	0.0148119
713.831	0.0148430
713.910	0.0149409
713.988	0.0148820
714.066	0.0150410
714.144	0.0148653
714.222	0.0148959
714.300	0.0147602
714.378	0.0147108
714.456	0.0149734
714.535	0.0149120
714.613	0.0149010
714.691	0.0147761
714.769	0.0148428
714.847	0.0149022
714.925	0.0149536
715.003	0.0149245
715.081	0.0149300
715.160	0.0148650
715.238	0.0148727
715.316	0.0149070
715.394	0.0148644
715.472	0.0148660
715.550	0.0149706
715.628	0.0149601
715.706	0.0148569
715.785	0.0148466
715.863	0.0148120
715.941	0.0149012
716.019	0.0149458
716.097	0.0148959
716.175	0.0149094
716.253	0.0148194
716.331	0.0148521
716.410	0.0148362
716.488	0.0147849
716.566	0.0146790
716.644	0.0148299
716.722	0.0149535
716.800	0.0148721
716.878	0.0149832
716.956	0.0148444
717.035	0.0147346
717.113	0.0148012
717.191	0.0148240
717.269	0.0149158
717.347	0.0147768
717.425	0.0147160
717.503	0.0146617
717.581	0.0147916
717.660	0.0147989
717.738	0.0147058
717.816	0.0146904
717.894	0.0146043
717.972	0.0146983
718.050	0.0146777
718.128	0.0146944
718.206	0.0148379
718.285	0.0146860
718.363	0.0146828
718.441	0.0146793
718.519	0.0147896
718.597	0.0147670
718.675	0.0147591
718.753	0.0147772
718.831	0.0147254
718.910	0.0148315
718.988	0.0148586
719.066	0.0148724
719.144	0.0148071
719.222	0.0147270
719.300	0.0148540
719.378	0.0146925
719.456	0.0146881
719.535	0.0147026
719.613	0.0148500
719.691	0.0147350
719.769	0.0146630
719.847	0.0147340
719.925	0.0149527
720.003	0.0148614
720.081	0.0146656
720.160	0.0147535
720.238	0.0148610
720.316	0.0149304
720.394	0.0149304
720.472	0.0149051
720.550	0.0148820
720.628	0.0149134
720.706	0.0149679
720.785	0.0148647
720.863	0.0148572
720.941	0.0149498
721.019	0.0149792
721.097	0.0148746
721.175	0.0149576
721.253	0.0149705
721.331	0.0148524
721.410	0.0149876
721.488	0.0149662
721.566	0.0150401
721.644	0.0149085
721.722	0.0149138
721.800	0.0148443
721.878	0.0149850
721.956	0.0148296
722.035	0.0148702
722.113	0.0149448
722.191	0.0149835
722.269	0.0149678
722.347	0.0149697
722.425	0.0149388
722.503	0.0149482
722.581	0.0148364
722.660	0.0148711
722.738	0.0149574
722.816	0.0149184
722.894	0.0148328
722.972	0.0149262
723.050	0.0148650
723.128	0.0149448
723.206	0.0148801
723.285	0.0148946
723.363	0.0149093
723.441	0.0148712
723.519	0.0149960
723.597	0.0149370
723.675	0.0148380
723.753	0.0149257
723.831	0.0148609
723.910	0.0150055
723.988	0.0148379
724.066	0.0148311
724.144	0.0148977
724.222	0.0148991
724.300	0.0149061
724.378	0.0149455
724.456	0.0149541
724.535	0.0148040
724.613	0.0146942
724.691	0.0147313
724.769	0.0149382
724.847	0.0149000
724.925	0.0147517
725.003	0.0148061
725.081	0.0148476
725.160	0.0148132
725.238	0.0149685
725.316	0.0148402
725.394	0.0148489
725.472	0.0148323
725.550	0.0146956
725.628	0.0148019
725.706	0.0149354
725.785	0.0148716
725.863	0.0148790
725.941	0.0149649
726.019	0.0149899
726.097	0.0149200
726.175	0.0149105
726.253	0.0147915
726.331	0.0148245
726.410	0.0149153
726.488	0.0149711
726.566	0.0148981
726.644	0.0150031
726.722	0.0149102
726.800	0.0148622
726.878	0.0147733
726.956	0.0148309
727.035	0.0150494
727.113	0.0150108
727.191	0.0148808
727.269	0.0148828
727.347	0.0149608
727.425	0.0149562
727.503	0.0150420
727.581	0.0150618
727.660	0.0149395
727.738	0.0149316
727.816	0.0149184
727.894	0.0150931
727.972	0.0150998
728.050	0.0149358
728.128	0.0149212
728.206	0.0148634
728.285	0.0149972
728.363	0.0147225
728.441	0.0149714
728.519	0.0150181
728.597	0.0148920
728.675	0.0148557
728.753	0.0149215
728.831	0.0149806
728.910	0.0148055
728.988	0.0149680
729.066	0.0148602
729.144	0.0149470
729.222	0.0148476
729.300	0.0147972
729.378	0.0148635
729.456	0.0148294
729.535	0.0148634
729.613	0.0148186
729.691	0.0148296
729.769	0.0148222
729.847	0.0149613
729.925	0.0147974
730.003	0.0149065
730.081	0.0148180
730.160	0.0148604
730.238	0.0148180
730.316	0.0147401
730.394	0.0148190
730.472	0.0149644
730.550	0.0149644
730.628	0.0148936
730.706	0.0147702
730.785	0.0149635
730.863	0.0148841
730.941	0.0148993
731.019	0.0149443
731.097	0.0147126
731.175	0.0146832
731.253	0.0147832
731.331	0.0148734
731.410	0.0149020
731.488	0.0148361
731.566	0.0149389
731.644	0.0148647
731.722	0.0147794
731.800	0.0147951
731.878	0.0146868
731.956	0.0148228
732.035	0.0147978
732.113	0.0147053
732.191	0.0147150
732.269	0.0148544
732.347	0.0148481
732.425	0.0148701
732.503	0.0148514
732.581	0.0149223
732.660	0.0149052
732.738	0.0148157
732.816	0.0147704
732.894	0.0148237
732.972	0.0148819
733.050	0.0148105
733.128	0.0147811
733.206	0.0149587
733.285	0.0147955
733.363	0.0148611
733.441	0.0149357
733.519	0.0147802
733.597	0.0147969
733.675	0.0149468
733.753	0.0147837
733.831	0.0147638
733.910	0.0149284
733.988	0.0149452
734.066	0.0149390
734.144	0.0147317
734.222	0.0148811
734.300	0.0149946
734.378	0.0148585
734.456	0.0150157
734.535	0.0148287
734.613	0.0148697
734.691	0.0148634
734.769	0.0149744
734.847	0.0149773
734.925	0.0150109
735.003	0.0149442
735.081	0.0150445
735.160	0.0150031
735.238	0.0148480
735.316	0.0149129
735.394	0.0152008
735.472	0.0150185
735.550	0.0148184
735.628	0.0150610
735.706	0.0149725
735.785	0.0149300
735.863	0.0149120
735.941	0.0150215
736.019	0.0150271
736.097	0.0149809
736.175	0.0149414
736.253	0.0149306
736.331	0.0149450
736.410	0.0149352
736.488	0.0149583
736.566	0.0150269
736.644	0.0150405
736.722	0.0149542
736.800	0.0149191
736.878	0.0148692
736.956	0.0149686
737.035	0.0149138
737.113	0.0149229
737.191	0.0148766
737.269	0.0148901
737.347	0.0147807
737.425	0.0148872
737.503	0.0149438
737.581	0.0148695
737.660	0.0148289
737.738	0.0149197
737.816	0.0148023
737.894	0.0148557
737.972	0.0149487
738.050	0.0147822
738.128	0.0148154
738.206	0.0147184
738.285	0.0149647
738.363	0.0148966
738.441	0.0148157
738.519	0.0147892
738.597	0.0147917
738.675	0.0147584
738.753	0.0148147
738.831	0.0147684
738.910	0.0148225
738.988	0.0146686
739.066	0.0148232
739.144	0.0148242
739.222	0.0146604
739.300	0.0148349
739.378	0.0147689
739.456	0.0147499
739.535	0.0148254
739.613	0.0148528
739.691	0.0147834
739.769	0.0147583
739.847	0.0148556
739.925	0.0147922
740.003	0.0148514
740.081	0.0147099
740.160	0.0145686
740.238	0.0148256
740.316	0.0148024
740.394	0.0148939
740.472	0.0147886
740.550	0.0147151
740.628	0.0146726
740.706	0.0147804
740.785	0.0147512
740.863	0.0148436
740.941	0.0148911
741.019	0.0147200
741.097	0.0147723
741.175	0.0148654
741.253	0.0147915
741.331	0.0148440
741.410	0.0149110
741.488	0.0149100
741.566	0.0148817
741.644	0.0148959
741.722	0.0148752
741.800	0.0148702
741.878	0.0149610
741.956	0.0149423
742.035	0.0149518
742.113	0.0149400
742.191	0.0150198
742.269	0.0149241
742.347	0.0149483
742.425	0.0147663
742.503	0.0147221
742.581	0.0150031
742.660	0.0151133
742.738	0.0148807
742.816	0.0148631
742.894	0.0149568
742.972	0.0148473
743.050	0.0149396
743.128	0.0148273
743.206	0.0147571
743.285	0.0148917
743.363	0.0148727
743.441	0.0148052
743.519	0.0147865
743.597	0.0148324
743.675	0.0148647
743.753	0.0147785
743.831	0.0147930
743.910	0.0150061
743.988	0.0148837
744.066	0.0148177
744.144	0.0148558
744.222	0.0148647
744.300	0.0149206
744.378	0.0149616
744.456	0.0149763
744.535	0.0148074
744.613	0.0148064
744.691	0.0148092
744.769	0.0149106
744.847	0.0149529
744.925	0.0149792
745.003	0.0149548
745.081	0.0147847
745.160	0.0149654
745.238	0.0149471
745.316	0.0148639
745.394	0.0148779
745.472	0.0148907
745.550	0.0149899
745.628	0.0148236
745.706	0.0147923
745.785	0.0149059
745.863	0.0148528
745.941	0.0148063
746.019	0.0149009
746.097	0.0149721
746.175	0.0148715
746.253	0.0148383
746.331	0.0148624
746.410	0.0147321
746.488	0.0147388
746.566	0.0147932
746.644	0.0146407
746.722	0.0147222
746.800	0.0147874
746.878	0.0148594
746.956	0.0147637
747.035	0.0147678
747.113	0.0148053
747.191	0.0147528
747.269	0.0147211
747.347	0.0146886
747.425	0.0146902
747.503	0.0147681
747.581	0.0149291
747.660	0.0147025
747.738	0.0147236
747.816	0.0147961
747.894	0.0147207
747.972	0.0145480
748.050	0.0148186
748.128	0.0146635
748.206	0.0145553
748.285	0.0146136
748.363	0.0147251
748.441	0.0148785
748.519	0.0147023
748.597	0.0146065
748.675	0.0147274
748.753	0.0147453
748.831	0.0148819
748.910	0.0148780
748.988	0.0147691
749.066	0.0147885
749.144	0.0147050
749.222	0.0147730
749.300	0.0147791
749.378	0.0148588
749.456	0.0149839
749.535	0.0149115
749.613	0.0147772
749.691	0.0147641
749.769	0.0147381
749.847	0.0149295
749.925	0.0148757
750.003	0.0149124
750.081	0.0147688
750.160	0.0148558
750.238	0.0147528
750.316	0.0149557
750.394	0.0149510
750.472	0.0147803
750.550	0.0148182
750.628	0.0148830
750.706	0.0148195
750.785	0.0147895
750.863	0.0147414
750.941	0.0148286
751.019	0.0148197
751.097	0.0148462
751.175	0.0148447
751.253	0.0148805
751.331	0.0148225
751.410	0.0148505
751.488	0.0148465
751.566	0.0147920
751.644	0.0148908
751.722	0.0149294
751.800	0.0149636
751.878	0.0147711
751.956	0.0148145
752.035	0.0147672
752.113	0.0147623
752.191	0.0148463
752.269	0.0147061
752.347	0.0149078
752.425	0.0148741
752.503	0.0147936
752.581	0.0148430
752.660	0.0147855
752.738	0.0147806
752.816	0.0146931
752.894	0.0145823
752.972	0.0147913
753.050	0.0148096
753.128	0.0147121
753.206	0.0146527
753.285	0.0148187
753.363	0.0148222
753.441	0.0147712
753.519	0.0148253
753.597	0.0148340
753.675	0.0148662
753.753	0.0147538
753.831	0.0148508
753.910	0.0149194
753.988	0.0149097
754.066	0.0149321
754.144	0.0147611
754.222	0.0148372
754.300	0.0148263
754.378	0.0149303
754.456	0.0149674
754.535	0.0148867
754.613	0.0148367
754.691	0.0148344
754.769	0.0148812
754.847	0.0148820
754.925	0.0149682
755.003	0.0149300
755.081	0.0147575
755.160	0.0148909
755.238	0.0150388
755.316	0.0148267
755.394	0.0149331
755.472	0.0150120
755.550	0.0147552
755.628	0.0148769
755.706	0.0149998
755.785	0.0150844
755.863	0.0150276
755.941	0.0150302
756.019	0.0150047
756.097	0.0148939
756.175	0.0149463
756.253	0.0150243
756.331	0.0149408
756.410	0.0149498
756.488	0.0149816
756.566	0.0150129
756.644	0.0150802
756.722	0.0149974
756.800	0.0150959
756.878	0.0149776
756.956	0.0150189
757.035	0.0150440
757.113	0.0150336
757.191	0.0148795
757.269	0.0149364
757.347	0.0149866
757.425	0.0150118
757.503	0.0148523
757.581	0.0149133
757.660	0.0148535
757.738	0.0148901
757.816	0.0148406
757.894	0.0149354
757.972	0.0147549
758.050	0.0149352
758.128	0.0148019
758.206	0.0148678
758.285	0.0148642
758.363	0.0148411
758.441	0.0149040
758.519	0.0148691
758.597	0.0148892
758.675	0.0148985
758.753	0.0148413
758.831	0.0148159
758.910	0.0149792
758.988	0.0149380
759.066	0.0148936
759.144	0.0148753
759.222	0.0149009
759.300	0.0148727
759.378	0.0148470
759.456	0.0148870
759.535	0.0149592
759.613	0.0149435
759.691	0.0148918
759.769	0.0148933
759.847	0.0149635
759.925	0.0148222
760.003	0.0147437
760.081	0.0148780
760.160	0.0148441
760.238	0.0148611
760.316	0.0149698
760.394	0.0146733
760.472	0.0148785
760.550	0.0148491
760.628	0.0148543
760.706	0.0149172
760.785	0.0148979
760.863	0.0148511
760.941	0.0150024
761.019	0.0148698
761.097	0.0148611
761.175	0.0148588
761.253	0.0150199
761.331	0.0148640
761.410	0.0147954
761.488	0.0147749
761.566	0.0148792
761.644	0.0146768
761.722	0.0148612
761.800	0.0148663
761.878	0.0149206
761.956	0.0147259
762.035	0.0148213
762.113	0.0148737
762.191	0.0147015
762.269	0.0148201
762.347	0.0149512
762.425	0.0146894
762.503	0.0147237
762.581	0.0148637
762.660	0.0149595
762.738	0.0147318
762.816	0.0148312
762.894	0.0147345
762.972	0.0147536
763.050	0.0149882
763.128	0.0148949
763.206	0.0148401
763.285	0.0148046
763.363	0.0148148
763.441	0.0148174
763.519	0.0147154
763.597	0.0147472
763.675	0.0147917
763.753	0.0149717
763.831	0.0149356
763.910	0.0148913
763.988	0.0149213
764.066	0.0148814
764.144	0.0148760
764.222	0.0148763
764.300	0.0149974
764.378	0.0149445
764.456	0.0149292
764.535	0.0147746
764.613	0.0150403
764.691	0.0148080
764.769	0.0148643
764.847	0.0149133
764.925	0.0147797
765.003	0.0148592
765.081	0.0148776
765.160	0.0146424
765.238	0.0147820
765.316	0.0148203
765.394	0.0148003
765.472	0.0146935
765.550	0.0146528
765.628	0.0147692
765.706	0.0147923
765.785	0.0147762
765.863	0.0148869
765.941	0.0148017
766.019	0.0148644
766.097	0.0147994
766.175	0.0148289
766.253	0.0148168
766.331	0.0148075
766.410	0.0147890
766.488	0.0148203
766.566	0.0146797
766.644	0.0146710
766.722	0.0147942
766.800	0.0148017
766.878	0.0147812
766.956	0.0147314
767.035	0.0147601
767.113	0.0148875
767.191	0.0147206
767.269	0.0146541
767.347	0.0147823
767.425	0.0147637
767.503	0.0147857
767.581	0.0147816
767.660	0.0147588
767.738	0.0148361
767.816	0.0148050
767.894	0.0145795
767.972	0.0147848
768.050	0.0147128
768.128	0.0148306
768.206	0.0146911
768.285	0.0148119
768.363	0.0148281
768.441	0.0148225
768.519	0.0148686
768.597	0.0147560
768.675	0.0146779
768.753	0.0147337
768.831	0.0148682
768.910	0.0148795
768.988	0.0147317
769.066	0.0149088
769.144	0.0147115
769.222	0.0148701
769.300	0.0148206
769.378	0.0148318
769.456	0.0147882
769.535	0.0147569
769.613	0.0147602
769.691	0.0147938
769.769	0.0148743
769.847	0.0148418
769.925	0.0148779
770.003	0.0147495
770.081	0.0148042
770.160	0.0148764
770.238	0.0148594
770.316	0.0149354
770.394	0.0148973
770.472	0.0148875
770.550	0.0150270
770.628	0.0148181
770.706	0.0148141
770.785	0.0149604
770.863	0.0149020
770.941	0.0148460
771.019	0.0149786
771.097	0.0149443
771.175	0.0147445
771.253	0.0148302
771.331	0.0147985
771.410	0.0149338
771.488	0.0150323
771.566	0.0148537
771.644	0.0148122
771.722	0.0148737
771.800	0.0148389
771.878	0.0149960
771.956	0.0149380
772.035	0.0149088
772.113	0.0148246
772.191	0.0147915
772.269	0.0146797
772.347	0.0148084
772.425	0.0147314
772.503	0.0148547
772.581	0.0148358
772.660	0.0147947
772.738	0.0147332
772.816	0.0146641
772.894	0.0148257
772.972	0.0149378
773.050	0.0147404
773.128	0.0146586
773.206	0.0146373
773.285	0.0147738
773.363	0.0148098
773.441	0.0146793
773.519	0.0146735
773.597	0.0148335
773.675	0.0147195
773.753	0.0147773
773.831	0.0146927
773.910	0.0147379
773.988	0.0147092
774.066	0.0147182
774.144	0.0148889
774.222	0.0146322
774.300	0.0148040
774.378	0.0147503
774.456	0.0146629
774.535	0.0147256
774.613	0.0147697
774.691	0.0146915
774.769	0.0146726
774.847	0.0147939
774.925	0.0147167
775.003	0.0146181
775.081	0.0146637
775.160	0.0147238
775.238	0.0148415
775.316	0.0147789
775.394	0.0148112
775.472	0.0147632
775.550	0.0147407
775.628	0.0149545
775.706	0.0148434
775.785	0.0147696
775.863	0.0149657
775.941	0.0147865
776.019	0.0147177
776.097	0.0148600
776.175	0.0148387
776.253	0.0147691
776.331	0.0148183
776.410	0.0148716
776.488	0.0147913
776.566	0.0147232
776.644	0.0147834
776.722	0.0146996
776.800	0.0148853
776.878	0.0148273
776.956	0.0148642
777.035	0.0148453
777.113	0.0147958
777.191	0.0148013
777.269	0.0148592
777.347	0.0148428
777.425	0.0148779
777.503	0.0147616
777.581	0.0146661
777.660	0.0148534
777.738	0.0148348
777.816	0.0148441
777.894	0.0147372
777.972	0.0149194
778.050	0.0149931
778.128	0.0149884
778.206	0.0149088
778.285	0.0149409
778.363	0.0148814
778.441	0.0148931
778.519	0.0149557
778.597	0.0150439
778.675	0.0149484
778.753	0.0149317
778.831	0.0147811
778.910	0.0148431
778.988	0.0148737
779.066	0.0149162
779.144	0.0149343
779.222	0.0148660
779.300	0.0148688
779.378	0.0148986
779.456	0.0148229
779.535	0.0148499
779.613	0.0148235
779.691	0.0149007
779.769	0.0147155
779.847	0.0146717
779.925	0.0147000
780.003	0.0146799
780.081	0.0147068
780.160	0.0146169
780.238	0.0147916
780.316	0.0146513
780.394	0.0147231
780.472	0.0147758
780.550	0.0147994
780.628	0.0148163
780.706	0.0147649
780.785	0.0147779
780.863	0.0146232
780.941	0.0146432
781.019	0.0147520
781.097	0.0147004
781.175	0.0147923
781.253	0.0145441
781.331	0.0146535
781.410	0.0147492
781.488	0.0148189
781.566	0.0147348
781.644	0.0147954
781.722	0.0147906
781.800	0.0146873
781.878	0.0147205
781.956	0.0146629
782.035	0.0146899
782.113	0.0145491
782.191	0.0146810
782.269	0.0147179
782.347	0.0147499
782.425	0.0147248
782.503	0.0148534
782.581	0.0147120
782.660	0.0147375
782.738	0.0147224
782.816	0.0147230
782.894	0.0147577
782.972	0.0147609
783.050	0.0148933
783.128	0.0147778
783.206	0.0146437
783.285	0.0147987
783.363	0.0147018
783.441	0.0148803
783.519	0.0146317
783.597	0.0146849
783.675	0.0147964
783.753	0.0150354
783.831	0.0147851
783.910	0.0148550
783.988	0.0148231
784.066	0.0148004
784.144	0.0147259
784.222	0.0147905
784.300	0.0147939
784.378	0.0148347
784.456	0.0147989
784.535	0.0148164
784.613	0.0149818
784.691	0.0149993
784.769	0.0148776
784.847	0.0149516
784.925	0.0148885
785.003	0.0147530
785.081	0.0147607
785.160	0.0148505
785.238	0.0148793
785.316	0.0150194
785.394	0.0150307
785.472	0.0149516
785.550	0.0149480
785.628	0.0148508
785.706	0.0149989
785.785	0.0151302
785.863	0.0150536
785.941	0.0151306
786.019	0.0150213
786.097	0.0149496
786.175	0.0149970
786.253	0.0151151
786.331	0.0149522
786.410	0.0150012
786.488	0.0149155
786.566	0.0148860
786.644	0.0149711
786.722	0.0150951
786.800	0.0149310
786.878	0.0149223
786.956	0.0148508
787.035	0.0148547
787.113	0.0148139
787.191	0.0147232
787.269	0.0149789
787.347	0.0148101
787.425	0.0147900
787.503	0.0149041
787.581	0.0149467
787.660	0.0148099
787.738	0.0148343
787.816	0.0147556
787.894	0.0148935
787.972	0.0149195
788.050	0.0146229
788.128	0.0146414
788.206	0.0149551
788.285	0.0148315
788.363	0.0149522
788.441	0.0148210
788.519	0.0147456
788.597	0.0148660
788.675	0.0147639
788.753	0.0148298
788.831	0.0147948
788.910	0.0149168
788.988	0.0148101
789.066	0.0147842
789.144	0.0147784
789.222	0.0148274
789.300	0.0148386
789.378	0.0147491
789.456	0.0149219
789.535	0.0148946
789.613	0.0147557
789.691	0.0148356
789.769	0.0147948
789.847	0.0147153
789.925	0.0146774
790.003	0.0147398
790.081	0.0148603
790.160	0.0147615
790.238	0.0147691
790.316	0.0147669
790.394	0.0147829
790.472	0.0146435
790.550	0.0147009
790.628	0.0147329
790.706	0.0145861
790.785	0.0145791
790.863	0.0146398
790.941	0.0146301
791.019	0.0146310
791.097	0.0147733
791.175	0.0146584
791.253	0.0147652
791.331	0.0147941
791.410	0.0146928
791.488	0.0147426
791.566	0.0147630
791.644	0.0147814
791.722	0.0147463
791.800	0.0147420
791.878	0.0148237
791.956	0.0147580
792.035	0.0147829
792.113	0.0148132
792.191	0.0147317
792.269	0.0148649
792.347	0.0147990
792.425	0.0148319
792.503	0.0147780
792.581	0.0148038
792.660	0.0149672
792.738	0.0147717
792.816	0.0150664
792.894	0.0149443
792.972	0.0149871
793.050	0.0148330
793.128	0.0149529
793.206	0.0148180
793.285	0.0149600
793.363	0.0150093
793.441	0.0149707
793.519	0.0149259
793.597	0.0150780
793.675	0.0149783
793.753	0.0148429
793.831	0.0149970
793.910	0.0149046
793.988	0.0150067
794.066	0.0149723
794.144	0.0149135
794.222	0.0148634
794.300	0.0148968
794.378	0.0151437
794.456	0.0150422
794.535	0.0148434
794.613	0.0148870
794.691	0.0148166
794.769	0.0149154
794.847	0.0149246
794.925	0.0149175
795.003	0.0149658
795.081	0.0148096
795.160	0.0147859
795.238	0.0147979
795.316	0.0148427
795.394	0.0148720
795.472	0.0149566
795.550	0.0149236
795.628	0.0148759
795.706	0.0149819
795.785	0.0149557
795.863	0.0148609
795.941	0.0148486
796.019	0.0148742
796.097	0.0148075
796.175	0.0148618
796.253	0.0148528
796.331	0.0148490
796.410	0.0149741
796.488	0.0148744
796.566	0.0147651
796.644	0.0148881
796.722	0.0147091
796.800	0.0147237
796.878	0.0147947
796.956	0.0148763
797.035	0.0147630
797.113	0.0148125
797.191	0.0148105
797.269	0.0148148
797.347	0.0149046
797.425	0.0147545
797.503	0.0149374
797.581	0.0148101
797.660	0.0149734
797.738	0.0148291
797.816	0.0147860
797.894	0.0148833
797.972	0.0147834
798.050	0.0149545
798.128	0.0147086
798.206	0.0146961
798.285	0.0147538
798.363	0.0148766
798.441	0.0149154
798.519	0.0147223
798.597	0.0148167
798.675	0.0147736
798.753	0.0146857
798.831	0.0147867
798.910	0.0148044
798.988	0.0149634
799.066	0.0148701
799.144	0.0148075
799.222	0.0148711
799.300	0.0147391
799.378	0.0147723
799.456	0.0149343
799.535	0.0148766
799.613	0.0146973
799.691	0.0148003
799.769	0.0149001
799.847	0.0149064
799.925	0.0149097
800.003	0.0149267
800.081	0.0149093
800.160	0.0146766
800.238	0.0147440
800.316	0.0149146
800.394	0.0149618
800.472	0.0148470
800.550	0.0148596
800.628	0.0148335
800.706	0.0148627
800.785	0.0149265
800.863	0.0148627
800.941	0.0147444
801.019	0.0147173
801.097	0.0148179
801.175	0.0148489
801.253	0.0147823
801.331	0.0147163
801.410	0.0148068
801.488	0.0148600
801.566	0.0147733
801.644	0.0147247
801.722	0.0147803
801.800	0.0148911
801.878	0.0146924
801.956	0.0146396
802.035	0.0148254
802.113	0.0146921
802.191	0.0147117
802.269	0.0147538
802.347	0.0146929
802.425	0.0146023
802.503	0.0148654
802.581	0.0147663
802.660	0.0146812
802.738	0.0147530
802.816	0.0147398
802.894	0.0146806
802.972	0.0147031
803.050	0.0146934
803.128	0.0147708
803.206	0.0146041
803.285	0.0146342
803.363	0.0147524
803.441	0.0146672
803.519	0.0147099
803.597	0.0147334
803.675	0.0147761
803.753	0.0147649
803.831	0.0146278
803.910	0.0147130
803.988	0.0146484
804.066	0.0146186
804.144	0.0148050
804.222	0.0146338
804.300	0.0147192
804.378	0.0148518
804.456	0.0148669
804.535	0.0148736
804.613	0.0148264
804.691	0.0148331
804.769	0.0148052
804.847	0.0147557
804.925	0.0148328
805.003	0.0147908
805.081	0.0148425
805.160	0.0146965
805.238	0.0148075
805.316	0.0147629
805.394	0.0146264
805.472	0.0146504
805.550	0.0149033
805.628	0.0148624
805.706	0.0147469
805.785	0.0146883
805.863	0.0147918
805.941	0.0146855
806.019	0.0148195
806.097	0.0146891
806.175	0.0147983
806.253	0.0149154
806.331	0.0147181
806.410	0.0148742
806.488	0.0147213
806.566	0.0146954
806.644	0.0148022
806.722	0.0148136
806.800	0.0147658
806.878	0.0149200
806.956	0.0149022
807.035	0.0150654
807.113	0.0149973
807.191	0.0147797
807.269	0.0147829
807.347	0.0149200
807.425	0.0150495
807.503	0.0150098
807.581	0.0149866
807.660	0.0149609
807.738	0.0150204
807.816	0.0150804
807.894	0.0149857
807.972	0.0148866
808.050	0.0148884
808.128	0.0149451
808.206	0.0149591
808.285	0.0149538
808.363	0.0149175
808.441	0.0150973
808.519	0.0149418
808.597	0.0150031
808.675	0.0149152
808.753	0.0148885
808.831	0.0149076
808.910	0.0148864
808.988	0.0149094
809.066	0.0147548
809.144	0.0149094
809.222	0.0148726
809.300	0.0148978
809.378	0.0147849
809.456	0.0148592
809.535	0.0149026
809.613	0.0148561
809.691	0.0147797
809.769	0.0147783
809.847	0.0148442
809.925	0.0147440
810.003	0.0149016
810.081	0.0148811
810.160	0.0149160
810.238	0.0147407
810.316	0.0148782
810.394	0.0148747
810.472	0.0147779
810.550	0.0147445
810.628	0.0147499
810.706	0.0149008
810.785	0.0149081
810.863	0.0148637
810.941	0.0149040
811.019	0.0148438
811.097	0.0148629
811.175	0.0147968
811.253	0.0147685
811.331	0.0147117
811.410	0.0148428
811.488	0.0148486
811.566	0.0147718
811.644	0.0147793
811.722	0.0148573
811.800	0.0147746
811.878	0.0148919
811.956	0.0149094
812.035	0.0148898
812.113	0.0148783
812.191	0.0148604
812.269	0.0147769
812.347	0.0148549
812.425	0.0148699
812.503	0.0147827
812.581	0.0148138
812.660	0.0147039
812.738	0.0148051
812.816	0.0147607
812.894	0.0148701
812.972	0.0148698
813.050	0.0147498
813.128	0.0148745
813.206	0.0147956
813.285	0.0148220
813.363	0.0146796
813.441	0.0147940
813.519	0.0147168
813.597	0.0147585
813.675	0.0147518
813.753	0.0148250
813.831	0.0147359
813.910	0.0147633
813.988	0.0148271
814.066	0.0147960
814.144	0.0147850
814.222	0.0147753
814.300	0.0147839
814.378	0.0147257
814.456	0.0149753
814.535	0.0149146
814.613	0.0149960
814.691	0.0149313
814.769	0.0149477
814.847	0.0149049
814.925	0.0149638
815.003	0.0149540
815.081	0.0149512
815.160	0.0149031
815.238	0.0149229
815.316	0.0151147
815.394	0.0148923
815.472	0.0150320
815.550	0.0150180
815.628	0.0150542
815.706	0.0148993
815.785	0.0148624
815.863	0.0150835
815.941	0.0150097
816.019	0.0148819
816.097	0.0148887
816.175	0.0149136
816.253	0.0149434
816.331	0.0149425
816.410	0.0149308
816.488	0.0149579
816.566	0.0149439
816.644	0.0148454
816.722	0.0147330
816.800	0.0149313
816.878	0.0149226
816.956	0.0148730
817.035	0.0148711
817.113	0.0148956
817.191	0.0149064
817.269	0.0147744
817.347	0.0149245
817.425	0.0147884
817.503	0.0147840
817.581	0.0148751
817.660	0.0149340
817.738	0.0150094
817.816	0.0149234
817.894	0.0148862
817.972	0.0148915
818.050	0.0148310
818.128	0.0148775
818.206	0.0147231
818.285	0.0148785
818.363	0.0148477
818.441	0.0147622
818.519	0.0149114
818.597	0.0147855
818.675	0.0148537
818.753	0.0148675
818.831	0.0147740
818.910	0.0147337
818.988	0.0148734
819.066	0.0148798
819.144	0.0148653
819.222	0.0150565
819.300	0.0148205
819.378	0.0149560
819.456	0.0149873
819.535	0.0149084
819.613	0.0148673
819.691	0.0148855
819.769	0.0150931
819.847	0.0149664
819.925	0.0148759
820.003	0.0149287
820.081	0.0148653
820.160	0.0149049
820.238	0.0149430
820.316	0.0147646
820.394	0.0148093
820.472	0.0147934
820.550	0.0147745
820.628	0.0149082
820.706	0.0148528
820.785	0.0147193
820.863	0.0148381
820.941	0.0148551
821.019	0.0148787
821.097	0.0149098
821.175	0.0148814
821.253	0.0149905
821.331	0.0148797
821.410	0.0148105
821.488	0.0148246
821.566	0.0147768
821.644	0.0148430
821.722	0.0148083
821.800	0.0149786
821.878	0.0149978
821.956	0.0148889
822.035	0.0150156
822.113	0.0149017
822.191	0.0148945
822.269	0.0149409
822.347	0.0150195
822.425	0.0149564
822.503	0.0150231
822.581	0.0149536
822.660	0.0150294
822.738	0.0149952
822.816	0.0150206
822.894	0.0150687
822.972	0.0149549
823.050	0.0149417
823.128	0.0149312
823.206	0.0149956
823.285	0.0150413
823.363	0.0148047
823.441	0.0149117
823.519	0.0148526
823.597	0.0149680
823.675	0.0149706
823.753	0.0147849
823.831	0.0147459
823.910	0.0148375
823.988	0.0149660
824.066	0.0149226
824.144	0.0148908
824.222	0.0148246
824.300	0.0147446
824.378	0.0150307
824.456	0.0149667
824.535	0.0147449
824.613	0.0149199
824.691	0.0146548
824.769	0.0147729
824.847	0.0148466
824.925	0.0147433
825.003	0.0148724
825.081	0.0148717
825.160	0.0148772
825.238	0.0147984
825.316	0.0147812
825.394	0.0149362
825.472	0.0148388
825.550	0.0149839
825.628	0.0147899
825.706	0.0149448
825.785	0.0149392
825.863	0.0147364
825.941	0.0149287
826.019	0.0148138
826.097	0.0148764
826.175	0.0148660
826.253	0.0148455
826.331	0.0149074
826.410	0.0148581
826.488	0.0149071
826.566	0.0149483
826.644	0.0148288
826.722	0.0148658
826.800	0.0148973
826.878	0.0149747
826.956	0.0148457
827.035	0.0149492
827.113	0.0149389
827.191	0.0148245
827.269	0.0149105
827.347	0.0148589
827.425	0.0148704
827.503	0.0148918
827.581	0.0149480
827.660	0.0149322
827.738	0.0148948
827.816	0.0148484
827.894	0.0148312
827.972	0.0148126
828.050	0.0149706
828.128	0.0149684
828.206	0.0148135
828.285	0.0148093
828.363	0.0148916
828.441	0.0150985
828.519	0.0148020
828.597	0.0149426
828.675	0.0149567
828.753	0.0150166
828.831	0.0148970
828.910	0.0148841
828.988	0.0147928
829.066	0.0149411
829.144	0.0148208
829.222	0.0149162
829.300	0.0148422
829.378	0.0150088
829.456	0.0149394
829.535	0.0149500
829.613	0.0149537
829.691	0.0149815
829.769	0.0148835
829.847	0.0149002
829.925	0.0149654
830.003	0.0149181
830.081	0.0149960
830.160	0.0149014
830.238	0.0148534
830.316	0.0148670
830.394	0.0148392
830.472	0.0148832
830.550	0.0148513
830.628	0.0149255
830.706	0.0149385
830.785	0.0148723
830.863	0.0148199
830.941	0.0148524
831.019	0.0149487
831.097	0.0147572
831.175	0.0147381
831.253	0.0147085
831.331	0.0148700
831.410	0.0145950
831.488	0.0147701
831.566	0.0147446
831.644	0.0147854
831.722	0.0147552
831.800	0.0147598
831.878	0.0147272
831.956	0.0147336
832.035	0.0147475
832.113	0.0147689
832.191	0.0148335
832.269	0.0149295
832.347	0.0148837
832.425	0.0147015
832.503	0.0148577
832.581	0.0147643
832.660	0.0148373
832.738	0.0148837
832.816	0.0147864
832.894	0.0146903
832.972	0.0148345
833.050	0.0147319
833.128	0.0146621
833.206	0.0147204
833.285	0.0146308
833.363	0.0146742
833.441	0.0146607
833.519	0.0148247
833.597	0.0147745
833.675	0.0146481
833.753	0.0146994
833.831	0.0147536
833.910	0.0148852
833.988	0.0147047
834.066	0.0147961
834.144	0.0146282
834.222	0.0148395
834.300	0.0148166
834.378	0.0147404
834.456	0.0147808
834.535	0.0148415
834.613	0.0146897
834.691	0.0147517
834.769	0.0147504
834.847	0.0148999
834.925	0.0148434
835.003	0.0147213
835.081	0.0147823
835.160	0.0147324
835.238	0.0147381
835.316	0.0148002
835.394	0.0147033
835.472	0.0148621
835.550	0.0147518
835.628	0.0148378
835.706	0.0148495
835.785	0.0148302
835.863	0.0148846
835.941	0.0146352
836.019	0.0146696
836.097	0.0148295
836.175	0.0149355
836.253	0.0147775
836.331	0.0147657
836.410	0.0148421
836.488	0.0148782
836.566	0.0147634
836.644	0.0148999
836.722	0.0149300
836.800	0.0148974
836.878	0.0149453
836.956	0.0149352
837.035	0.0150768
837.113	0.0149665
837.191	0.0149292
837.269	0.0148382
837.347	0.0149052
837.425	0.0149068
837.503	0.0149460
837.581	0.0149534
837.660	0.0150198
837.738	0.0149005
837.816	0.0148135
837.894	0.0148997
837.972	0.0148151
838.050	0.0149760
838.128	0.0150150
838.206	0.0148525
838.285	0.0148492
838.363	0.0148818
838.441	0.0149595
838.519	0.0147974
838.597	0.0147205
838.675	0.0149397
838.753	0.0148219
838.831	0.0148458
838.910	0.0148674
838.988	0.0148519
839.066	0.0148407
839.144	0.0148563
839.222	0.0148234
839.300	0.0149489
839.378	0.0149918
839.456	0.0148526
839.535	0.0147578
839.613	0.0149203
839.691	0.0148749
839.769	0.0148889
839.847	0.0148530
839.925	0.0148904
840.003	0.0148927
840.081	0.0148219
840.160	0.0147958
840.238	0.0148662
840.316	0.0148312
840.394	0.0148243
840.472	0.0148582
840.550	0.0149130
840.628	0.0149104
840.706	0.0147409
840.785	0.0148292
840.863	0.0149748
840.941	0.0149164
841.019	0.0149197
841.097	0.0147636
841.175	0.0149168
841.253	0.0149831
841.331	0.0148398
841.410	0.0149273
841.488	0.0149333
841.566	0.0148432
841.644	0.0147380
841.722	0.0148627
841.800	0.0148383
841.878	0.0149928
841.956	0.0148894
842.035	0.0149553
842.113	0.0149359
842.191	0.0148956
842.269	0.0149294
842.347	0.0150517
842.425	0.0149778
842.503	0.0149886
842.581	0.0148933
842.660	0.0149223
842.738	0.0150233
842.816	0.0149690
842.894	0.0149107
842.972	0.0150044
843.050	0.0148470
843.128	0.0149033
843.206	0.0147944
843.285	0.0149759
843.363	0.0148845
843.441	0.0148753
843.519	0.0148849
843.597	0.0148734
843.675	0.0149147
843.753	0.0148875
843.831	0.0148433
843.910	0.0148041
843.988	0.0147801
844.066	0.0148763
844.144	0.0149387
844.222	0.0149323
844.300	0.0148787
844.378	0.0149127
844.456	0.0149852
844.535	0.0149465
844.613	0.0149745
844.691	0.0149666
844.769	0.0149200
844.847	0.0150033
844.925	0.0149729
845.003	0.0149358
845.081	0.0148791
845.160	0.0149413
845.238	0.0149457
845.316	0.0150037
845.394	0.0150061
845.472	0.0148827
845.550	0.0149329
845.628	0.0148518
845.706	0.0148289
845.785	0.0148760
845.863	0.0147536
845.941	0.0148948
846.019	0.0148216
846.097	0.0148023
846.175	0.0148762
846.253	0.0146282
846.331	0.0148972
846.410	0.0150183
846.488	0.0148225
846.566	0.0149310
846.644	0.0149577
846.722	0.0148808
846.800	0.0148039
846.878	0.0146770
846.956	0.0148636
847.035	0.0147277
847.113	0.0149132
847.191	0.0148761
847.269	0.0148753
847.347	0.0149561
847.425	0.0149583
847.503	0.0149200
847.581	0.0147996
847.660	0.0148141
847.738	0.0148923
847.816	0.0148560
847.894	0.0149345
847.972	0.0148325
848.050	0.0150235
848.128	0.0149557
848.206	0.0149337
848.285	0.0149880
848.363	0.0149131
848.441	0.0149675
848.519	0.0148257
848.597	0.0148743
848.675	0.0149423
848.753	0.0149015
848.831	0.0149015
848.910	0.0149112
848.988	0.0150046
849.066	0.0148479
849.144	0.0149065
849.222	0.0149453
849.300	0.0150062
849.378	0.0148924
849.456	0.0148692
849.535	0.0149397
849.613	0.0149948
849.691	0.0149567
849.769	0.0148920
849.847	0.0149973
849.925	0.0149311
850.003	0.0149509
850.081	0.0148873
850.160	0.0147921
850.238	0.0151302
850.316	0.0150319
850.394	0.0149892
850.472	0.0148907
850.550	0.0147669
850.628	0.0149641
850.706	0.0149028
850.785	0.0148749
850.863	0.0148975
850.941	0.0148502
851.019	0.0148146
851.097	0.0149692
851.175	0.0149566
851.253	0.0149818
851.331	0.0148154
851.410	0.0149612
851.488	0.0150211
851.566	0.0149136
851.644	0.0150126
851.722	0.0149506
851.800	0.0149261
851.878	0.0148843
851.956	0.0149969
852.035	0.0150825
852.113	0.0149356
852.191	0.0150616
852.269	0.0150890
852.347	0.0148895
852.425	0.0150330
852.503	0.0149224
852.581	0.0149883
852.660	0.0149870
852.738	0.0150483
852.816	0.0149375
852.894	0.0149757
852.972	0.0148254
853.050	0.0148142
853.128	0.0149434
853.206	0.0149770
853.285	0.0148218
853.363	0.0147775
853.441	0.0148061
853.519	0.0147425
853.597	0.0148264
853.675	0.0147040
853.753	0.0148896
853.831	0.0148598
853.910	0.0147900
853.988	0.0149680
854.066	0.0149707
854.144	0.0148459
854.222	0.0149596
854.300	0.0148470
854.378	0.0149319
854.456	0.0149006
854.535	0.0148696
854.613	0.0149131
854.691	0.0149284
854.769	0.0147536
854.847	0.0148393
854.925	0.0148087
855.003	0.0148177
855.081	0.0149292
855.160	0.0148610
855.238	0.0148338
855.316	0.0148956
855.394	0.0149159
855.472	0.0148392
855.550	0.0148909
855.628	0.0148179
855.706	0.0147954
855.785	0.0148785
855.863	0.0148883
855.941	0.0149355
856.019	0.0148164
856.097	0.0148603
856.175	0.0149317
856.253	0.0148880
856.331	0.0148725
856.410	0.0148080
856.488	0.0149368
856.566	0.0147107
856.644	0.0148109
856.722	0.0146633
856.800	0.0145494
856.878	0.0148423
856.956	0.0147813
857.035	0.0146154
857.113	0.0145884
857.191	0.0147850
857.269	0.0148051
857.347	0.0148371
857.425	0.0147527
857.503	0.0147979
857.581	0.0148640
857.660	0.0147812
857.738	0.0146249
857.816	0.0147514
857.894	0.0148111
857.972	0.0148388
858.050	0.0147198
858.128	0.0148808
858.206	0.0146965
858.285	0.0147372
858.363	0.0148628
858.441	0.0148875
858.519	0.0147455
858.597	0.0148488
858.675	0.0147952
858.753	0.0148198
858.831	0.0148410
858.910	0.0148685
858.988	0.0148636
859.066	0.0148024
859.144	0.0148782
859.222	0.0147525
859.300	0.0148438
859.378	0.0148634
859.456	0.0149071
859.535	0.0150205
859.613	0.0148130
859.691	0.0149684
859.769	0.0148914
859.847	0.0149148
859.925	0.0148843
860.003	0.0148217
860.081	0.0148156
860.160	0.0148315
860.238	0.0147015
860.316	0.0148701
860.394	0.0146734
860.472	0.0146619
860.550	0.0147775
860.628	0.0147521
860.706	0.0148098
860.785	0.0145839
860.863	0.0146478
860.941	0.0146745
861.019	0.0146886
861.097	0.0147695
861.175	0.0146904
861.253	0.0146278
861.331	0.0146829
861.410	0.0147382
861.488	0.0147864
861.566	0.0147705
861.644	0.0146913
861.722	0.0148872
861.800	0.0147388
861.878	0.0147971
861.956	0.0147520
862.035	0.0147862
862.113	0.0148552
862.191	0.0147422
862.269	0.0145953
862.347	0.0147216
862.425	0.0147003
862.503	0.0148343
862.581	0.0147012
862.660	0.0146819
862.738	0.0147256
862.816	0.0146394
862.894	0.0146208
862.972	0.0147058
863.050	0.0146784
863.128	0.0146306
863.206	0.0147955
863.285	0.0147684
863.363	0.0146601
863.441	0.0146066
863.519	0.0147641
863.597	0.0147031
863.675	0.0147868
863.753	0.0147128
863.831	0.0146642
863.910	0.0148151
863.988	0.0147903
864.066	0.0148206
864.144	0.0146426
864.222	0.0146419
864.300	0.0148206
864.378	0.0148086
864.456	0.0147575
864.535	0.0147188
864.613	0.0147278
864.691	0.0146109
864.769	0.0148325
864.847	0.0146368
864.925	0.0147983
865.003	0.0147879
865.081	0.0146176
865.160	0.0146764
865.238	0.0146257
865.316	0.0147562
865.394	0.0146951
865.472	0.0146890
865.550	0.0146748
865.628	0.0147810
865.706	0.0147459
865.785	0.0147635
865.863	0.0148228
865.941	0.0146522
866.019	0.0147224
866.097	0.0149194
866.175	0.0148428
866.253	0.0149142
866.331	0.0148544
866.410	0.0147833
866.488	0.0149284
866.566	0.0149689
866.644	0.0149751
866.722	0.0148139
866.800	0.0148877
866.878	0.0150525
866.956	0.0149084
867.035	0.0150951
867.113	0.0151908
867.191	0.0149485
867.269	0.0149430
867.347	0.0148763
867.425	0.0149194
867.503	0.0150497
867.581	0.0149706
867.660	0.0149473
867.738	0.0150847
867.816	0.0149203
867.894	0.0150101
867.972	0.0149931
868.050	0.0148806
868.128	0.0149418
868.206	0.0149518
868.285	0.0149162
868.363	0.0148620
868.441	0.0148426
868.519	0.0148277
868.597	0.0149122
868.675	0.0149083
868.753	0.0148993
868.831	0.0147874
868.910	0.0148329
868.988	0.0149687
869.066	0.0148211
869.144	0.0147781
869.222	0.0147348
869.300	0.0148504
869.378	0.0147140
869.456	0.0149130
869.535	0.0148128
869.613	0.0147701
869.691	0.0147311
869.769	0.0146565
869.847	0.0147828
869.925	0.0147960
870.003	0.0148338
870.081	0.0147054
870.160	0.0146845
870.238	0.0147720
870.316	0.0148840
870.394	0.0147786
870.472	0.0148592
870.550	0.0147517
870.628	0.0146638
870.706	0.0148143
870.785	0.0148537
870.863	0.0148787
870.941	0.0147842
871.019	0.0147675
871.097	0.0147847
871.175	0.0148202
871.253	0.0147829
871.331	0.0148747
871.410	0.0147153
871.488	0.0148304
871.566	0.0147572
871.644	0.0147744
871.722	0.0148800
871.800	0.0148425
871.878	0.0148375
871.956	0.0146916
872.035	0.0148520
872.113	0.0149467
872.191	0.0148932
872.269	0.0148636
872.347	0.0147412
872.425	0.0148131
872.503	0.0148116
872.581	0.0148424
872.660	0.0149249
872.738	0.0147957
872.816	0.0149612
872.894	0.0150646
872.972	0.0148843
873.050	0.0149778
873.128	0.0148620
873.206	0.0147670
873.285	0.0147982
873.363	0.0149442
873.441	0.0149316
873.519	0.0148811
873.597	0.0149662
873.675	0.0149585
873.753	0.0150410
873.831	0.0149741
873.910	0.0148434
873.988	0.0148563
874.066	0.0149429
874.144	0.0149118
874.222	0.0147978
874.300	0.0149423
874.378	0.0148407
874.456	0.0148824
874.535	0.0149086
874.613	0.0149267
874.691	0.0149604
874.769	0.0147936
874.847	0.0148665
874.925	0.0149523
875.003	0.0148117
875.081	0.0147651
875.160	0.0147765
875.238	0.0147398
875.316	0.0147448
875.394	0.0146713
875.472	0.0145834
875.550	0.0146847
875.628	0.0147459
875.706	0.0148822
875.785	0.0146893
875.863	0.0147581
875.941	0.0146559
876.019	0.0147873
876.097	0.0147803
876.175	0.0147565
876.253	0.0145605
876.331	0.0146095
876.410	0.0149915
876.488	0.0148322
876.566	0.0145726
876.644	0.0146839
876.722	0.0146556
876.800	0.0145979
876.878	0.0146253
876.956	0.0145576
877.035	0.0146782
877.113	0.0146151
877.191	0.0146156
877.269	0.0147900
877.347	0.0146408
877.425	0.0145941
877.503	0.0146637
877.581	0.0146917
877.660	0.0147657
877.738	0.0147169
877.816	0.0147139
877.894	0.0147758
877.972	0.0147323
878.050	0.0146106
878.128	0.0148129
878.206	0.0147829
878.285	0.0146387
878.363	0.0148425
878.441	0.0147198
878.519	0.0145779
878.597	0.0147836
878.675	0.0147767
878.753	0.0146574
878.831	0.0146838
878.910	0.0148755
878.988	0.0147147
879.066	0.0146366
879.144	0.0146950
879.222	0.0148085
879.300	0.0146810
879.378	0.0148952
879.456	0.0147031
879.535	0.0146698
879.613	0.0147733
879.691	0.0148212
879.769	0.0147237
879.847	0.0147576
879.925	0.0147057
880.003	0.0148463
880.081	0.0147861
880.160	0.0146389
880.238	0.0147459
880.316	0.0148227
880.394	0.0147555
880.472	0.0148298
880.550	0.0147975
880.628	0.0147040
880.706	0.0149168
880.785	0.0148670
880.863	0.0147984
880.941	0.0148040
881.019	0.0148199
881.097	0.0148405
881.175	0.0149098
881.253	0.0148846
881.331	0.0148649
881.410	0.0148751
881.488	0.0149072
881.566	0.0148678
881.644	0.0147255
881.722	0.0148907
881.800	0.0149317
881.878	0.0148868
881.956	0.0148220
882.035	0.0149059
882.113	0.0149339
882.191	0.0147807
882.269	0.0149238
882.347	0.0148473
882.425	0.0149128
882.503	0.0149762
882.581	0.0149252
882.660	0.0148478
882.738	0.0148464
882.816	0.0147142
882.894	0.0147318
882.972	0.0147682
883.050	0.0146946
883.128	0.0148608
883.206	0.0148518
883.285	0.0148249
883.363	0.0147329
883.441	0.0147886
883.519	0.0147552
883.597	0.0148319
883.675	0.0147482
883.753	0.0147453
883.831	0.0147086
883.910	0.0148518
883.988	0.0147984
884.066	0.0148221
884.144	0.0146555
884.222	0.0146394
884.300	0.0146949
884.378	0.0147274
884.456	0.0147612
884.535	0.0148825
884.613	0.0146564
884.691	0.0146805
884.769	0.0147028
884.847	0.0147459
884.925	0.0148611
885.003	0.0147264
885.081	0.0147857
885.160	0.0146983
885.238	0.0146685
885.316	0.0148181
885.394	0.0148234
885.472	0.0148741
885.550	0.0148231
885.628	0.0147186
885.706	0.0147694
885.785	0.0147870
885.863	0.0149843
885.941	0.0148072
886.019	0.0148647
886.097	0.0147948
886.175	0.0146665
886.253	0.0148360
886.331	0.0148335
886.410	0.0147988
886.488	0.0148045
886.566	0.0147331
886.644	0.0148140
886.722	0.0149515
886.800	0.0148369
886.878	0.0148509
886.956	0.0147823
887.035	0.0147399
887.113	0.0147961
887.191	0.0148154
887.269	0.0149104
887.347	0.0148124
887.425	0.0148139
887.503	0.0149563
887.581	0.0148488
887.660	0.0148071
887.738	0.0149480
887.816	0.0149234
887.894	0.0149464
887.972	0.0148878
888.050	0.0148357
888.128	0.0148940
888.206	0.0148599
888.285	0.0148627
888.363	0.0148535
888.441	0.0150073
888.519	0.0149021
888.597	0.0148409
888.675	0.0149309
888.753	0.0148680
888.831	0.0148224
888.910	0.0149181
888.988	0.0149032
889.066	0.0149297
889.144	0.0149438
889.222	0.0149770
889.300	0.0148890
889.378	0.0148396
889.456	0.0148141
889.535	0.0148619
889.613	0.0147761
889.691	0.0149141
889.769	0.0148183
889.847	0.0149216
889.925	0.0148512
890.003	0.0147742
890.081	0.0147709
890.160	0.0148695
890.238	0.0148745
890.316	0.0147739
890.394	0.0148260
890.472	0.0148627
890.550	0.0147806
890.628	0.0148680
890.706	0.0149770
890.785	0.0148341
890.863	0.0149038
890.941	0.0149189
891.019	0.0148174
891.097	0.0148251
891.175	0.0149982
891.253	0.0148739
891.331	0.0148515
891.410	0.0149657
891.488	0.0148152
891.566	0.0148387
891.644	0.0148985
891.722	0.0148740
891.800	0.0147776
891.878	0.0147666
891.956	0.0148734
892.035	0.0148957
892.113	0.0148752
892.191	0.0147916
892.269	0.0147926
892.347	0.0149708
892.425	0.0148228
892.503	0.0148569
892.581	0.0148071
892.660	0.0147887
892.738	0.0148972
892.816	0.0148886
892.894	0.0147713
892.972	0.0147576
893.050	0.0148135
893.128	0.0148658
893.206	0.0148456
893.285	0.0147872
893.363	0.0147690
893.441	0.0148424
893.519	0.0147916
893.597	0.0149364
893.675	0.0149785
893.753	0.0148366
893.831	0.0149274
893.910	0.0149026
893.988	0.0148412
894.066	0.0149743
894.144	0.0147837
894.222	0.0148662
894.300	0.0150175
894.378	0.0148254
894.456	0.0149078
894.535	0.0149391
894.613	0.0149525
894.691	0.0148676
894.769	0.0148673
894.847	0.0150332
894.925	0.0149039
895.003	0.0149261
895.081	0.0149241
895.160	0.0149218
895.238	0.0148637
895.316	0.0149673
895.394	0.0150008
895.472	0.0149462
895.550	0.0149551
895.628	0.0150247
895.706	0.0148737
895.785	0.0150066
895.863	0.0149666
895.941	0.0149439
896.019	0.0148873
896.097	0.0150552
896.175	0.0150674
896.253	0.0150019
896.331	0.0150594
896.410	0.0149841
896.488	0.0149982
896.566	0.0149712
896.644	0.0148438
896.722	0.0150086
896.800	0.0149694
896.878	0.0149082
896.956	0.0150267
897.035	0.0147556
897.113	0.0148883
897.191	0.0150031
897.269	0.0148412
897.347	0.0148325
897.425	0.0148790
897.503	0.0147102
897.581	0.0149109
897.660	0.0147969
897.738	0.0147564
897.816	0.0147636
897.894	0.0148138
897.972	0.0146306
898.050	0.0146956
898.128	0.0147051
898.206	0.0146591
898.285	0.0146109
898.363	0.0145716
898.441	0.0145927
898.519	0.0145879
898.597	0.0146286
898.675	0.0146124
898.753	0.0146877
898.831	0.0144609
898.910	0.0144965
898.988	0.0145747
899.066	0.0146120
899.144	0.0145603
899.222	0.0145718
899.300	0.0145006
899.378	0.0143640
899.456	0.0144775
899.535	0.0145375
899.613	0.0145071
899.691	0.0144326
899.769	0.0145132
899.847	0.0144991
899.925	0.0145001
900.003	0.0145221
900.081	0.0145752
900.160	0.0145636
900.238	0.0144135
900.316	0.0145998
900.394	0.0145937
900.472	0.0146091
900.550	0.0145911
900.628	0.0146526
900.706	0.0147363
900.785	0.0146722
900.863	0.0146373
900.941	0.0147047
901.019	0.0145990
901.097	0.0144879
901.175	0.0146541
901.253	0.0147332
901.331	0.0147398
901.410	0.0147884
901.488	0.0146455
901.566	0.0147330
901.644	0.0147282
901.722	0.0148688
901.800	0.0148036
901.878	0.0147478
901.956	0.0147328
902.035	0.0147243
902.113	0.0147640
902.191	0.0146736
902.269	0.0148357
902.347	0.0147838
902.425	0.0148692
902.503	0.0148999
902.581	0.0150155
902.660	0.0149465
902.738	0.0148810
902.816	0.0150659
902.894	0.0149638
902.972	0.0149241
903.050	0.0150753
903.128	0.0150447
903.206	0.0149612
903.285	0.0149914
903.363	0.0149768
903.441	0.0151112
903.519	0.0151682
903.597	0.0149743
903.675	0.0150944
903.753	0.0150502
903.831	0.0150254
903.910	0.0149472
903.988	0.0150405
904.066	0.0150569
904.144	0.0150459
904.222	0.0151270
904.300	0.0150348
904.378	0.0151259
904.456	0.0151035
904.535	0.0149741
904.613	0.0149454
904.691	0.0149760
904.769	0.0149550
904.847	0.0150016
904.925	0.0149902
905.003	0.0148984
905.081	0.0148887
905.160	0.0149345
905.238	0.0149961
905.316	0.0150464
905.394	0.0150019
905.472	0.0148917
905.550	0.0149297
905.628	0.0148996
905.706	0.0149244
905.785	0.0149594
905.863	0.0147791
905.941	0.0147810
906.019	0.0147478
906.097	0.0148248
906.175	0.0147567
906.253	0.0148531
906.331	0.0148983
906.410	0.0148750
906.488	0.0147774
906.566	0.0148358
906.644	0.0147790
906.722	0.0148071
906.800	0.0148053
906.878	0.0148377
906.956	0.0148817
907.035	0.0148666
907.113	0.0147948
907.191	0.0147939
907.269	0.0147343
907.347	0.0147793
907.425	0.0148951
907.503	0.0148453
907.581	0.0148019
907.660	0.0148012
907.738	0.0147624
907.816	0.0148020
907.894	0.0147974
907.972	0.0147266
908.050	0.0148283
908.128	0.0148853
908.206	0.0148482
908.285	0.0147781
908.363	0.0146647
908.441	0.0147115
908.519	0.0147553
908.597	0.0149137
908.675	0.0149101
908.753	0.0148463
908.831	0.0147231
908.910	0.0148323
908.988	0.0149203
909.066	0.0148929
909.144	0.0147911
909.222	0.0146886
909.300	0.0148536
909.378	0.0147285
909.456	0.0147739
909.535	0.0150049
909.613	0.0149028
909.691	0.0148528
909.769	0.0148085
909.847	0.0148661
909.925	0.0148391
910.003	0.0148596
910.081	0.0148840
910.160	0.0149157
910.238	0.0150262
910.316	0.0149608
910.394	0.0148916
910.472	0.0148240
910.550	0.0148000
910.628	0.0149930
910.706	0.0150195
910.785	0.0149934
910.863	0.0151298
910.941	0.0148294
911.019	0.0147872
911.097	0.0149039
911.175	0.0149443
911.253	0.0148538
911.331	0.0149249
911.410	0.0150294
911.488	0.0148260
911.566	0.0149090
911.644	0.0150243
911.722	0.0149561
911.800	0.0147756
911.878	0.0149796
911.956	0.0150157
912.035	0.0148676
912.113	0.0148786
912.191	0.0149995
912.269	0.0148899
912.347	0.0148047
912.425	0.0148408
912.503	0.0148306
912.581	0.0149310
912.660	0.0149062
912.738	0.0148489
912.816	0.0147921
912.894	0.0148462
912.972	0.0148435
913.050	0.0148660
913.128	0.0149288
913.206	0.0146854
913.285	0.0148807
913.363	0.0148701
913.441	0.0148547
913.519	0.0149507
913.597	0.0148595
913.675	0.0148505
913.753	0.0147871
913.831	0.0147582
913.910	0.0147823
913.988	0.0147808
914.066	0.0148180
914.144	0.0148454
914.222	0.0148919
914.300	0.0148129
914.378	0.0147677
914.456	0.0148417
914.535	0.0148234
914.613	0.0148100
914.691	0.0149125
914.769	0.0148715
914.847	0.0149667
914.925	0.0148338
915.003	0.0147991
915.081	0.0148359
915.160	0.0149056
915.238	0.0150169
915.316	0.0150410
915.394	0.0150269
915.472	0.0151091
915.550	0.0149387
915.628	0.0149335
915.706	0.0148975
915.785	0.0150465
915.863	0.0150370
915.941	0.0147959
916.019	0.0149003
916.097	0.0150101
916.175	0.0149073
916.253	0.0148553
916.331	0.0149387
916.410	0.0149460
916.488	0.0148919
916.566	0.0149133
916.644	0.0149883
916.722	0.0149576
916.800	0.0148265
916.878	0.0148513
916.956	0.0148294
917.035	0.0148193
917.113	0.0147552
917.191	0.0149271
917.269	0.0148140
917.347	0.0147506
917.425	0.0147996
917.503	0.0148538
917.581	0.0149558
917.660	0.0148060
917.738	0.0148187
917.816	0.0148878
917.894	0.0149438
917.972	0.0148541
918.050	0.0147657
918.128	0.0148907
918.206	0.0150176
918.285	0.0149045
918.363	0.0148299
918.441	0.0148854
918.519	0.0148560
918.597	0.0149902
918.675	0.0148927
918.753	0.0147287
918.831	0.0148120
918.910	0.0147285
918.988	0.0148297
919.066	0.0148413
919.144	0.0147863
919.222	0.0148553
919.300	0.0148586
919.378	0.0147565
919.456	0.0148130
919.535	0.0147104
919.613	0.0147024
919.691	0.0147724
919.769	0.0147937
919.847	0.0146686
919.925	0.0145893
920.003	0.0146575
920.081	0.0148153
920.160	0.0148453
920.238	0.0147098
920.316	0.0149033
920.394	0.0148272
920.472	0.0147096
920.550	0.0146276
920.628	0.0148517
920.706	0.0147830
920.785	0.0147009
920.863	0.0148060
920.941	0.0148380
921.019	0.0148176
921.097	0.0146656
921.175	0.0146001
921.253	0.0146450
921.331	0.0147601
921.410	0.0146680
921.488	0.0145683
921.566	0.0147436
921.644	0.0146902
921.722	0.0145998
921.800	0.0145815
921.878	0.0145798
921.956	0.0146970
922.035	0.0146040
922.113	0.0147291
922.191	0.0148026
922.269	0.0147905
922.347	0.0147802
922.425	0.0147458
922.503	0.0146653
922.581	0.0147319
922.660	0.0147587
922.738	0.0147574
922.816	0.0148300
922.894	0.0147368
922.972	0.0146859
923.050	0.0147598
923.128	0.0147518
923.206	0.0149185
923.285	0.0147927
923.363	0.0149864
923.441	0.0149139
923.519	0.0148112
923.597	0.0147729
923.675	0.0146957
923.753	0.0147469
923.831	0.0148128
923.910	0.0148158
923.988	0.0147267
924.066	0.0148356
924.144	0.0147258
924.222	0.0147883
924.300	0.0147395
924.378	0.0146825
924.456	0.0148312
924.535	0.0148811
924.613	0.0148914
924.691	0.0149205
924.769	0.0147494
924.847	0.0148137
924.925	0.0149008
925.003	0.0149117
925.081	0.0147935
925.160	0.0149143
925.238	0.0149700
925.316	0.0147917
925.394	0.0148663
925.472	0.0148557
925.550	0.0149148
925.628	0.0147959
925.706	0.0150262
925.785	0.0149798
925.863	0.0149122
925.941	0.0148989
926.019	0.0148371
926.097	0.0147375
926.175	0.0148688
926.253	0.0148932
926.331	0.0147489
926.410	0.0148293
926.488	0.0148317
926.566	0.0148603
926.644	0.0147285
926.722	0.0147208
926.800	0.0148864
926.878	0.0148766
926.956	0.0149012
927.035	0.0148326
927.113	0.0147775
927.191	0.0146638
927.269	0.0148598
927.347	0.0147888
927.425	0.0147138
927.503	0.0148267
927.581	0.0148912
927.660	0.0146415
927.738	0.0147541
927.816	0.0147278
927.894	0.0149107
927.972	0.0148784
928.050	0.0148624
928.128	0.0148727
928.206	0.0146468
928.285	0.0148012
928.363	0.0148718
928.441	0.0148797
928.519	0.0148727
928.597	0.0147942
928.675	0.0148106
928.753	0.0149481
928.831	0.0148782
928.910	0.0149625
928.988	0.0148141
929.066	0.0147308
929.144	0.0147671
929.222	0.0149080
929.300	0.0147280
929.378	0.0148130
929.456	0.0148910
929.535	0.0148324
929.613	0.0147998
929.691	0.0147523
929.769	0.0148093
929.847	0.0149361
929.925	0.0148248
930.003	0.0147436
930.081	0.0147999
930.160	0.0147684
930.238	0.0149967
930.316	0.0147215
930.394	0.0146796
930.472	0.0147902
930.550	0.0148534
930.628	0.0149647
930.706	0.0149075
930.785	0.0147018
930.863	0.0149219
930.941	0.0149064
931.019	0.0148251
931.097	0.0149199
931.175	0.0148027
931.253	0.0148059
931.331	0.0147978
931.410	0.0147147
931.488	0.0148038
931.566	0.0147880
931.644	0.0147844
931.722	0.0148544
931.800	0.0147485
931.878	0.0148816
931.956	0.0148026
932.035	0.0147464
932.113	0.0148299
932.191	0.0147083
932.269	0.0147337
932.347	0.0148410
932.425	0.0148682
932.503	0.0149192
932.581	0.0147765
932.660	0.0148424
932.738	0.0149713
932.816	0.0149663
932.894	0.0149326
932.972	0.0148294
933.050	0.0146884
933.128	0.0147826
933.206	0.0148033
933.285	0.0148390
933.363	0.0147832
933.441	0.0148549
933.519	0.0146719
933.597	0.0147631
933.675	0.0148981
933.753	0.0148485
933.831	0.0146454
933.910	0.0147158
933.988	0.0147394
934.066	0.0148360
934.144	0.0147186
934.222	0.0148364
934.300	0.0148603
934.378	0.0146685
934.456	0.0148467
934.535	0.0147151
934.613	0.0148520
934.691	0.0147871
934.769	0.0148083
934.847	0.0148217
934.925	0.0148083
935.003	0.0148215
935.081	0.0149980
935.160	0.0148363
935.238	0.0148586
935.316	0.0147649
935.394	0.0148589
935.472	0.0147002
935.550	0.0147559
935.628	0.0148663
935.706	0.0148058
935.785	0.0146992
935.863	0.0148190
935.941	0.0148169
936.019	0.0148363
936.097	0.0148436
936.175	0.0146957
936.253	0.0147115
936.331	0.0146873
936.410	0.0148685
936.488	0.0148082
936.566	0.0147625
936.644	0.0148133
936.722	0.0147414
936.800	0.0146972
936.878	0.0148284
936.956	0.0146751
937.035	0.0147793
937.113	0.0147565
937.191	0.0146648
937.269	0.0148095
937.347	0.0147459
937.425	0.0148207
937.503	0.0147730
937.581	0.0146447
937.660	0.0146684
937.738	0.0147310
937.816	0.0147821
937.894	0.0147126
937.972	0.0147423
938.050	0.0147475
938.128	0.0148116
938.206	0.0147708
938.285	0.0148254
938.363	0.0148474
938.441	0.0146957
938.519	0.0147153
938.597	0.0148977
938.675	0.0146663
938.753	0.0147626
938.831	0.0147820
938.910	0.0146908
938.988	0.0147083
939.066	0.0148138
939.144	0.0147337
939.222	0.0147616
939.300	0.0148196
939.378	0.0147704
939.456	0.0148548
939.535	0.0147763
939.613	0.0148754
939.691	0.0147576
939.769	0.0149333
939.847	0.0149288
939.925	0.0148256
940.003	0.0148457
940.081	0.0149250
940.160	0.0149233
940.238	0.0148527
940.316	0.0148591
940.394	0.0150880
940.472	0.0148451
940.550	0.0148701
940.628	0.0149079
940.706	0.0148934
940.785	0.0147791
940.863	0.0148241
940.941	0.0149259
941.019	0.0150121
941.097	0.0149248
941.175	0.0148529
941.253	0.0148966
941.331	0.0149372
941.410	0.0148414
941.488	0.0148097
941.566	0.0148349
941.644	0.0149043
941.722	0.0147311
941.800	0.0147730
941.878	0.0147686
941.956	0.0146183
942.035	0.0147813
942.113	0.0147823
942.191	0.0147119
942.269	0.0146563
942.347	0.0147616
942.425	0.0149493
942.503	0.0147715
942.581	0.0147693
942.660	0.0148005
942.738	0.0149213
942.816	0.0148306
942.894	0.0147558
942.972	0.0146573
943.050	0.0147083
943.128	0.0149421
943.206	0.0147965
943.285	0.0148130
943.363	0.0148379
943.441	0.0147527
943.519	0.0148401
943.597	0.0147938
943.675	0.0147438
943.753	0.0147689
943.831	0.0147403
943.910	0.0150155
943.988	0.0147692
944.066	0.0147844
944.144	0.0148624
944.222	0.0148578
944.300	0.0147977
944.378	0.0149262
944.456	0.0147958
944.535	0.0150217
944.613	0.0148405
944.691	0.0149053
944.769	0.0147851
944.847	0.0147509
944.925	0.0149642
945.003	0.0149537
945.081	0.0149893
945.160	0.0148750
945.238	0.0148779
945.316	0.0148409
945.394	0.0149581
945.472	0.0149902
945.550	0.0148279
945.628	0.0149165
945.706	0.0149717
945.785	0.0148170
945.863	0.0148962
945.941	0.0150319
946.019	0.0146777
946.097	0.0147338
946.175	0.0148161
946.253	0.0148734
946.331	0.0149069
946.410	0.0148177
946.488	0.0147562
946.566	0.0148914
946.644	0.0147909
946.722	0.0149113
946.800	0.0149539
946.878	0.0149427
946.956	0.0149618
947.035	0.0149879
947.113	0.0150344
947.191	0.0149717
947.269	0.0148409
947.347	0.0148531
947.425	0.0148771
947.503	0.0149822
947.581	0.0150837
947.660	0.0150597
947.738	0.0149392
947.816	0.0149082
947.894	0.0150207
947.972	0.0150780
948.050	0.0149689
948.128	0.0148674
948.206	0.0148431
948.285	0.0148400
948.363	0.0149420
948.441	0.0148419
948.519	0.0148828
948.597	0.0147508
948.675	0.0148825
948.753	0.0148391
948.831	0.0148605
948.910	0.0147377
948.988	0.0147758
949.066	0.0149571
949.144	0.0148117
949.222	0.0147088
949.300	0.0147824
949.378	0.0148286
949.456	0.0147718
949.535	0.0147961
949.613	0.0146954
949.691	0.0146760
949.769	0.0146291
949.847	0.0147338
949.925	0.0148476
950.003	0.0148203
950.081	0.0147395
950.160	0.0148065
950.238	0.0147485
950.316	0.0147865
950.394	0.0148492
950.472	0.0147328
950.550	0.0147790
950.628	0.0147076
950.706	0.0147931
950.785	0.0148573
950.863	0.0146717
950.941	0.0147163
951.019	0.0147809
951.097	0.0147360
951.175	0.0148336
951.253	0.0147755
951.331	0.0148605
951.410	0.0147206
951.488	0.0148513
951.566	0.0147549
951.644	0.0147067
951.722	0.0147569
951.800	0.0147615
951.878	0.0145276
951.956	0.0147906
952.035	0.0147041
952.113	0.0146942
952.191	0.0146996
952.269	0.0147504
952.347	0.0147315
952.425	0.0147706
952.503	0.0148441
952.581	0.0146600
952.660	0.0145364
952.738	0.0147267
952.816	0.0146132
952.894	0.0145982
952.972	0.0145701
953.050	0.0147411
953.128	0.0146655
953.206	0.0145619
953.285	0.0147514
953.363	0.0147062
953.441	0.0145661
953.519	0.0145795
953.597	0.0147055
953.675	0.0147134
953.753	0.0146367
953.831	0.0147161
953.910	0.0146552
953.988	0.0146677
954.066	0.0147667
954.144	0.0146680
954.222	0.0147891
954.300	0.0147021
954.378	0.0147643
954.456	0.0148058
954.535	0.0147416
954.613	0.0147741
954.691	0.0147187
954.769	0.0147157
954.847	0.0146880
954.925	0.0149060
955.003	0.0148885
955.081	0.0146685
955.160	0.0147272
955.238	0.0147926
955.316	0.0148275
955.394	0.0149199
955.472	0.0147701
955.550	0.0147652
955.628	0.0148185
955.706	0.0149091
955.785	0.0147567
955.863	0.0147453
955.941	0.0148022
956.019	0.0149840
956.097	0.0149511
956.175	0.0147208
956.253	0.0148414
956.331	0.0148174
956.410	0.0149645
956.488	0.0147858
956.566	0.0147993
956.644	0.0148431
956.722	0.0148974
956.800	0.0148653
956.878	0.0149125
956.956	0.0149359
957.035	0.0149569
957.113	0.0149261
957.191	0.0149626
957.269	0.0149450
957.347	0.0148801
957.425	0.0148193
957.503	0.0148212
957.581	0.0148325
957.660	0.0149150
957.738	0.0149408
957.816	0.0148574
957.894	0.0148595
957.972	0.0149253
958.050	0.0148464
958.128	0.0147588
958.206	0.0148569
958.285	0.0146918
958.363	0.0148310
958.441	0.0148025
958.519	0.0147112
958.597	0.0148240
958.675	0.0147806
958.753	0.0148409
958.831	0.0146890
958.910	0.0146564
958.988	0.0148174
959.066	0.0147296
959.144	0.0148803
959.222	0.0147316
959.300	0.0147064
959.378	0.0147809
959.456	0.0148081
959.535	0.0147853
959.613	0.0148580
959.691	0.0147737
959.769	0.0148431
959.847	0.0148930
959.925	0.0147267
960.003	0.0149268
960.081	0.0148020
960.160	0.0148393
960.238	0.0148587
960.316	0.0147292
960.394	0.0148174
960.472	0.0149206
960.550	0.0148121
960.628	0.0146684
960.706	0.0148336
960.785	0.0147986
960.863	0.0148035
960.941	0.0148418
961.019	0.0149384
961.097	0.0148679
961.175	0.0148109
961.253	0.0147907
961.331	0.0147650
961.410	0.0148974
961.488	0.0149067
961.566	0.0149419
961.644	0.0148016
961.722	0.0147980
961.800	0.0149920
961.878	0.0148789
961.956	0.0149673
962.035	0.0149161
962.113	0.0149380
962.191	0.0148631
962.269	0.0148852
962.347	0.0149099
962.425	0.0150101
962.503	0.0148663
962.581	0.0148191
962.660	0.0148433
962.738	0.0149102
962.816	0.0150555
962.894	0.0148022
962.972	0.0148259
963.050	0.0148824
963.128	0.0147201
963.206	0.0149371
963.285	0.0148708
963.363	0.0148698
963.441	0.0147819
963.519	0.0148272
963.597	0.0149015
963.675	0.0149187
963.753	0.0148649
963.831	0.0148412
963.910	0.0148479
963.988	0.0147723
964.066	0.0147330
964.144	0.0149046
964.222	0.0149818
964.300	0.0147936
964.378	0.0147057
964.456	0.0147360
964.535	0.0147939
964.613	0.0148611
964.691	0.0147553
964.769	0.0148905
964.847	0.0148225
964.925	0.0147413
965.003	0.0148457
965.081	0.0147729
965.160	0.0146344
965.238	0.0146904
965.316	0.0147590
965.394	0.0146883
965.472	0.0146968
965.550	0.0147268
965.628	0.0147849
965.706	0.0147280
965.785	0.0148122
965.863	0.0147680
965.941	0.0147554
966.019	0.0147887
966.097	0.0147109
966.175	0.0148588
966.253	0.0148072
966.331	0.0149010
966.410	0.0149424
966.488	0.0148746
966.566	0.0148035
966.644	0.0148426
966.722	0.0149156
966.800	0.0147224
966.878	0.0149900
966.956	0.0148358
967.035	0.0150589
967.113	0.0149601
967.191	0.0148965
967.269	0.0149014
967.347	0.0148357
967.425	0.0148574
967.503	0.0149938
967.581	0.0148853
967.660	0.0148759
967.738	0.0149963
967.816	0.0148016
967.894	0.0147495
967.972	0.0148511
968.050	0.0149920
968.128	0.0151299
968.206	0.0150311
968.285	0.0147956
968.363	0.0149166
968.441	0.0149047
968.519	0.0148877
968.597	0.0148881
968.675	0.0149200
968.753	0.0150068
968.831	0.0151221
968.910	0.0148460
968.988	0.0149496
969.066	0.0149027
969.144	0.0148777
969.222	0.0149540
969.300	0.0150592
969.378	0.0150128
969.456	0.0149440
969.535	0.0151588
969.613	0.0150770
969.691	0.0151054
969.769	0.0150207
969.847	0.0150529
969.925	0.0149579
970.003	0.0149844
970.081	0.0150294
970.160	0.0150043
970.238	0.0148905
970.316	0.0149242
970.394	0.0149757
970.472	0.0149426
970.550	0.0149585
970.628	0.0148289
970.706	0.0148877
970.785	0.0148117
970.863	0.0148036
970.941	0.0147087
971.019	0.0147833
971.097	0.0148797
971.175	0.0149947
971.253	0.0148536
971.331	0.0148663
971.410	0.0148265
971.488	0.0148000
971.566	0.0149545
971.644	0.0148800
971.722	0.0147484
971.800	0.0148118
971.878	0.0149482
971.956	0.0149111
972.035	0.0148372
972.113	0.0149100
972.191	0.0148696
972.269	0.0147797
972.347	0.0148505
972.425	0.0149034
972.503	0.0150680
972.581	0.0147338
972.660	0.0147641
972.738	0.0148973
972.816	0.0148109
972.894	0.0148614
972.972	0.0147587
973.050	0.0147236
973.128	0.0149221
973.206	0.0147218
973.285	0.0148581
973.363	0.0148069
973.441	0.0148658
973.519	0.0148003
973.597	0.0146815
973.675	0.0149046
973.753	0.0148690
973.831	0.0147527
973.910	0.0146353
973.988	0.0149745
974.066	0.0147597
974.144	0.0148886
974.222	0.0147495
974.300	0.0146515
974.378	0.0147856
974.456	0.0147262
974.535	0.0148067
974.613	0.0147813
974.691	0.0147596
974.769	0.0147438
974.847	0.0146139
974.925	0.0147366
975.003	0.0147021
975.081	0.0147324
975.160	0.0148381
975.238	0.0147484
975.316	0.0147096
975.394	0.0147224
975.472	0.0146558
975.550	0.0146963
975.628	0.0147457
975.706	0.0147486
975.785	0.0147616
975.863	0.0148295
975.941	0.0147092
976.019	0.0146793
976.097	0.0147018
976.175	0.0147934
976.253	0.0147797
976.331	0.0146218
976.410	0.0148956
976.488	0.0148462
976.566	0.0147238
976.644	0.0147578
976.722	0.0148322
976.800	0.0148273
976.878	0.0148940
976.956	0.0147756
977.035	0.0148483
977.113	0.0147932
977.191	0.0148636
977.269	0.0150375
977.347	0.0147972
977.425	0.0147234
977.503	0.0147194
977.581	0.0149294
977.660	0.0148067
977.738	0.0148180
977.816	0.0147833
977.894	0.0147762
977.972	0.0147073
978.050	0.0147369
978.128	0.0147493
978.206	0.0149843
978.285	0.0148103
978.363	0.0147890
978.441	0.0148496
978.519	0.0147867
978.597	0.0148157
978.675	0.0149255
978.753	0.0147643
978.831	0.0148028
978.910	0.0147760
978.988	0.0147591
979.066	0.0147787
979.144	0.0148540
979.222	0.0148184
979.300	0.0148167
979.378	0.0147307
979.456	0.0149320
979.535	0.0148714
979.613	0.0148258
979.691	0.0146357
979.769	0.0147761
979.847	0.0148161
979.925	0.0146619
