05/03/2022	20:48:28	Ver.	4.1	UNKNOWN
Optical Delay	660.003261	Delta X		0.078125	Sweeps	1	Scan Rate	0/0
Coordinates	Axis 1	NaN	Axis 2	NaN	Axis 3	NaN	Axis 4	NaN	Axis 5	NaN	Axis 6	0.000000
TX Power	0.000000	RX Power	0.000000

660.003	0.0142748
660.081	0.0140965
660.160	0.0142967
660.238	0.0142550
660.316	0.0143181
660.394	0.0143309
660.472	0.0143074
660.550	0.0143569
660.628	0.0142339
660.706	0.0143315
660.785	0.0144238
660.863	0.0143578
660.941	0.0142707
661.019	0.0143175
661.097	0.0144117
661.175	0.0143573
661.253	0.0143916
661.331	0.0143359
661.410	0.0142657
661.488	0.0143148
661.566	0.0144620
661.644	0.0143932
661.722	0.0143867
661.800	0.0142385
661.878	0.0143681
661.956	0.0144198
662.035	0.0143817
662.113	0.0143093
662.191	0.0142469
662.269	0.0143876
662.347	0.0142902
662.425	0.0142716
662.503	0.0143878
662.581	0.0142633
662.660	0.0142478
662.738	0.0141602
662.816	0.0142235
662.894	0.0143392
662.972	0.0143119
663.050	0.0142612
663.128	0.0142313
663.206	0.0143320
663.285	0.0141877
663.363	0.0141455
663.441	0.0142284
663.519	0.0143452
663.597	0.0142183
663.675	0.0142504
663.753	0.0142419
663.831	0.0142930
663.910	0.0141608
663.988	0.0141324
664.066	0.0141856
664.144	0.0141715
664.222	0.0143683
664.300	0.0141165
664.378	0.0142419
664.456	0.0142303
664.535	0.0143094
664.613	0.0141836
664.691	0.0143836
664.769	0.0143068
664.847	0.0142718
664.925	0.0142722
665.003	0.0143256
665.081	0.0143555
665.160	0.0142582
665.238	0.0141296
665.316	0.0143767
665.394	0.0143202
665.472	0.0142617
665.550	0.0142886
665.628	0.0141913
665.706	0.0142049
665.785	0.0143971
665.863	0.0143275
665.941	0.0142887
666.019	0.0142300
666.097	0.0143894
666.175	0.0143198
666.253	0.0142284
666.331	0.0142685
666.410	0.0141386
666.488	0.0142356
666.566	0.0142358
666.644	0.0142002
666.722	0.0143060
666.800	0.0142047
666.878	0.0142173
666.956	0.0141428
667.035	0.0141924
667.113	0.0141489
667.191	0.0142493
667.269	0.0141581
667.347	0.0140810
667.425	0.0142448
667.503	0.0143167
667.581	0.0142817
667.660	0.0142281
667.738	0.0142645
667.816	0.0142918
667.894	0.0143194
667.972	0.0142961
668.050	0.0142474
668.128	0.0140948
668.206	0.0142317
668.285	0.0143822
668.363	0.0142355
668.441	0.0142742
668.519	0.0142803
668.597	0.0143098
668.675	0.0142960
668.753	0.0143066
668.831	0.0141679
668.910	0.0143159
668.988	0.0141704
669.066	0.0143388
669.144	0.0142656
669.222	0.0142925
669.300	0.0143246
669.378	0.0142607
669.456	0.0142873
669.535	0.0142566
669.613	0.0142004
669.691	0.0141759
669.769	0.0143189
669.847	0.0141642
669.925	0.0142636
670.003	0.0142173
670.081	0.0141638
670.160	0.0142708
670.238	0.0141569
670.316	0.0140655
670.394	0.0141801
670.472	0.0141312
670.550	0.0141521
670.628	0.0143372
670.706	0.0141581
670.785	0.0141326
670.863	0.0142307
670.941	0.0142907
671.019	0.0143484
671.097	0.0141737
671.175	0.0141881
671.253	0.0141927
671.331	0.0141721
671.410	0.0141383
671.488	0.0143399
671.566	0.0142350
671.644	0.0142395
671.722	0.0142319
671.800	0.0142086
671.878	0.0143075
671.956	0.0142200
672.035	0.0142065
672.113	0.0142279
672.191	0.0142307
672.269	0.0142551
672.347	0.0142310
672.425	0.0142628
672.503	0.0141132
672.581	0.0143366
672.660	0.0143366
672.738	0.0142160
672.816	0.0142695
672.894	0.0142809
672.972	0.0142496
673.050	0.0142086
673.128	0.0142850
673.206	0.0142770
673.285	0.0141314
673.363	0.0143559
673.441	0.0143262
673.519	0.0142039
673.597	0.0143417
673.675	0.0143181
673.753	0.0142369
673.831	0.0144252
673.910	0.0142416
673.988	0.0143925
674.066	0.0143766
674.144	0.0142035
674.222	0.0144749
674.300	0.0143830
674.378	0.0143175
674.456	0.0142777
674.535	0.0144248
674.613	0.0143495
674.691	0.0142793
674.769	0.0143842
674.847	0.0143862
674.925	0.0142940
675.003	0.0143126
675.081	0.0142047
675.160	0.0142563
675.238	0.0143806
675.316	0.0143742
675.394	0.0141998
675.472	0.0142808
675.550	0.0143646
675.628	0.0141853
675.706	0.0142617
675.785	0.0144640
675.863	0.0144213
675.941	0.0142449
676.019	0.0143551
676.097	0.0144077
676.175	0.0142793
676.253	0.0142828
676.331	0.0143663
676.410	0.0143758
676.488	0.0143493
676.566	0.0144623
676.644	0.0143968
676.722	0.0144690
676.800	0.0143507
676.878	0.0143699
676.956	0.0144279
677.035	0.0145596
677.113	0.0142275
677.191	0.0143124
677.269	0.0142399
677.347	0.0143301
677.425	0.0144642
677.503	0.0143139
677.581	0.0143564
677.660	0.0143916
677.738	0.0143462
677.816	0.0143471
677.894	0.0142754
677.972	0.0142020
678.050	0.0143452
678.128	0.0141882
678.206	0.0142297
678.285	0.0141467
678.363	0.0142965
678.441	0.0142596
678.519	0.0142060
678.597	0.0141908
678.675	0.0142629
678.753	0.0143007
678.831	0.0142925
678.910	0.0143082
678.988	0.0142606
679.066	0.0142616
679.144	0.0141182
679.222	0.0141964
679.300	0.0142688
679.378	0.0140930
679.456	0.0141275
679.535	0.0142274
679.613	0.0142460
679.691	0.0141531
679.769	0.0141948
679.847	0.0143185
679.925	0.0141593
680.003	0.0140961
680.081	0.0142699
680.160	0.0141688
680.238	0.0143045
680.316	0.0142272
680.394	0.0143228
680.472	0.0142411
680.550	0.0143716
680.628	0.0142484
680.706	0.0144030
680.785	0.0143344
680.863	0.0142828
680.941	0.0142525
681.019	0.0143669
681.097	0.0144273
681.175	0.0143592
681.253	0.0143318
681.331	0.0143272
681.410	0.0143695
681.488	0.0142405
681.566	0.0142793
681.644	0.0143378
681.722	0.0143414
681.800	0.0143803
681.878	0.0143049
681.956	0.0142934
682.035	0.0142995
682.113	0.0143543
682.191	0.0142274
682.269	0.0142954
682.347	0.0142894
682.425	0.0142537
682.503	0.0143559
682.581	0.0143444
682.660	0.0140659
682.738	0.0142766
682.816	0.0143114
682.894	0.0142760
682.972	0.0142135
683.050	0.0142719
683.128	0.0141071
683.206	0.0143819
683.285	0.0142474
683.363	0.0143069
683.441	0.0143636
683.519	0.0143111
683.597	0.0142420
683.675	0.0143684
683.753	0.0144151
683.831	0.0141096
683.910	0.0142102
683.988	0.0143319
684.066	0.0142696
684.144	0.0140368
684.222	0.0142269
684.300	0.0142488
684.378	0.0142744
684.456	0.0141414
684.535	0.0140878
684.613	0.0142487
684.691	0.0140841
684.769	0.0139689
684.847	0.0141269
684.925	0.0140995
685.003	0.0141452
685.081	0.0140307
685.160	0.0141142
685.238	0.0141843
685.316	0.0142300
685.394	0.0141083
685.472	0.0142140
685.550	0.0142005
685.628	0.0141779
685.706	0.0143029
685.785	0.0142253
685.863	0.0141919
685.941	0.0143547
686.019	0.0142453
686.097	0.0143298
686.175	0.0141292
686.253	0.0142999
686.331	0.0142165
686.410	0.0141986
686.488	0.0142559
686.566	0.0142477
686.644	0.0143806
686.722	0.0140708
686.800	0.0142987
686.878	0.0141586
686.956	0.0141268
687.035	0.0142470
687.113	0.0141479
687.191	0.0141155
687.269	0.0141324
687.347	0.0143118
687.425	0.0144422
687.503	0.0142640
687.581	0.0142795
687.660	0.0143078
687.738	0.0143094
687.816	0.0143089
687.894	0.0143900
687.972	0.0142831
688.050	0.0142382
688.128	0.0142765
688.206	0.0142281
688.285	0.0142857
688.363	0.0141943
688.441	0.0142051
688.519	0.0142419
688.597	0.0143162
688.675	0.0141869
688.753	0.0140926
688.831	0.0141962
688.910	0.0141798
688.988	0.0140710
689.066	0.0142692
689.144	0.0141363
689.222	0.0141641
689.300	0.0142037
689.378	0.0141693
689.456	0.0142264
689.535	0.0143578
689.613	0.0141547
689.691	0.0142295
689.769	0.0141515
689.847	0.0141135
689.925	0.0140334
690.003	0.0140948
690.081	0.0141285
690.160	0.0140993
690.238	0.0142354
690.316	0.0141067
690.394	0.0142044
690.472	0.0141067
690.550	0.0142207
690.628	0.0142671
690.706	0.0141679
690.785	0.0142575
690.863	0.0141421
690.941	0.0140884
691.019	0.0142821
691.097	0.0142857
691.175	0.0141424
691.253	0.0142888
691.331	0.0141882
691.410	0.0142097
691.488	0.0141778
691.566	0.0141251
691.644	0.0141908
691.722	0.0141240
691.800	0.0142351
691.878	0.0142475
691.956	0.0142104
692.035	0.0143190
692.113	0.0141826
692.191	0.0142427
692.269	0.0143716
692.347	0.0143143
692.425	0.0142271
692.503	0.0144017
692.581	0.0143462
692.660	0.0141933
692.738	0.0142274
692.816	0.0142951
692.894	0.0142841
692.972	0.0142943
693.050	0.0142388
693.128	0.0142554
693.206	0.0141598
693.285	0.0142278
693.363	0.0141756
693.441	0.0141827
693.519	0.0141784
693.597	0.0142165
693.675	0.0141648
693.753	0.0143118
693.831	0.0142924
693.910	0.0142845
693.988	0.0143929
694.066	0.0142876
694.144	0.0143922
694.222	0.0142739
694.300	0.0142689
694.378	0.0143768
694.456	0.0142320
694.535	0.0144050
694.613	0.0143242
694.691	0.0143174
694.769	0.0143012
694.847	0.0143469
694.925	0.0142837
695.003	0.0144611
695.081	0.0142954
695.160	0.0142272
695.238	0.0143513
695.316	0.0142946
695.394	0.0143924
695.472	0.0143147
695.550	0.0143614
695.628	0.0144010
695.706	0.0143620
695.785	0.0142227
695.863	0.0144489
695.941	0.0145809
696.019	0.0143663
696.097	0.0143971
696.175	0.0143635
696.253	0.0143553
696.331	0.0143794
696.410	0.0143692
696.488	0.0143675
696.566	0.0143594
696.644	0.0143236
696.722	0.0143034
696.800	0.0143147
696.878	0.0143002
696.956	0.0142171
697.035	0.0143510
697.113	0.0143693
697.191	0.0142771
697.269	0.0143269
697.347	0.0143883
697.425	0.0144553
697.503	0.0143925
697.581	0.0144591
697.660	0.0144434
697.738	0.0143929
697.816	0.0142650
697.894	0.0144193
697.972	0.0141689
698.050	0.0143276
698.128	0.0143833
698.206	0.0142960
698.285	0.0143219
698.363	0.0142376
698.441	0.0142697
698.519	0.0143805
698.597	0.0143448
698.675	0.0144188
698.753	0.0144041
698.831	0.0142884
698.910	0.0144545
698.988	0.0143766
699.066	0.0142918
699.144	0.0144046
699.222	0.0144590
699.300	0.0143678
699.378	0.0142728
699.456	0.0143568
699.535	0.0144054
699.613	0.0144231
699.691	0.0145036
699.769	0.0145267
699.847	0.0143523
699.925	0.0142668
700.003	0.0143636
700.081	0.0144402
700.160	0.0143800
700.238	0.0144814
700.316	0.0143555
700.394	0.0144048
700.472	0.0143685
700.550	0.0144917
700.628	0.0144310
700.706	0.0145029
700.785	0.0143877
700.863	0.0144197
700.941	0.0143595
701.019	0.0142868
701.097	0.0143075
701.175	0.0144979
701.253	0.0143867
701.331	0.0142844
701.410	0.0142132
701.488	0.0142269
701.566	0.0144182
701.644	0.0141757
701.722	0.0142333
701.800	0.0143133
701.878	0.0143131
701.956	0.0143501
702.035	0.0142142
702.113	0.0144251
702.191	0.0143526
702.269	0.0144377
702.347	0.0143611
702.425	0.0143236
702.503	0.0142636
702.581	0.0144119
702.660	0.0143430
702.738	0.0143683
702.816	0.0143723
702.894	0.0143560
702.972	0.0143727
703.050	0.0142372
703.128	0.0142329
703.206	0.0142168
703.285	0.0142774
703.363	0.0142226
703.441	0.0143290
703.519	0.0142557
703.597	0.0143264
703.675	0.0143569
703.753	0.0142309
703.831	0.0141029
703.910	0.0141381
703.988	0.0142824
704.066	0.0143389
704.144	0.0143026
704.222	0.0142914
704.300	0.0142818
704.378	0.0142709
704.456	0.0141287
704.535	0.0141897
704.613	0.0142749
704.691	0.0142287
704.769	0.0141885
704.847	0.0141513
704.925	0.0143465
705.003	0.0142291
705.081	0.0143428
705.160	0.0142770
705.238	0.0142651
705.316	0.0143095
705.394	0.0142310
705.472	0.0143108
705.550	0.0142581
705.628	0.0142139
705.706	0.0142256
705.785	0.0141904
705.863	0.0143533
705.941	0.0143223
706.019	0.0142165
706.097	0.0142064
706.175	0.0143568
706.253	0.0141961
706.331	0.0143245
706.410	0.0143832
706.488	0.0143067
706.566	0.0142049
706.644	0.0142920
706.722	0.0143816
706.800	0.0143179
706.878	0.0142307
706.956	0.0142999
707.035	0.0141602
707.113	0.0143013
707.191	0.0141828
707.269	0.0141942
707.347	0.0143349
707.425	0.0142129
707.503	0.0143408
707.581	0.0141783
707.660	0.0141909
707.738	0.0143909
707.816	0.0143422
707.894	0.0142340
707.972	0.0142965
708.050	0.0144506
708.128	0.0142417
708.206	0.0142741
708.285	0.0142705
708.363	0.0143407
708.441	0.0143545
708.519	0.0143209
708.597	0.0142599
708.675	0.0142718
708.753	0.0144369
708.831	0.0141896
708.910	0.0143615
708.988	0.0144568
709.066	0.0142234
709.144	0.0142135
709.222	0.0140421
709.300	0.0141943
709.378	0.0143642
709.456	0.0142067
709.535	0.0142612
709.613	0.0141601
709.691	0.0142493
709.769	0.0142692
709.847	0.0143059
709.925	0.0142241
710.003	0.0144234
710.081	0.0143975
710.160	0.0142740
710.238	0.0142758
710.316	0.0142121
710.394	0.0143726
710.472	0.0143164
710.550	0.0143595
710.628	0.0141251
710.706	0.0142156
710.785	0.0143450
710.863	0.0142869
710.941	0.0143165
711.019	0.0141863
711.097	0.0141940
711.175	0.0143421
711.253	0.0142930
711.331	0.0142017
711.410	0.0140787
711.488	0.0142761
711.566	0.0143563
711.644	0.0142883
711.722	0.0141874
711.800	0.0142086
711.878	0.0143936
711.956	0.0141936
712.035	0.0141565
712.113	0.0142388
712.191	0.0143354
712.269	0.0142094
712.347	0.0141238
712.425	0.0141007
712.503	0.0142205
712.581	0.0141169
712.660	0.0142110
712.738	0.0142989
712.816	0.0143140
712.894	0.0141453
712.972	0.0141616
713.050	0.0143462
713.128	0.0141433
713.206	0.0142277
713.285	0.0143417
713.363	0.0143301
713.441	0.0141869
713.519	0.0142793
713.597	0.0143884
713.675	0.0143149
713.753	0.0143404
713.831	0.0142960
713.910	0.0143336
713.988	0.0143038
714.066	0.0143375
714.144	0.0142785
714.222	0.0142152
714.300	0.0142579
714.378	0.0144698
714.456	0.0143131
714.535	0.0142012
714.613	0.0142904
714.691	0.0142316
714.769	0.0142683
714.847	0.0142892
714.925	0.0142342
715.003	0.0142743
715.081	0.0143010
715.160	0.0142360
715.238	0.0143438
715.316	0.0142502
715.394	0.0142506
715.472	0.0143681
715.550	0.0142340
715.628	0.0142225
715.706	0.0142620
715.785	0.0142818
715.863	0.0142140
715.941	0.0142986
716.019	0.0142310
716.097	0.0142339
716.175	0.0143545
716.253	0.0142519
716.331	0.0143143
716.410	0.0143855
716.488	0.0143621
716.566	0.0143003
716.644	0.0144370
716.722	0.0142959
716.800	0.0143965
716.878	0.0142865
716.956	0.0143713
717.035	0.0142220
717.113	0.0142808
717.191	0.0142566
717.269	0.0142575
717.347	0.0142581
717.425	0.0143360
717.503	0.0142679
717.581	0.0142632
717.660	0.0143146
717.738	0.0143685
717.816	0.0142710
717.894	0.0142810
717.972	0.0143076
718.050	0.0143938
718.128	0.0143366
718.206	0.0144007
718.285	0.0143119
718.363	0.0143919
718.441	0.0144118
718.519	0.0143225
718.597	0.0142347
718.675	0.0141611
718.753	0.0141495
718.831	0.0143698
718.910	0.0143037
718.988	0.0141491
719.066	0.0143343
719.144	0.0143317
719.222	0.0143607
719.300	0.0143199
719.378	0.0143115
719.456	0.0142645
719.535	0.0143646
719.613	0.0144030
719.691	0.0145023
719.769	0.0145773
719.847	0.0143953
719.925	0.0143172
720.003	0.0144287
720.081	0.0144995
720.160	0.0143349
720.238	0.0143244
720.316	0.0145171
720.394	0.0144350
720.472	0.0144759
720.550	0.0144892
720.628	0.0144804
720.706	0.0145176
720.785	0.0144907
720.863	0.0143884
720.941	0.0144337
721.019	0.0144971
721.097	0.0145484
721.175	0.0144221
721.253	0.0144721
721.331	0.0145619
721.410	0.0143895
721.488	0.0144181
721.566	0.0144212
721.644	0.0143470
721.722	0.0143091
721.800	0.0143269
721.878	0.0144186
721.956	0.0142542
722.035	0.0143270
722.113	0.0143896
722.191	0.0144666
722.269	0.0142577
722.347	0.0142769
722.425	0.0143584
722.503	0.0144490
722.581	0.0143651
722.660	0.0144122
722.738	0.0144524
722.816	0.0143506
722.894	0.0142534
722.972	0.0143185
723.050	0.0144347
723.128	0.0143013
723.206	0.0143594
723.285	0.0142563
723.363	0.0145485
723.441	0.0143970
723.519	0.0142462
723.597	0.0142656
723.675	0.0142550
723.753	0.0142941
723.831	0.0143564
723.910	0.0142690
723.988	0.0142043
724.066	0.0141811
724.144	0.0142463
724.222	0.0143925
724.300	0.0142552
724.378	0.0143371
724.456	0.0142000
724.535	0.0142334
724.613	0.0144071
724.691	0.0142232
724.769	0.0142288
724.847	0.0141965
724.925	0.0143338
725.003	0.0143001
725.081	0.0142587
725.160	0.0142261
725.238	0.0141415
725.316	0.0142554
725.394	0.0142016
725.472	0.0141996
725.550	0.0143725
725.628	0.0142359
725.706	0.0142496
725.785	0.0142352
725.863	0.0141312
725.941	0.0143100
726.019	0.0141833
726.097	0.0142154
726.175	0.0143761
726.253	0.0141992
726.331	0.0141853
726.410	0.0143014
726.488	0.0144565
726.566	0.0143449
726.644	0.0143134
726.722	0.0143649
726.800	0.0142944
726.878	0.0143120
726.956	0.0143155
727.035	0.0142400
727.113	0.0143231
727.191	0.0144025
727.269	0.0144901
727.347	0.0144275
727.425	0.0144632
727.503	0.0143982
727.581	0.0142513
727.660	0.0144179
727.738	0.0145590
727.816	0.0145609
727.894	0.0142110
727.972	0.0143954
728.050	0.0142924
728.128	0.0144066
728.206	0.0143348
728.285	0.0143551
728.363	0.0143735
728.441	0.0143146
728.519	0.0143728
728.597	0.0143736
728.675	0.0143346
728.753	0.0141948
728.831	0.0143826
728.910	0.0144035
728.988	0.0143779
729.066	0.0142403
729.144	0.0142251
729.222	0.0143489
729.300	0.0142488
729.378	0.0144054
729.456	0.0142580
729.535	0.0142429
729.613	0.0141912
729.691	0.0142303
729.769	0.0141913
729.847	0.0143250
729.925	0.0143511
730.003	0.0142656
730.081	0.0143157
730.160	0.0143076
730.238	0.0141834
730.316	0.0141156
730.394	0.0141560
730.472	0.0143161
730.550	0.0142046
730.628	0.0143498
730.706	0.0143410
730.785	0.0139658
730.863	0.0143073
730.941	0.0143661
731.019	0.0143229
731.097	0.0141733
731.175	0.0142535
731.253	0.0142760
731.331	0.0143211
731.410	0.0140395
731.488	0.0142517
731.566	0.0142679
731.644	0.0144051
731.722	0.0143806
731.800	0.0142117
731.878	0.0142585
731.956	0.0144041
732.035	0.0142681
732.113	0.0142729
732.191	0.0143620
732.269	0.0141656
732.347	0.0142241
732.425	0.0141454
732.503	0.0143106
732.581	0.0144455
732.660	0.0141795
732.738	0.0142123
732.816	0.0140948
732.894	0.0141754
732.972	0.0142303
733.050	0.0142567
733.128	0.0142676
733.206	0.0141353
733.285	0.0140484
733.363	0.0142703
733.441	0.0141852
733.519	0.0143003
733.597	0.0141749
733.675	0.0143211
733.753	0.0141909
733.831	0.0142733
733.910	0.0144398
733.988	0.0143064
734.066	0.0141506
734.144	0.0142397
734.222	0.0142120
734.300	0.0143187
734.378	0.0141888
734.456	0.0142663
734.535	0.0144059
734.613	0.0142893
734.691	0.0142808
734.769	0.0142220
734.847	0.0142668
734.925	0.0143595
735.003	0.0143299
735.081	0.0142970
735.160	0.0142226
735.238	0.0144533
735.316	0.0142604
735.394	0.0141495
735.472	0.0142704
735.550	0.0143212
735.628	0.0143164
735.706	0.0142169
735.785	0.0141532
735.863	0.0141784
735.941	0.0143463
736.019	0.0143696
736.097	0.0142428
736.175	0.0141232
736.253	0.0142857
736.331	0.0142883
736.410	0.0143013
736.488	0.0142535
736.566	0.0143711
736.644	0.0143423
736.722	0.0143449
736.800	0.0142731
736.878	0.0142812
736.956	0.0144399
737.035	0.0144854
737.113	0.0142058
737.191	0.0143269
737.269	0.0142387
737.347	0.0142922
737.425	0.0143594
737.503	0.0143374
737.581	0.0143465
737.660	0.0142686
737.738	0.0141875
737.816	0.0142687
737.894	0.0143111
737.972	0.0142712
738.050	0.0143295
738.128	0.0143732
738.206	0.0142287
738.285	0.0140363
738.363	0.0142313
738.441	0.0142934
738.519	0.0141795
738.597	0.0143514
738.675	0.0143126
738.753	0.0143288
738.831	0.0141061
738.910	0.0141702
738.988	0.0143752
739.066	0.0142597
739.144	0.0142664
739.222	0.0142171
739.300	0.0140832
739.378	0.0142596
739.456	0.0142931
739.535	0.0142702
739.613	0.0143319
739.691	0.0142956
739.769	0.0143704
739.847	0.0142327
739.925	0.0141763
740.003	0.0143727
740.081	0.0143449
740.160	0.0143935
740.238	0.0143115
740.316	0.0142109
740.394	0.0142102
740.472	0.0144822
740.550	0.0143867
740.628	0.0141144
740.706	0.0143491
740.785	0.0142769
740.863	0.0142603
740.941	0.0143475
741.019	0.0145101
741.097	0.0143890
741.175	0.0142332
741.253	0.0144116
741.331	0.0143407
741.410	0.0143111
741.488	0.0143462
741.566	0.0143774
741.644	0.0144101
741.722	0.0143552
741.800	0.0142883
741.878	0.0142935
741.956	0.0143538
742.035	0.0144234
742.113	0.0141730
742.191	0.0144367
742.269	0.0143781
742.347	0.0145394
742.425	0.0142944
742.503	0.0142909
742.581	0.0143612
742.660	0.0142788
742.738	0.0142336
742.816	0.0142321
742.894	0.0142915
742.972	0.0141924
743.050	0.0143821
743.128	0.0143200
743.206	0.0143217
743.285	0.0144225
743.363	0.0142165
743.441	0.0142378
743.519	0.0142706
743.597	0.0143643
743.675	0.0142731
743.753	0.0143068
743.831	0.0142947
743.910	0.0142290
743.988	0.0143277
744.066	0.0143091
744.144	0.0142290
744.222	0.0143476
744.300	0.0142930
744.378	0.0142110
744.456	0.0142132
744.535	0.0142701
744.613	0.0142712
744.691	0.0141630
744.769	0.0141647
744.847	0.0142740
744.925	0.0141187
745.003	0.0141061
745.081	0.0142600
745.160	0.0141160
745.238	0.0143372
745.316	0.0143118
745.394	0.0139906
745.472	0.0141499
745.550	0.0140675
745.628	0.0141735
745.706	0.0141308
745.785	0.0141739
745.863	0.0141898
745.941	0.0142787
746.019	0.0141264
746.097	0.0141439
746.175	0.0140599
746.253	0.0142277
746.331	0.0142249
746.410	0.0140959
746.488	0.0141399
746.566	0.0141713
746.644	0.0140359
746.722	0.0141556
746.800	0.0140979
746.878	0.0142503
746.956	0.0142642
747.035	0.0142313
747.113	0.0141960
747.191	0.0140273
747.269	0.0141056
747.347	0.0141770
747.425	0.0142108
747.503	0.0142323
747.581	0.0142604
747.660	0.0142893
747.738	0.0141342
747.816	0.0142078
747.894	0.0141130
747.972	0.0141830
748.050	0.0142873
748.128	0.0143198
748.206	0.0143533
748.285	0.0142357
748.363	0.0142864
748.441	0.0142937
748.519	0.0141974
748.597	0.0142117
748.675	0.0144251
748.753	0.0144577
748.831	0.0144441
748.910	0.0142673
748.988	0.0142909
749.066	0.0143922
749.144	0.0144758
749.222	0.0143575
749.300	0.0143682
749.378	0.0143455
749.456	0.0142724
749.535	0.0143896
749.613	0.0143463
749.691	0.0144435
749.769	0.0143777
749.847	0.0141977
749.925	0.0144181
750.003	0.0142995
750.081	0.0143523
750.160	0.0143661
750.238	0.0142619
750.316	0.0142751
750.394	0.0142789
750.472	0.0142441
750.550	0.0142606
750.628	0.0143670
750.706	0.0143794
750.785	0.0143667
750.863	0.0142951
750.941	0.0142384
751.019	0.0142219
751.097	0.0143240
751.175	0.0143559
751.253	0.0144269
751.331	0.0141767
751.410	0.0142968
751.488	0.0144791
751.566	0.0141409
751.644	0.0143268
751.722	0.0144221
751.800	0.0142548
751.878	0.0141226
751.956	0.0142844
752.035	0.0143659
752.113	0.0143270
752.191	0.0141313
752.269	0.0142184
752.347	0.0142807
752.425	0.0142020
752.503	0.0141943
752.581	0.0143364
752.660	0.0142739
752.738	0.0141150
752.816	0.0143216
752.894	0.0141747
752.972	0.0142144
753.050	0.0142759
753.128	0.0140479
753.206	0.0141025
753.285	0.0142852
753.363	0.0143042
753.441	0.0141512
753.519	0.0141841
753.597	0.0142517
753.675	0.0142098
753.753	0.0142400
753.831	0.0141560
753.910	0.0142074
753.988	0.0142602
754.066	0.0142135
754.144	0.0142204
754.222	0.0142285
754.300	0.0141765
754.378	0.0142705
754.456	0.0142460
754.535	0.0141744
754.613	0.0142821
754.691	0.0142036
754.769	0.0142815
754.847	0.0142603
754.925	0.0142268
755.003	0.0142322
755.081	0.0143139
755.160	0.0143056
755.238	0.0143951
755.316	0.0142635
755.394	0.0143883
755.472	0.0143239
755.550	0.0141708
755.628	0.0142657
755.706	0.0144150
755.785	0.0145032
755.863	0.0143523
755.941	0.0143324
756.019	0.0145436
756.097	0.0143697
756.175	0.0144611
756.253	0.0145150
756.331	0.0144165
756.410	0.0145626
756.488	0.0142476
756.566	0.0143562
756.644	0.0144004
756.722	0.0143884
756.800	0.0144145
756.878	0.0143142
756.956	0.0142609
757.035	0.0143120
757.113	0.0142791
757.191	0.0142452
757.269	0.0144340
757.347	0.0144701
757.425	0.0142782
757.503	0.0143680
757.581	0.0142535
757.660	0.0142981
757.738	0.0142419
757.816	0.0142946
757.894	0.0144058
757.972	0.0143820
758.050	0.0143072
758.128	0.0142783
758.206	0.0142404
758.285	0.0144138
758.363	0.0143534
758.441	0.0143392
758.519	0.0142471
758.597	0.0143030
758.675	0.0142560
758.753	0.0143915
758.831	0.0143092
758.910	0.0143307
758.988	0.0143098
759.066	0.0142577
759.144	0.0142684
759.222	0.0143501
759.300	0.0142706
759.378	0.0142731
759.456	0.0142281
759.535	0.0141814
759.613	0.0142811
759.691	0.0143851
759.769	0.0142358
759.847	0.0144063
759.925	0.0143368
760.003	0.0142364
760.081	0.0142072
760.160	0.0144276
760.238	0.0142126
760.316	0.0141803
760.394	0.0143507
760.472	0.0142278
760.550	0.0143516
760.628	0.0142446
760.706	0.0141666
760.785	0.0141253
760.863	0.0141358
760.941	0.0141174
761.019	0.0142365
761.097	0.0142072
761.175	0.0141921
761.253	0.0141776
761.331	0.0142437
761.410	0.0142533
761.488	0.0142207
761.566	0.0141559
761.644	0.0141214
761.722	0.0142136
761.800	0.0142632
761.878	0.0141197
761.956	0.0142879
762.035	0.0141845
762.113	0.0141135
762.191	0.0141720
762.269	0.0142953
762.347	0.0141554
762.425	0.0141151
762.503	0.0141429
762.581	0.0142842
762.660	0.0142753
762.738	0.0143113
762.816	0.0140948
762.894	0.0142048
762.972	0.0142896
763.050	0.0143420
763.128	0.0143126
763.206	0.0143074
763.285	0.0143561
763.363	0.0142245
763.441	0.0142858
763.519	0.0143075
763.597	0.0143755
763.675	0.0144023
763.753	0.0142706
763.831	0.0143135
763.910	0.0141634
763.988	0.0142328
764.066	0.0142936
764.144	0.0143100
764.222	0.0141628
764.300	0.0141640
764.378	0.0143466
764.456	0.0143781
764.535	0.0142224
764.613	0.0141496
764.691	0.0141882
764.769	0.0141586
764.847	0.0141666
764.925	0.0143456
765.003	0.0142877
765.081	0.0141361
765.160	0.0143455
765.238	0.0143047
765.316	0.0141919
765.394	0.0142191
765.472	0.0141988
765.550	0.0142684
765.628	0.0142958
765.706	0.0141680
765.785	0.0141653
765.863	0.0141405
765.941	0.0142874
766.019	0.0142550
766.097	0.0142399
766.175	0.0142344
766.253	0.0142446
766.331	0.0142111
766.410	0.0141302
766.488	0.0143489
766.566	0.0141363
766.644	0.0141117
766.722	0.0141562
766.800	0.0141997
766.878	0.0142648
766.956	0.0140788
767.035	0.0141821
767.113	0.0141234
767.191	0.0142451
767.269	0.0141440
767.347	0.0141918
767.425	0.0141634
767.503	0.0142383
767.581	0.0141570
767.660	0.0142480
767.738	0.0143384
767.816	0.0141638
767.894	0.0142340
767.972	0.0142681
768.050	0.0143633
768.128	0.0142671
768.206	0.0141383
768.285	0.0141158
768.363	0.0143440
768.441	0.0141851
768.519	0.0141276
768.597	0.0142369
768.675	0.0141505
768.753	0.0140905
768.831	0.0141255
768.910	0.0140712
768.988	0.0141923
769.066	0.0143151
769.144	0.0142284
769.222	0.0142398
769.300	0.0141582
769.378	0.0140929
769.456	0.0142216
769.535	0.0142316
769.613	0.0142511
769.691	0.0142923
769.769	0.0141461
769.847	0.0142439
769.925	0.0142315
770.003	0.0142650
770.081	0.0143235
770.160	0.0143202
770.238	0.0142406
770.316	0.0143034
770.394	0.0144976
770.472	0.0143369
770.550	0.0143008
770.628	0.0143221
770.706	0.0142219
770.785	0.0142814
770.863	0.0144994
770.941	0.0143703
771.019	0.0144055
771.097	0.0143919
771.175	0.0142322
771.253	0.0142313
771.331	0.0144205
771.410	0.0144075
771.488	0.0142733
771.566	0.0143364
771.644	0.0143267
771.722	0.0142461
771.800	0.0142567
771.878	0.0143468
771.956	0.0142764
772.035	0.0141791
772.113	0.0142621
772.191	0.0142146
772.269	0.0142249
772.347	0.0143318
772.425	0.0143401
772.503	0.0143809
772.581	0.0142499
772.660	0.0143909
772.738	0.0142919
772.816	0.0142805
772.894	0.0143303
772.972	0.0140986
773.050	0.0141490
773.128	0.0143188
773.206	0.0143547
773.285	0.0143317
773.363	0.0142752
773.441	0.0141577
773.519	0.0142127
773.597	0.0141222
773.675	0.0141546
773.753	0.0142122
773.831	0.0141527
773.910	0.0141828
773.988	0.0142375
774.066	0.0140303
774.144	0.0141247
774.222	0.0140582
774.300	0.0141449
774.378	0.0141264
774.456	0.0141592
774.535	0.0144227
774.613	0.0142512
774.691	0.0141319
774.769	0.0141463
774.847	0.0143679
774.925	0.0142412
775.003	0.0142690
775.081	0.0142953
775.160	0.0141879
775.238	0.0141522
775.316	0.0142578
775.394	0.0142278
775.472	0.0141933
775.550	0.0141378
775.628	0.0142410
775.706	0.0141234
775.785	0.0142760
775.863	0.0143034
775.941	0.0141882
776.019	0.0142583
776.097	0.0141818
776.175	0.0141566
776.253	0.0141477
776.331	0.0141143
776.410	0.0142263
776.488	0.0142536
776.566	0.0141420
776.644	0.0142970
776.722	0.0144002
776.800	0.0142197
776.878	0.0141467
776.956	0.0142585
777.035	0.0143488
777.113	0.0142918
777.191	0.0144131
777.269	0.0143301
777.347	0.0142123
777.425	0.0141753
777.503	0.0143475
777.581	0.0143417
777.660	0.0143682
777.738	0.0143546
777.816	0.0143842
777.894	0.0142858
777.972	0.0143021
778.050	0.0143305
778.128	0.0144244
778.206	0.0144651
778.285	0.0142635
778.363	0.0143978
778.441	0.0145109
778.519	0.0143892
778.597	0.0143235
778.675	0.0143404
778.753	0.0143501
778.831	0.0142872
778.910	0.0142535
778.988	0.0142281
779.066	0.0142208
779.144	0.0142162
779.222	0.0143212
779.300	0.0141924
779.378	0.0142225
779.456	0.0143181
779.535	0.0141838
779.613	0.0142581
779.691	0.0142265
779.769	0.0142873
779.847	0.0143326
779.925	0.0142804
780.003	0.0143221
780.081	0.0142289
780.160	0.0143158
780.238	0.0143677
780.316	0.0143168
780.394	0.0142833
780.472	0.0143099
780.550	0.0141177
780.628	0.0142503
780.706	0.0143303
780.785	0.0143072
780.863	0.0140771
780.941	0.0143391
781.019	0.0142918
781.097	0.0142635
781.175	0.0143467
781.253	0.0143159
781.331	0.0142379
781.410	0.0141660
781.488	0.0143346
781.566	0.0142941
781.644	0.0142670
781.722	0.0142875
781.800	0.0142687
781.878	0.0142767
781.956	0.0142702
782.035	0.0142908
782.113	0.0143509
782.191	0.0142683
782.269	0.0143934
782.347	0.0142298
782.425	0.0142467
782.503	0.0142818
782.581	0.0142325
782.660	0.0142939
782.738	0.0142860
782.816	0.0141457
782.894	0.0142140
782.972	0.0141948
783.050	0.0142303
783.128	0.0141920
783.206	0.0141448
783.285	0.0143004
783.363	0.0142593
783.441	0.0140335
783.519	0.0142657
783.597	0.0143159
783.675	0.0143657
783.753	0.0141142
783.831	0.0143475
783.910	0.0142839
783.988	0.0141313
784.066	0.0141212
784.144	0.0142913
784.222	0.0142596
784.300	0.0142902
784.378	0.0142568
784.456	0.0142580
784.535	0.0142990
784.613	0.0142475
784.691	0.0143327
784.769	0.0143432
784.847	0.0142802
784.925	0.0142938
785.003	0.0142308
785.081	0.0143306
785.160	0.0143642
785.238	0.0143639
785.316	0.0143118
785.394	0.0143071
785.472	0.0142113
785.550	0.0143465
785.628	0.0140582
785.706	0.0142397
785.785	0.0143334
785.863	0.0142609
785.941	0.0142361
786.019	0.0142613
786.097	0.0142989
786.175	0.0143713
786.253	0.0142525
786.331	0.0142508
786.410	0.0142075
786.488	0.0141534
786.566	0.0141499
786.644	0.0142171
786.722	0.0141892
786.800	0.0140961
786.878	0.0142864
786.956	0.0142344
787.035	0.0143829
787.113	0.0142837
787.191	0.0142552
787.269	0.0141451
787.347	0.0143338
787.425	0.0142556
787.503	0.0141618
787.581	0.0141392
787.660	0.0141896
787.738	0.0143193
787.816	0.0141495
787.894	0.0142624
787.972	0.0144041
788.050	0.0141911
788.128	0.0141338
788.206	0.0142636
788.285	0.0141822
788.363	0.0141018
788.441	0.0141788
788.519	0.0140766
788.597	0.0142012
788.675	0.0142707
788.753	0.0143081
788.831	0.0142628
788.910	0.0141802
788.988	0.0142427
789.066	0.0142664
789.144	0.0142387
789.222	0.0142765
789.300	0.0142334
789.378	0.0141956
789.456	0.0141453
789.535	0.0142986
789.613	0.0142006
789.691	0.0141041
789.769	0.0142416
789.847	0.0142438
789.925	0.0141702
790.003	0.0142283
790.081	0.0142204
790.160	0.0141723
790.238	0.0144505
790.316	0.0143777
790.394	0.0142010
790.472	0.0143468
790.550	0.0143724
790.628	0.0141902
790.706	0.0142387
790.785	0.0142641
790.863	0.0142780
790.941	0.0142399
791.019	0.0142496
791.097	0.0142094
791.175	0.0143935
791.253	0.0141652
791.331	0.0143388
791.410	0.0142060
791.488	0.0143221
791.566	0.0143296
791.644	0.0142684
791.722	0.0143362
791.800	0.0143764
791.878	0.0145362
791.956	0.0144420
792.035	0.0143656
792.113	0.0144595
792.191	0.0144069
792.269	0.0144966
792.347	0.0144030
792.425	0.0144301
792.503	0.0144953
792.581	0.0144881
792.660	0.0144447
792.738	0.0144381
792.816	0.0144975
792.894	0.0145024
792.972	0.0144408
793.050	0.0143146
793.128	0.0143730
793.206	0.0145300
793.285	0.0143092
793.363	0.0144694
793.441	0.0144821
793.519	0.0143826
793.597	0.0144728
793.675	0.0142184
793.753	0.0143938
793.831	0.0145103
793.910	0.0143124
793.988	0.0141435
794.066	0.0144012
794.144	0.0143307
794.222	0.0142548
794.300	0.0142933
794.378	0.0142972
794.456	0.0142216
794.535	0.0143326
794.613	0.0142917
794.691	0.0142951
794.769	0.0143546
794.847	0.0142870
794.925	0.0141851
795.003	0.0143271
795.081	0.0141632
795.160	0.0142155
795.238	0.0142543
795.316	0.0143438
795.394	0.0143172
795.472	0.0142381
795.550	0.0142814
795.628	0.0141241
795.706	0.0141166
795.785	0.0142326
795.863	0.0141990
795.941	0.0141515
796.019	0.0142601
796.097	0.0141943
796.175	0.0140840
796.253	0.0143694
796.331	0.0142459
796.410	0.0142374
796.488	0.0141273
796.566	0.0143620
796.644	0.0142671
796.722	0.0141869
796.800	0.0142796
796.878	0.0142937
796.956	0.0142841
797.035	0.0143533
797.113	0.0142746
797.191	0.0141810
797.269	0.0144021
797.347	0.0142500
797.425	0.0142161
797.503	0.0143134
797.581	0.0143159
797.660	0.0141885
797.738	0.0142989
797.816	0.0142887
797.894	0.0143364
797.972	0.0143008
798.050	0.0142354
798.128	0.0142045
798.206	0.0143928
798.285	0.0142629
798.363	0.0142378
798.441	0.0142686
798.519	0.0143204
798.597	0.0143171
798.675	0.0141941
798.753	0.0142835
798.831	0.0141311
798.910	0.0141734
798.988	0.0143069
799.066	0.0142843
799.144	0.0142283
799.222	0.0142876
799.300	0.0143488
799.378	0.0142952
799.456	0.0142133
799.535	0.0142620
799.613	0.0143345
799.691	0.0143525
799.769	0.0142838
799.847	0.0143858
799.925	0.0144934
800.003	0.0143022
800.081	0.0143118
800.160	0.0142446
800.238	0.0144099
800.316	0.0144678
800.394	0.0143728
800.472	0.0143787
800.550	0.0143439
800.628	0.0142924
800.706	0.0142261
800.785	0.0142239
800.863	0.0144020
800.941	0.0143130
801.019	0.0143436
801.097	0.0142285
801.175	0.0143404
801.253	0.0142081
801.331	0.0142450
801.410	0.0142992
801.488	0.0142766
801.566	0.0143221
801.644	0.0141654
801.722	0.0142262
801.800	0.0142413
801.878	0.0141846
801.956	0.0142781
802.035	0.0142033
802.113	0.0142492
802.191	0.0141746
802.269	0.0143098
802.347	0.0142822
802.425	0.0141566
802.503	0.0144018
802.581	0.0141512
802.660	0.0143041
802.738	0.0141729
802.816	0.0141222
802.894	0.0141508
802.972	0.0140636
803.050	0.0141482
803.128	0.0141962
803.206	0.0143079
803.285	0.0143015
803.363	0.0141472
803.441	0.0143184
803.519	0.0141744
803.597	0.0140702
803.675	0.0141978
803.753	0.0143010
803.831	0.0143273
803.910	0.0142369
803.988	0.0143070
804.066	0.0141769
804.144	0.0142509
804.222	0.0142257
804.300	0.0143068
804.378	0.0143061
804.456	0.0142726
804.535	0.0142175
804.613	0.0142751
804.691	0.0142432
804.769	0.0143092
804.847	0.0142319
804.925	0.0141013
805.003	0.0143165
805.081	0.0143034
805.160	0.0141512
805.238	0.0143991
805.316	0.0141416
805.394	0.0142239
805.472	0.0141920
805.550	0.0143409
805.628	0.0143427
805.706	0.0142371
805.785	0.0142574
805.863	0.0143462
805.941	0.0142969
806.019	0.0142419
806.097	0.0143518
806.175	0.0142624
806.253	0.0143501
806.331	0.0143302
806.410	0.0142808
806.488	0.0143110
806.566	0.0143203
806.644	0.0142918
806.722	0.0143144
806.800	0.0143934
806.878	0.0144904
806.956	0.0144682
807.035	0.0142504
807.113	0.0142461
807.191	0.0144030
807.269	0.0145087
807.347	0.0143877
807.425	0.0143349
807.503	0.0143716
807.581	0.0144710
807.660	0.0144787
807.738	0.0143087
807.816	0.0143316
807.894	0.0142136
807.972	0.0142927
808.050	0.0144868
808.128	0.0143633
808.206	0.0141858
808.285	0.0143330
808.363	0.0143877
808.441	0.0142084
808.519	0.0141744
808.597	0.0143950
808.675	0.0142241
808.753	0.0143501
808.831	0.0142685
808.910	0.0141564
808.988	0.0141655
809.066	0.0142799
809.144	0.0142517
809.222	0.0141122
809.300	0.0140961
809.378	0.0141988
809.456	0.0142029
809.535	0.0141945
809.613	0.0141460
809.691	0.0142743
809.769	0.0141809
809.847	0.0142854
809.925	0.0142220
810.003	0.0142712
810.081	0.0143103
810.160	0.0141731
810.238	0.0141111
810.316	0.0141771
810.394	0.0141777
810.472	0.0141470
810.550	0.0140979
810.628	0.0142089
810.706	0.0142668
810.785	0.0142962
810.863	0.0142098
810.941	0.0143339
811.019	0.0142147
811.097	0.0143255
811.175	0.0142495
811.253	0.0141499
811.331	0.0141827
811.410	0.0143549
811.488	0.0143930
811.566	0.0142242
811.644	0.0142149
811.722	0.0142891
811.800	0.0143116
811.878	0.0141869
811.956	0.0142078
812.035	0.0144687
812.113	0.0142028
812.191	0.0142109
812.269	0.0142995
812.347	0.0142669
812.425	0.0142642
812.503	0.0142432
812.581	0.0142177
812.660	0.0143575
812.738	0.0142734
812.816	0.0140977
812.894	0.0142725
812.972	0.0142544
813.050	0.0141514
813.128	0.0141842
813.206	0.0142083
813.285	0.0142991
813.363	0.0142637
813.441	0.0143109
813.519	0.0143520
813.597	0.0142789
813.675	0.0143141
813.753	0.0142336
813.831	0.0142424
813.910	0.0144462
813.988	0.0143407
814.066	0.0144652
814.144	0.0144151
814.222	0.0143354
814.300	0.0142578
814.378	0.0144283
814.456	0.0144164
814.535	0.0144675
814.613	0.0143374
814.691	0.0143913
814.769	0.0144199
814.847	0.0143810
814.925	0.0143448
815.003	0.0144112
815.081	0.0145376
815.160	0.0144084
815.238	0.0143605
815.316	0.0143734
815.394	0.0144427
815.472	0.0143298
815.550	0.0142424
815.628	0.0143364
815.706	0.0142491
815.785	0.0142356
815.863	0.0143024
815.941	0.0142851
816.019	0.0143329
816.097	0.0143392
816.175	0.0143964
816.253	0.0143391
816.331	0.0142961
816.410	0.0144418
816.488	0.0143257
816.566	0.0143878
816.644	0.0142267
816.722	0.0143522
816.800	0.0143673
816.878	0.0142101
816.956	0.0142789
817.035	0.0144020
817.113	0.0143537
817.191	0.0142970
817.269	0.0143213
817.347	0.0143425
817.425	0.0142376
817.503	0.0142505
817.581	0.0141797
817.660	0.0142971
817.738	0.0143233
817.816	0.0143380
817.894	0.0141867
817.972	0.0142786
818.050	0.0142668
818.128	0.0143208
818.206	0.0142344
818.285	0.0141452
818.363	0.0142094
818.441	0.0142202
818.519	0.0142925
818.597	0.0142931
818.675	0.0140971
818.753	0.0141298
818.831	0.0143307
818.910	0.0143629
818.988	0.0142638
819.066	0.0144829
819.144	0.0143990
819.222	0.0142164
819.300	0.0143836
819.378	0.0143937
819.456	0.0142581
819.535	0.0143481
819.613	0.0143332
819.691	0.0142724
819.769	0.0143806
819.847	0.0143575
819.925	0.0142748
820.003	0.0143797
820.081	0.0141103
820.160	0.0143369
820.238	0.0143114
820.316	0.0142995
820.394	0.0142371
820.472	0.0143288
820.550	0.0143328
820.628	0.0142607
820.706	0.0143538
820.785	0.0143743
820.863	0.0142555
820.941	0.0142716
821.019	0.0143069
821.097	0.0143871
821.175	0.0142351
821.253	0.0142133
821.331	0.0143293
821.410	0.0143768
821.488	0.0144208
821.566	0.0144041
821.644	0.0144374
821.722	0.0144843
821.800	0.0143659
821.878	0.0143714
821.956	0.0143767
822.035	0.0144594
822.113	0.0144079
822.191	0.0143602
822.269	0.0145297
822.347	0.0145574
822.425	0.0144597
822.503	0.0143856
822.581	0.0143902
822.660	0.0142922
822.738	0.0144836
822.816	0.0144249
822.894	0.0142572
822.972	0.0143848
823.050	0.0143192
823.128	0.0143300
823.206	0.0143911
823.285	0.0143203
823.363	0.0143572
823.441	0.0142837
823.519	0.0142622
823.597	0.0143302
823.675	0.0142180
823.753	0.0142031
823.831	0.0142683
823.910	0.0144420
823.988	0.0143488
824.066	0.0143063
824.144	0.0140978
824.222	0.0142929
824.300	0.0144795
824.378	0.0143420
824.456	0.0142959
824.535	0.0143391
824.613	0.0141892
824.691	0.0141557
824.769	0.0142944
824.847	0.0142814
824.925	0.0142955
825.003	0.0142258
825.081	0.0142725
825.160	0.0143255
825.238	0.0142929
825.316	0.0141959
825.394	0.0142522
825.472	0.0143006
825.550	0.0142278
825.628	0.0142576
825.706	0.0143881
825.785	0.0142332
825.863	0.0143102
825.941	0.0142298
826.019	0.0142997
826.097	0.0144574
826.175	0.0144180
826.253	0.0143868
826.331	0.0144023
826.410	0.0144066
826.488	0.0144228
826.566	0.0144591
826.644	0.0142976
826.722	0.0143642
826.800	0.0143620
826.878	0.0142782
826.956	0.0143307
827.035	0.0143138
827.113	0.0143465
827.191	0.0141870
827.269	0.0142834
827.347	0.0143262
827.425	0.0144088
827.503	0.0143333
827.581	0.0142633
827.660	0.0142094
827.738	0.0143932
827.816	0.0142181
827.894	0.0142294
827.972	0.0142474
828.050	0.0141751
828.128	0.0143416
828.206	0.0144833
828.285	0.0143479
828.363	0.0142890
828.441	0.0142710
828.519	0.0142027
828.597	0.0141890
828.675	0.0143092
828.753	0.0142812
828.831	0.0141945
828.910	0.0145210
828.988	0.0143841
829.066	0.0143852
829.144	0.0143712
829.222	0.0142120
829.300	0.0143318
829.378	0.0143716
829.456	0.0143032
829.535	0.0143051
829.613	0.0142460
829.691	0.0143886
829.769	0.0143571
829.847	0.0143205
829.925	0.0143206
830.003	0.0142818
830.081	0.0142338
830.160	0.0142772
830.238	0.0143228
830.316	0.0142052
830.394	0.0142532
830.472	0.0141737
830.550	0.0142532
830.628	0.0142818
830.706	0.0141575
830.785	0.0141870
830.863	0.0143041
830.941	0.0142427
831.019	0.0143268
831.097	0.0141362
831.175	0.0142596
831.253	0.0141953
831.331	0.0141777
831.410	0.0141825
831.488	0.0143204
831.566	0.0143293
831.644	0.0142087
831.722	0.0141316
831.800	0.0143250
831.878	0.0143710
831.956	0.0141364
832.035	0.0141736
832.113	0.0141365
832.191	0.0142451
832.269	0.0141821
832.347	0.0142630
832.425	0.0141918
832.503	0.0141724
832.581	0.0142399
832.660	0.0142712
832.738	0.0141619
832.816	0.0141644
832.894	0.0140877
832.972	0.0141073
833.050	0.0142738
833.128	0.0141997
833.206	0.0143938
833.285	0.0143010
833.363	0.0141676
833.441	0.0142522
833.519	0.0143672
833.597	0.0142349
833.675	0.0142271
833.753	0.0143766
833.831	0.0142810
833.910	0.0142579
833.988	0.0142352
834.066	0.0142419
834.144	0.0143330
834.222	0.0143103
834.300	0.0142921
834.378	0.0143454
834.456	0.0143327
834.535	0.0141693
834.613	0.0142246
834.691	0.0142720
834.769	0.0142815
834.847	0.0142390
834.925	0.0142704
835.003	0.0141476
835.081	0.0143047
835.160	0.0141521
835.238	0.0141921
835.316	0.0142265
835.394	0.0142281
835.472	0.0142797
835.550	0.0143935
835.628	0.0142973
835.706	0.0143235
835.785	0.0143443
835.863	0.0142992
835.941	0.0144860
836.019	0.0143378
836.097	0.0143893
836.175	0.0144365
836.253	0.0142694
836.331	0.0144566
836.410	0.0143780
836.488	0.0145584
836.566	0.0144632
836.644	0.0143431
836.722	0.0144723
836.800	0.0144022
836.878	0.0144488
836.956	0.0144611
837.035	0.0143713
837.113	0.0144608
837.191	0.0145864
837.269	0.0143447
837.347	0.0143884
837.425	0.0145491
837.503	0.0143585
837.581	0.0145334
837.660	0.0142871
837.738	0.0143369
837.816	0.0143835
837.894	0.0146297
837.972	0.0143118
838.050	0.0142319
838.128	0.0143328
838.206	0.0142511
838.285	0.0143579
838.363	0.0143284
838.441	0.0143153
838.519	0.0142878
838.597	0.0142591
838.675	0.0143506
838.753	0.0142774
838.831	0.0143912
838.910	0.0142429
838.988	0.0142855
839.066	0.0143224
839.144	0.0143087
839.222	0.0142950
839.300	0.0143246
839.378	0.0143266
839.456	0.0143047
839.535	0.0143871
839.613	0.0143024
839.691	0.0143156
839.769	0.0143170
839.847	0.0143006
839.925	0.0143827
840.003	0.0143054
840.081	0.0143136
840.160	0.0142082
840.238	0.0142992
840.316	0.0143697
840.394	0.0143056
840.472	0.0142731
840.550	0.0143151
840.628	0.0143708
840.706	0.0143268
840.785	0.0141668
840.863	0.0144266
840.941	0.0143463
841.019	0.0143530
841.097	0.0143546
841.175	0.0144030
841.253	0.0142653
841.331	0.0142090
841.410	0.0143161
841.488	0.0142577
841.566	0.0143451
841.644	0.0142499
841.722	0.0143665
841.800	0.0143424
841.878	0.0144005
841.956	0.0142004
842.035	0.0142760
842.113	0.0142976
842.191	0.0143528
842.269	0.0144072
842.347	0.0142516
842.425	0.0143764
842.503	0.0143275
842.581	0.0145380
842.660	0.0144629
842.738	0.0144077
842.816	0.0143321
842.894	0.0143761
842.972	0.0143850
843.050	0.0143559
843.128	0.0142723
843.206	0.0144274
843.285	0.0143239
843.363	0.0142847
843.441	0.0143975
843.519	0.0145301
843.597	0.0143939
843.675	0.0143810
843.753	0.0145515
843.831	0.0145535
843.910	0.0143917
843.988	0.0145459
844.066	0.0144045
844.144	0.0143585
844.222	0.0143898
844.300	0.0143854
844.378	0.0144043
844.456	0.0143904
844.535	0.0145175
844.613	0.0145001
844.691	0.0144023
844.769	0.0143665
844.847	0.0144309
844.925	0.0142747
845.003	0.0143204
845.081	0.0143161
845.160	0.0143125
845.238	0.0142780
845.316	0.0144357
845.394	0.0144168
845.472	0.0142751
845.550	0.0144793
845.628	0.0144041
845.706	0.0144115
845.785	0.0144550
845.863	0.0143736
845.941	0.0143570
846.019	0.0143562
846.097	0.0144940
846.175	0.0143424
846.253	0.0143346
846.331	0.0143927
846.410	0.0143179
846.488	0.0143246
846.566	0.0144004
846.644	0.0143257
846.722	0.0144791
846.800	0.0145011
846.878	0.0142418
846.956	0.0142074
847.035	0.0143208
847.113	0.0143211
847.191	0.0144482
847.269	0.0143061
847.347	0.0143606
847.425	0.0143868
847.503	0.0144363
847.581	0.0142461
847.660	0.0142791
847.738	0.0142492
847.816	0.0142070
847.894	0.0140723
847.972	0.0143440
848.050	0.0143163
848.128	0.0141780
848.206	0.0142433
848.285	0.0142999
848.363	0.0142228
848.441	0.0142712
848.519	0.0143113
848.597	0.0143462
848.675	0.0143496
848.753	0.0142679
848.831	0.0143985
848.910	0.0143576
848.988	0.0141473
849.066	0.0141889
849.144	0.0142848
849.222	0.0143453
849.300	0.0142951
849.378	0.0144535
849.456	0.0144107
849.535	0.0143111
849.613	0.0143888
849.691	0.0144251
849.769	0.0142776
849.847	0.0142747
849.925	0.0144930
850.003	0.0144517
850.081	0.0145184
850.160	0.0142905
850.238	0.0142567
850.316	0.0144363
850.394	0.0143935
850.472	0.0143855
850.550	0.0143398
850.628	0.0144598
850.706	0.0143452
850.785	0.0142515
850.863	0.0143730
850.941	0.0143809
851.019	0.0144010
851.097	0.0145541
851.175	0.0144324
851.253	0.0144627
851.331	0.0145781
851.410	0.0143863
851.488	0.0144724
851.566	0.0144927
851.644	0.0144662
851.722	0.0143646
851.800	0.0143744
851.878	0.0145108
851.956	0.0143980
852.035	0.0145078
852.113	0.0143565
852.191	0.0144398
852.269	0.0145193
852.347	0.0144335
852.425	0.0143496
852.503	0.0143527
852.581	0.0144217
852.660	0.0144412
852.738	0.0143079
852.816	0.0142990
852.894	0.0143337
852.972	0.0143766
853.050	0.0142908
853.128	0.0141759
853.206	0.0141580
853.285	0.0143232
853.363	0.0142339
853.441	0.0143751
853.519	0.0144114
853.597	0.0143953
853.675	0.0142613
853.753	0.0142596
853.831	0.0142574
853.910	0.0142619
853.988	0.0142441
854.066	0.0141064
854.144	0.0141617
854.222	0.0141852
854.300	0.0144079
854.378	0.0144121
854.456	0.0142622
854.535	0.0142767
854.613	0.0142484
854.691	0.0142680
854.769	0.0142472
854.847	0.0142042
854.925	0.0142902
855.003	0.0143266
855.081	0.0142248
855.160	0.0142708
855.238	0.0141725
855.316	0.0142694
855.394	0.0142256
855.472	0.0141090
855.550	0.0142902
855.628	0.0143327
855.706	0.0141746
855.785	0.0141984
855.863	0.0142094
855.941	0.0141878
856.019	0.0142126
856.097	0.0141434
856.175	0.0142025
856.253	0.0140476
856.331	0.0141312
856.410	0.0142211
856.488	0.0142334
856.566	0.0142379
856.644	0.0141259
856.722	0.0140051
856.800	0.0141296
856.878	0.0141800
856.956	0.0141626
857.035	0.0140742
857.113	0.0140385
857.191	0.0141800
857.269	0.0140681
857.347	0.0142351
857.425	0.0141080
857.503	0.0140909
857.581	0.0141483
857.660	0.0142721
857.738	0.0141143
857.816	0.0142140
857.894	0.0141025
857.972	0.0141106
858.050	0.0143416
858.128	0.0141606
858.206	0.0141638
858.285	0.0141780
858.363	0.0143254
858.441	0.0142217
858.519	0.0143136
858.597	0.0142349
858.675	0.0143076
858.753	0.0144065
858.831	0.0142929
858.910	0.0143852
858.988	0.0143965
859.066	0.0143928
859.144	0.0142531
859.222	0.0142981
859.300	0.0144332
859.378	0.0144411
859.456	0.0144284
859.535	0.0143978
859.613	0.0144218
859.691	0.0143456
859.769	0.0143169
859.847	0.0143556
859.925	0.0141702
860.003	0.0142414
860.081	0.0142452
860.160	0.0142613
860.238	0.0142801
860.316	0.0141661
860.394	0.0142242
860.472	0.0143251
860.550	0.0141658
860.628	0.0142671
860.706	0.0142946
860.785	0.0143094
860.863	0.0142777
860.941	0.0141891
861.019	0.0142326
861.097	0.0142262
861.175	0.0141904
861.253	0.0141573
861.331	0.0141444
861.410	0.0142683
861.488	0.0142719
861.566	0.0142680
861.644	0.0142374
861.722	0.0144529
861.800	0.0142159
861.878	0.0142838
861.956	0.0143265
862.035	0.0143478
862.113	0.0143237
862.191	0.0142002
862.269	0.0142229
862.347	0.0143166
862.425	0.0142534
862.503	0.0142516
862.581	0.0143146
862.660	0.0141624
862.738	0.0141649
862.816	0.0142596
862.894	0.0142931
862.972	0.0142094
863.050	0.0143336
863.128	0.0143435
863.206	0.0143519
863.285	0.0143978
863.363	0.0142442
863.441	0.0142835
863.519	0.0143674
863.597	0.0143655
863.675	0.0142372
863.753	0.0142715
863.831	0.0143607
863.910	0.0143223
863.988	0.0144170
864.066	0.0143887
864.144	0.0142227
864.222	0.0142110
864.300	0.0143758
864.378	0.0143243
864.456	0.0143074
864.535	0.0142789
864.613	0.0143485
864.691	0.0143008
864.769	0.0143636
864.847	0.0143771
864.925	0.0143617
865.003	0.0143778
865.081	0.0143252
865.160	0.0144205
865.238	0.0142876
865.316	0.0142582
865.394	0.0143977
865.472	0.0143884
865.550	0.0143360
865.628	0.0144135
865.706	0.0143634
865.785	0.0144125
865.863	0.0143790
865.941	0.0142856
866.019	0.0142794
866.097	0.0143909
866.175	0.0143275
866.253	0.0142845
866.331	0.0144269
866.410	0.0144079
866.488	0.0143327
866.566	0.0143391
866.644	0.0144034
866.722	0.0144238
866.800	0.0143525
866.878	0.0144751
866.956	0.0143687
867.035	0.0144371
867.113	0.0143649
867.191	0.0143204
867.269	0.0142648
867.347	0.0143645
867.425	0.0142154
867.503	0.0142916
867.581	0.0144149
867.660	0.0142629
867.738	0.0143192
867.816	0.0142191
867.894	0.0143830
867.972	0.0142747
868.050	0.0141590
868.128	0.0143748
868.206	0.0144373
868.285	0.0142915
868.363	0.0143459
868.441	0.0142612
868.519	0.0141332
868.597	0.0142300
868.675	0.0142126
868.753	0.0142416
868.831	0.0140445
868.910	0.0141272
868.988	0.0141621
869.066	0.0143089
869.144	0.0142875
869.222	0.0140720
869.300	0.0141501
869.378	0.0141808
869.456	0.0142878
869.535	0.0142589
869.613	0.0142211
869.691	0.0142438
869.769	0.0142596
869.847	0.0142907
869.925	0.0143104
870.003	0.0142237
870.081	0.0143608
870.160	0.0142648
870.238	0.0141640
870.316	0.0142765
870.394	0.0141165
870.472	0.0142684
870.550	0.0143262
870.628	0.0141605
870.706	0.0142751
870.785	0.0142885
870.863	0.0141935
870.941	0.0142783
871.019	0.0143109
871.097	0.0142472
871.175	0.0143437
871.253	0.0142286
871.331	0.0141182
871.410	0.0142860
871.488	0.0143595
871.566	0.0143060
871.644	0.0141756
871.722	0.0142305
871.800	0.0143417
871.878	0.0142877
871.956	0.0143613
872.035	0.0142504
872.113	0.0142899
872.191	0.0142308
872.269	0.0143996
872.347	0.0142916
872.425	0.0142731
872.503	0.0143015
872.581	0.0143941
872.660	0.0142839
872.738	0.0142313
872.816	0.0143755
872.894	0.0143298
872.972	0.0144409
873.050	0.0142922
873.128	0.0141787
873.206	0.0143985
873.285	0.0143298
873.363	0.0143445
873.441	0.0143498
873.519	0.0144450
873.597	0.0143896
873.675	0.0142542
873.753	0.0143624
873.831	0.0143303
873.910	0.0143250
873.988	0.0143401
874.066	0.0142570
874.144	0.0143060
874.222	0.0142369
874.300	0.0142027
874.378	0.0142815
874.456	0.0143403
874.535	0.0141814
874.613	0.0142432
874.691	0.0142712
874.769	0.0141491
874.847	0.0141291
874.925	0.0142415
875.003	0.0140582
875.081	0.0141492
875.160	0.0142756
875.238	0.0141241
875.316	0.0141641
875.394	0.0140524
875.472	0.0140112
875.550	0.0142429
875.628	0.0141626
875.706	0.0141169
875.785	0.0140408
875.863	0.0140984
875.941	0.0141969
876.019	0.0142023
876.097	0.0141469
876.175	0.0140944
876.253	0.0140992
876.331	0.0141290
876.410	0.0140940
876.488	0.0141382
876.566	0.0142963
876.644	0.0142216
876.722	0.0141499
876.800	0.0140609
876.878	0.0142330
876.956	0.0141316
877.035	0.0140563
877.113	0.0141179
877.191	0.0141576
877.269	0.0142388
877.347	0.0140993
877.425	0.0141355
877.503	0.0141751
877.581	0.0141914
877.660	0.0141475
877.738	0.0143200
877.816	0.0142471
877.894	0.0143157
877.972	0.0143413
878.050	0.0142842
878.128	0.0143730
878.206	0.0141243
878.285	0.0142577
878.363	0.0140912
878.441	0.0142492
878.519	0.0143495
878.597	0.0143168
878.675	0.0142191
878.753	0.0141940
878.831	0.0142025
878.910	0.0140939
878.988	0.0142342
879.066	0.0142892
879.144	0.0143284
879.222	0.0142208
879.300	0.0142705
879.378	0.0143204
879.456	0.0142805
879.535	0.0143624
879.613	0.0144406
879.691	0.0143012
879.769	0.0143919
879.847	0.0142200
879.925	0.0141968
880.003	0.0144176
880.081	0.0143432
880.160	0.0143217
880.238	0.0143379
880.316	0.0141374
880.394	0.0142471
880.472	0.0144170
880.550	0.0143269
880.628	0.0142909
880.706	0.0142482
880.785	0.0143418
880.863	0.0143699
880.941	0.0143631
881.019	0.0143047
881.097	0.0145101
881.175	0.0144379
881.253	0.0143289
881.331	0.0143179
881.410	0.0143861
881.488	0.0142055
881.566	0.0143553
881.644	0.0142570
881.722	0.0143401
881.800	0.0143091
881.878	0.0143407
881.956	0.0142969
882.035	0.0142303
882.113	0.0143429
882.191	0.0143159
882.269	0.0142166
882.347	0.0141771
882.425	0.0141415
882.503	0.0143468
882.581	0.0141288
882.660	0.0141139
882.738	0.0142225
882.816	0.0141740
882.894	0.0140981
882.972	0.0140845
883.050	0.0141037
883.128	0.0140856
883.206	0.0140793
883.285	0.0141556
883.363	0.0141399
883.441	0.0140223
883.519	0.0141131
883.597	0.0141650
883.675	0.0141473
883.753	0.0140070
883.831	0.0140936
883.910	0.0142328
883.988	0.0140188
884.066	0.0141387
884.144	0.0140981
884.222	0.0142170
884.300	0.0143062
884.378	0.0141409
884.456	0.0141180
884.535	0.0141496
884.613	0.0141000
884.691	0.0142451
884.769	0.0142223
884.847	0.0142590
884.925	0.0143211
885.003	0.0143443
885.081	0.0142644
885.160	0.0142171
885.238	0.0143219
885.316	0.0142387
885.394	0.0143732
885.472	0.0143763
885.550	0.0142320
885.628	0.0142663
885.706	0.0142830
885.785	0.0142656
885.863	0.0143779
885.941	0.0143085
886.019	0.0142300
886.097	0.0143819
886.175	0.0144077
886.253	0.0142786
886.331	0.0144166
886.410	0.0143406
886.488	0.0142654
886.566	0.0143409
886.644	0.0142286
886.722	0.0143091
886.800	0.0143938
886.878	0.0142303
886.956	0.0143194
887.035	0.0144589
887.113	0.0143600
887.191	0.0143820
887.269	0.0143062
887.347	0.0141621
887.425	0.0143307
887.503	0.0143041
887.581	0.0143777
887.660	0.0143317
887.738	0.0143801
887.816	0.0142988
887.894	0.0143048
887.972	0.0143995
888.050	0.0144954
888.128	0.0144121
888.206	0.0144293
888.285	0.0144645
888.363	0.0144220
888.441	0.0143887
888.519	0.0143362
888.597	0.0145738
888.675	0.0145347
888.753	0.0144591
888.831	0.0143725
888.910	0.0144462
888.988	0.0145526
889.066	0.0143918
889.144	0.0144099
889.222	0.0144366
889.300	0.0145790
889.378	0.0145883
889.456	0.0144148
889.535	0.0143014
889.613	0.0143596
889.691	0.0143926
889.769	0.0143770
889.847	0.0144518
889.925	0.0144027
890.003	0.0143204
890.081	0.0143932
890.160	0.0144887
890.238	0.0142860
890.316	0.0143153
890.394	0.0143534
890.472	0.0143474
890.550	0.0144692
890.628	0.0144899
890.706	0.0143506
890.785	0.0143612
890.863	0.0143992
890.941	0.0144345
891.019	0.0143353
891.097	0.0143920
891.175	0.0143935
891.253	0.0142838
891.331	0.0141668
891.410	0.0141331
891.488	0.0142697
891.566	0.0143847
891.644	0.0142851
891.722	0.0144033
891.800	0.0142928
891.878	0.0141920
891.956	0.0143015
892.035	0.0142575
892.113	0.0142732
892.191	0.0142920
892.269	0.0142919
892.347	0.0142657
892.425	0.0143057
892.503	0.0143353
892.581	0.0142419
892.660	0.0141649
892.738	0.0142936
892.816	0.0142883
892.894	0.0143432
892.972	0.0142904
893.050	0.0142413
893.128	0.0142947
893.206	0.0142223
893.285	0.0142861
893.363	0.0143901
893.441	0.0144473
893.519	0.0142037
893.597	0.0142247
893.675	0.0143664
893.753	0.0141478
893.831	0.0141261
893.910	0.0142805
893.988	0.0142405
894.066	0.0143518
894.144	0.0142926
894.222	0.0141291
894.300	0.0141243
894.378	0.0141859
894.456	0.0142010
894.535	0.0141689
894.613	0.0142164
894.691	0.0141649
894.769	0.0141282
894.847	0.0141062
894.925	0.0141605
895.003	0.0141218
895.081	0.0141306
895.160	0.0140247
895.238	0.0141174
895.316	0.0140582
895.394	0.0142054
895.472	0.0141096
895.550	0.0140325
895.628	0.0140608
895.706	0.0141942
895.785	0.0141929
895.863	0.0141628
895.941	0.0139942
896.019	0.0141074
896.097	0.0141524
896.175	0.0140578
896.253	0.0140123
896.331	0.0141236
896.410	0.0139854
896.488	0.0140746
896.566	0.0140678
896.644	0.0140556
896.722	0.0141347
896.800	0.0139245
896.878	0.0140109
896.956	0.0139866
897.035	0.0141384
897.113	0.0140569
897.191	0.0141470
897.269	0.0140160
897.347	0.0140385
897.425	0.0140231
897.503	0.0141422
897.581	0.0140823
897.660	0.0139858
897.738	0.0140149
897.816	0.0142044
897.894	0.0140800
897.972	0.0140247
898.050	0.0141206
898.128	0.0141848
898.206	0.0140118
898.285	0.0140765
898.363	0.0140678
898.441	0.0140788
898.519	0.0141248
898.597	0.0139835
898.675	0.0140891
898.753	0.0141201
898.831	0.0140189
898.910	0.0140701
898.988	0.0141636
899.066	0.0141560
899.144	0.0141438
899.222	0.0142992
899.300	0.0142065
899.378	0.0143035
899.456	0.0141927
899.535	0.0142912
899.613	0.0141573
899.691	0.0142841
899.769	0.0143333
899.847	0.0143862
899.925	0.0144798
900.003	0.0142875
900.081	0.0143157
900.160	0.0145242
900.238	0.0144243
900.316	0.0143671
900.394	0.0143499
900.472	0.0142591
900.550	0.0144453
900.628	0.0144405
900.706	0.0144278
900.785	0.0144728
900.863	0.0143510
900.941	0.0144100
901.019	0.0143377
901.097	0.0143515
901.175	0.0143737
901.253	0.0143894
901.331	0.0144618
901.410	0.0143653
901.488	0.0144077
901.566	0.0144141
901.644	0.0144940
901.722	0.0144141
901.800	0.0144437
901.878	0.0144781
901.956	0.0145795
902.035	0.0145182
902.113	0.0142967
902.191	0.0144759
902.269	0.0144667
902.347	0.0145834
902.425	0.0143773
902.503	0.0144157
902.581	0.0146161
902.660	0.0144439
902.738	0.0145381
902.816	0.0144951
902.894	0.0145483
902.972	0.0145548
903.050	0.0144698
903.128	0.0145368
903.206	0.0144611
903.285	0.0143927
903.363	0.0144151
903.441	0.0143297
903.519	0.0144083
903.597	0.0143245
903.675	0.0144782
903.753	0.0143943
903.831	0.0144676
903.910	0.0143407
903.988	0.0143282
904.066	0.0142668
904.144	0.0145103
904.222	0.0143491
904.300	0.0143951
904.378	0.0143376
904.456	0.0142561
904.535	0.0143902
904.613	0.0142296
904.691	0.0144232
904.769	0.0142844
904.847	0.0142249
904.925	0.0141597
905.003	0.0141890
905.081	0.0142759
905.160	0.0143668
905.238	0.0143428
905.316	0.0142805
905.394	0.0142747
905.472	0.0143060
905.550	0.0144199
905.628	0.0142700
905.706	0.0142831
905.785	0.0142136
905.863	0.0143105
905.941	0.0142253
906.019	0.0141562
906.097	0.0142466
906.175	0.0143768
906.253	0.0142735
906.331	0.0142499
906.410	0.0143294
906.488	0.0141533
906.566	0.0142080
906.644	0.0143069
906.722	0.0141901
906.800	0.0143136
906.878	0.0143277
906.956	0.0143334
907.035	0.0142536
907.113	0.0143330
907.191	0.0142783
907.269	0.0142899
907.347	0.0142960
907.425	0.0142439
907.503	0.0143084
907.581	0.0143929
907.660	0.0143908
907.738	0.0142643
907.816	0.0144693
907.894	0.0143481
907.972	0.0143991
908.050	0.0144737
908.128	0.0142545
908.206	0.0142472
908.285	0.0143700
908.363	0.0143885
908.441	0.0143483
908.519	0.0143088
908.597	0.0143077
908.675	0.0142706
908.753	0.0143080
908.831	0.0143015
908.910	0.0142942
908.988	0.0143777
909.066	0.0142809
909.144	0.0143356
909.222	0.0143822
909.300	0.0143886
909.378	0.0142777
909.456	0.0143917
909.535	0.0143688
909.613	0.0143783
909.691	0.0142558
909.769	0.0143388
909.847	0.0142920
909.925	0.0142861
910.003	0.0142365
910.081	0.0143474
910.160	0.0144206
910.238	0.0143666
910.316	0.0144482
910.394	0.0144991
910.472	0.0145389
910.550	0.0144427
910.628	0.0144559
910.706	0.0146095
910.785	0.0144196
910.863	0.0143450
910.941	0.0145331
911.019	0.0145396
911.097	0.0144634
911.175	0.0144682
911.253	0.0144707
911.331	0.0144405
911.410	0.0144195
911.488	0.0144632
911.566	0.0143625
911.644	0.0144287
911.722	0.0144185
911.800	0.0144659
911.878	0.0144056
911.956	0.0143581
912.035	0.0146105
912.113	0.0144043
912.191	0.0143396
912.269	0.0144337
912.347	0.0143305
912.425	0.0143819
912.503	0.0142538
912.581	0.0144432
912.660	0.0143021
912.738	0.0143990
912.816	0.0143401
912.894	0.0143443
912.972	0.0143283
913.050	0.0144324
913.128	0.0143513
913.206	0.0143488
913.285	0.0143730
913.363	0.0143661
913.441	0.0143981
913.519	0.0142101
913.597	0.0141966
913.675	0.0142709
913.753	0.0142332
913.831	0.0141817
913.910	0.0142372
913.988	0.0142813
914.066	0.0142973
914.144	0.0142287
914.222	0.0143668
914.300	0.0142443
914.378	0.0143299
914.456	0.0141677
914.535	0.0142664
914.613	0.0142969
914.691	0.0142581
914.769	0.0143665
914.847	0.0142696
914.925	0.0142083
915.003	0.0143753
915.081	0.0141065
915.160	0.0142760
915.238	0.0143717
915.316	0.0143948
915.394	0.0142799
915.472	0.0142330
915.550	0.0141454
915.628	0.0143076
915.706	0.0143029
915.785	0.0143472
915.863	0.0145137
915.941	0.0142647
916.019	0.0142318
916.097	0.0142132
916.175	0.0142140
916.253	0.0143967
916.331	0.0144146
916.410	0.0143167
916.488	0.0144047
916.566	0.0143319
916.644	0.0143260
916.722	0.0142437
916.800	0.0143516
916.878	0.0143896
916.956	0.0143908
917.035	0.0143227
917.113	0.0143333
917.191	0.0144440
917.269	0.0143984
917.347	0.0143387
917.425	0.0142829
917.503	0.0143457
917.581	0.0142196
917.660	0.0143655
917.738	0.0143104
917.816	0.0141283
917.894	0.0142622
917.972	0.0143032
918.050	0.0142719
918.128	0.0142284
918.206	0.0143555
918.285	0.0142786
918.363	0.0141117
918.441	0.0141142
918.519	0.0141748
918.597	0.0142477
918.675	0.0142506
918.753	0.0141390
918.831	0.0142191
918.910	0.0142105
918.988	0.0142332
919.066	0.0141581
919.144	0.0141165
919.222	0.0142173
919.300	0.0142235
919.378	0.0141114
919.456	0.0141475
919.535	0.0140652
919.613	0.0141859
919.691	0.0142102
919.769	0.0142822
919.847	0.0142814
919.925	0.0142513
920.003	0.0142371
920.081	0.0141480
920.160	0.0143451
920.238	0.0142032
920.316	0.0141750
920.394	0.0144515
920.472	0.0142669
920.550	0.0141140
920.628	0.0142469
920.706	0.0142723
920.785	0.0141331
920.863	0.0143465
920.941	0.0141811
921.019	0.0142293
921.097	0.0142306
921.175	0.0141653
921.253	0.0142624
921.331	0.0143179
921.410	0.0142943
921.488	0.0143571
921.566	0.0142419
921.644	0.0142121
921.722	0.0143190
921.800	0.0143646
921.878	0.0142169
921.956	0.0143280
922.035	0.0143647
922.113	0.0143102
922.191	0.0141865
922.269	0.0142761
922.347	0.0143598
922.425	0.0143441
922.503	0.0142966
922.581	0.0141818
922.660	0.0142164
922.738	0.0143165
922.816	0.0143066
922.894	0.0142751
922.972	0.0143254
923.050	0.0143712
923.128	0.0142367
923.206	0.0142103
923.285	0.0143131
923.363	0.0143716
923.441	0.0141454
923.519	0.0142132
923.597	0.0142809
923.675	0.0142033
923.753	0.0142685
923.831	0.0141441
923.910	0.0142542
923.988	0.0141956
924.066	0.0143115
924.144	0.0142413
924.222	0.0142413
924.300	0.0142236
924.378	0.0139148
924.456	0.0141006
924.535	0.0144031
924.613	0.0142948
924.691	0.0142458
924.769	0.0142593
924.847	0.0142519
924.925	0.0143078
925.003	0.0143311
925.081	0.0143772
925.160	0.0143104
925.238	0.0142423
925.316	0.0142464
925.394	0.0141587
925.472	0.0142366
925.550	0.0143262
925.628	0.0142839
925.706	0.0143670
925.785	0.0142892
925.863	0.0143432
925.941	0.0142711
926.019	0.0141540
926.097	0.0145111
926.175	0.0142991
926.253	0.0142568
926.331	0.0142041
926.410	0.0142863
926.488	0.0143355
926.566	0.0143581
926.644	0.0144157
926.722	0.0143608
926.800	0.0143027
926.878	0.0143409
926.956	0.0142976
927.035	0.0144065
927.113	0.0142863
927.191	0.0142649
927.269	0.0144865
927.347	0.0143931
927.425	0.0144142
927.503	0.0143436
927.581	0.0145041
927.660	0.0143079
927.738	0.0142843
927.816	0.0144621
927.894	0.0143555
927.972	0.0142905
928.050	0.0142935
928.128	0.0142865
928.206	0.0143037
928.285	0.0144525
928.363	0.0143293
928.441	0.0142342
928.519	0.0143961
928.597	0.0144650
928.675	0.0143277
928.753	0.0143617
928.831	0.0142838
928.910	0.0143444
928.988	0.0142471
929.066	0.0142842
929.144	0.0143780
929.222	0.0142759
929.300	0.0142989
929.378	0.0142945
929.456	0.0144231
929.535	0.0142855
929.613	0.0142442
929.691	0.0141905
929.769	0.0142277
929.847	0.0142300
929.925	0.0140800
930.003	0.0141741
930.081	0.0142424
930.160	0.0141843
930.238	0.0141695
930.316	0.0142300
930.394	0.0141409
930.472	0.0141723
930.550	0.0141888
930.628	0.0142723
930.706	0.0141634
930.785	0.0140591
930.863	0.0143147
930.941	0.0141293
931.019	0.0141888
931.097	0.0141512
931.175	0.0142756
931.253	0.0142327
931.331	0.0141481
931.410	0.0141655
931.488	0.0140143
931.566	0.0141286
931.644	0.0142013
931.722	0.0142432
931.800	0.0142973
931.878	0.0142075
931.956	0.0141899
932.035	0.0143177
932.113	0.0142992
932.191	0.0142118
932.269	0.0143661
932.347	0.0142803
932.425	0.0143365
932.503	0.0142969
932.581	0.0142789
932.660	0.0141581
932.738	0.0143159
932.816	0.0143014
932.894	0.0142976
932.972	0.0143194
933.050	0.0144084
933.128	0.0143365
933.206	0.0143282
933.285	0.0142334
933.363	0.0144318
933.441	0.0142644
933.519	0.0143629
933.597	0.0142908
933.675	0.0142934
933.753	0.0143024
933.831	0.0143758
933.910	0.0142373
933.988	0.0142313
934.066	0.0142606
934.144	0.0142637
934.222	0.0143038
934.300	0.0143539
934.378	0.0142624
934.456	0.0141868
934.535	0.0142444
934.613	0.0142548
934.691	0.0141375
934.769	0.0142371
934.847	0.0143221
934.925	0.0142294
935.003	0.0142262
935.081	0.0143169
935.160	0.0142929
935.238	0.0142540
935.316	0.0141862
935.394	0.0143039
935.472	0.0142278
935.550	0.0142863
935.628	0.0142650
935.706	0.0143029
935.785	0.0142691
935.863	0.0143045
935.941	0.0143719
936.019	0.0141482
936.097	0.0142433
936.175	0.0143525
936.253	0.0143573
936.331	0.0142622
936.410	0.0142901
936.488	0.0142394
936.566	0.0142364
936.644	0.0142905
936.722	0.0143431
936.800	0.0142464
936.878	0.0141933
936.956	0.0141682
937.035	0.0142399
937.113	0.0140751
937.191	0.0141935
937.269	0.0141337
937.347	0.0142542
937.425	0.0143906
937.503	0.0142172
937.581	0.0142972
937.660	0.0142004
937.738	0.0144638
937.816	0.0144090
937.894	0.0143557
937.972	0.0143625
938.050	0.0143462
938.128	0.0143208
938.206	0.0144157
938.285	0.0142884
938.363	0.0142632
938.441	0.0142938
938.519	0.0143344
938.597	0.0144000
938.675	0.0142763
938.753	0.0143907
938.831	0.0142073
938.910	0.0143320
938.988	0.0143784
939.066	0.0142130
939.144	0.0142815
939.222	0.0142516
939.300	0.0142392
939.378	0.0143768
939.456	0.0144106
939.535	0.0142666
939.613	0.0143719
939.691	0.0141885
939.769	0.0143926
939.847	0.0144395
939.925	0.0144695
940.003	0.0144090
940.081	0.0143268
940.160	0.0144993
940.238	0.0143656
940.316	0.0143899
940.394	0.0143359
940.472	0.0144257
940.550	0.0143486
940.628	0.0142920
940.706	0.0144941
940.785	0.0143393
940.863	0.0143416
940.941	0.0143991
941.019	0.0144935
941.097	0.0144140
941.175	0.0142875
941.253	0.0144016
941.331	0.0142814
941.410	0.0142993
941.488	0.0143485
941.566	0.0144039
941.644	0.0142883
941.722	0.0143748
941.800	0.0143446
941.878	0.0142574
941.956	0.0143720
942.035	0.0143813
942.113	0.0143391
942.191	0.0143221
942.269	0.0142989
942.347	0.0142654
942.425	0.0142442
942.503	0.0142010
942.581	0.0142585
942.660	0.0143832
942.738	0.0142918
942.816	0.0143345
942.894	0.0141885
942.972	0.0142419
943.050	0.0140629
943.128	0.0142138
943.206	0.0142434
943.285	0.0141745
943.363	0.0141508
943.441	0.0141061
943.519	0.0142632
943.597	0.0142552
943.675	0.0143174
943.753	0.0143467
943.831	0.0142048
943.910	0.0143619
943.988	0.0143252
944.066	0.0142702
944.144	0.0142994
944.222	0.0143404
944.300	0.0143756
944.378	0.0143010
944.456	0.0142683
944.535	0.0144600
944.613	0.0142372
944.691	0.0142431
944.769	0.0142709
944.847	0.0143109
944.925	0.0142564
945.003	0.0143498
945.081	0.0143033
945.160	0.0142632
945.238	0.0144144
945.316	0.0142239
945.394	0.0143685
945.472	0.0143437
945.550	0.0143099
945.628	0.0142566
945.706	0.0141662
945.785	0.0142746
945.863	0.0144083
945.941	0.0143003
946.019	0.0142503
946.097	0.0142661
946.175	0.0142219
946.253	0.0142628
946.331	0.0142858
946.410	0.0142288
946.488	0.0142583
946.566	0.0143305
946.644	0.0142891
946.722	0.0143341
946.800	0.0145010
946.878	0.0144785
946.956	0.0141969
947.035	0.0143632
947.113	0.0143671
947.191	0.0143037
947.269	0.0143535
947.347	0.0145410
947.425	0.0143751
947.503	0.0144878
947.581	0.0144491
947.660	0.0144231
947.738	0.0144275
947.816	0.0144228
947.894	0.0143506
947.972	0.0144449
948.050	0.0142490
948.128	0.0143095
948.206	0.0143816
948.285	0.0143888
948.363	0.0144020
948.441	0.0142606
948.519	0.0143388
948.597	0.0144518
948.675	0.0143967
948.753	0.0142889
948.831	0.0142395
948.910	0.0142946
948.988	0.0142918
949.066	0.0143509
949.144	0.0143429
949.222	0.0143740
949.300	0.0142802
949.378	0.0143496
949.456	0.0143860
949.535	0.0144882
949.613	0.0142725
949.691	0.0141788
949.769	0.0143092
949.847	0.0142641
949.925	0.0143602
950.003	0.0143214
950.081	0.0142634
950.160	0.0142329
950.238	0.0142516
950.316	0.0142367
950.394	0.0142424
950.472	0.0142481
950.550	0.0143027
950.628	0.0142484
950.706	0.0142772
950.785	0.0143230
950.863	0.0141481
950.941	0.0142387
951.019	0.0143341
951.097	0.0143450
951.175	0.0142120
951.253	0.0142598
951.331	0.0142358
951.410	0.0143027
951.488	0.0141241
951.566	0.0143530
951.644	0.0142740
951.722	0.0141414
951.800	0.0140721
951.878	0.0141737
951.956	0.0142753
952.035	0.0142080
952.113	0.0142529
952.191	0.0142387
952.269	0.0143163
952.347	0.0142278
952.425	0.0142713
952.503	0.0141723
952.581	0.0141637
952.660	0.0141660
952.738	0.0142763
952.816	0.0142204
952.894	0.0141792
952.972	0.0143123
953.050	0.0141983
953.128	0.0143007
953.206	0.0142664
953.285	0.0141904
953.363	0.0142800
953.441	0.0143850
953.519	0.0142910
953.597	0.0142726
953.675	0.0143082
953.753	0.0144573
953.831	0.0143840
953.910	0.0144615
953.988	0.0144826
954.066	0.0144115
954.144	0.0143790
954.222	0.0144515
954.300	0.0143023
954.378	0.0143980
954.456	0.0142569
954.535	0.0145541
954.613	0.0144332
954.691	0.0143225
954.769	0.0144366
954.847	0.0144294
954.925	0.0144891
955.003	0.0143790
955.081	0.0144303
955.160	0.0143732
955.238	0.0145579
955.316	0.0144693
955.394	0.0145314
955.472	0.0145133
955.550	0.0144363
955.628	0.0144408
955.706	0.0143351
955.785	0.0145491
955.863	0.0143761
955.941	0.0144691
956.019	0.0144128
956.097	0.0144620
956.175	0.0144170
956.253	0.0144538
956.331	0.0145521
956.410	0.0143132
956.488	0.0144075
956.566	0.0144362
956.644	0.0144417
956.722	0.0146087
956.800	0.0144318
956.878	0.0143438
956.956	0.0143726
957.035	0.0143714
957.113	0.0142482
957.191	0.0143171
957.269	0.0143449
957.347	0.0144377
957.425	0.0142747
957.503	0.0142281
957.581	0.0142181
957.660	0.0143158
957.738	0.0142577
957.816	0.0142593
957.894	0.0140572
957.972	0.0143156
958.050	0.0142513
958.128	0.0142641
958.206	0.0142178
958.285	0.0142513
958.363	0.0142595
958.441	0.0141811
958.519	0.0142857
958.597	0.0142931
958.675	0.0141553
958.753	0.0143182
958.831	0.0144025
958.910	0.0143774
958.988	0.0144051
959.066	0.0142889
959.144	0.0144196
959.222	0.0142383
959.300	0.0141579
959.378	0.0142816
959.456	0.0142241
959.535	0.0144228
959.613	0.0143708
959.691	0.0144407
959.769	0.0143713
959.847	0.0143385
959.925	0.0143220
960.003	0.0142263
960.081	0.0142049
960.160	0.0144675
960.238	0.0143039
960.316	0.0143087
960.394	0.0143316
960.472	0.0143562
960.550	0.0142949
960.628	0.0143851
960.706	0.0143371
960.785	0.0141788
960.863	0.0143006
960.941	0.0143726
961.019	0.0144524
961.097	0.0143830
961.175	0.0142666
961.253	0.0143918
961.331	0.0143690
961.410	0.0144530
961.488	0.0143824
961.566	0.0143947
961.644	0.0142185
961.722	0.0144835
961.800	0.0146457
961.878	0.0143614
961.956	0.0144411
962.035	0.0144749
962.113	0.0144619
962.191	0.0144426
962.269	0.0144378
962.347	0.0143726
962.425	0.0143706
962.503	0.0144454
962.581	0.0143128
962.660	0.0144167
962.738	0.0145892
962.816	0.0144476
962.894	0.0142950
962.972	0.0142757
963.050	0.0144640
963.128	0.0144759
963.206	0.0143163
963.285	0.0143001
963.363	0.0143646
963.441	0.0144151
963.519	0.0143688
963.597	0.0144363
963.675	0.0143338
963.753	0.0142252
963.831	0.0142532
963.910	0.0142496
963.988	0.0142570
964.066	0.0143861
964.144	0.0143053
964.222	0.0143764
964.300	0.0142356
964.378	0.0143817
964.456	0.0143140
964.535	0.0143987
964.613	0.0143753
964.691	0.0142743
964.769	0.0143269
964.847	0.0143126
964.925	0.0142360
965.003	0.0144167
965.081	0.0143265
965.160	0.0143810
965.238	0.0142591
965.316	0.0143433
965.394	0.0143805
965.472	0.0143162
965.550	0.0142498
965.628	0.0142302
965.706	0.0143088
965.785	0.0143057
965.863	0.0143485
965.941	0.0142989
966.019	0.0143935
966.097	0.0143611
966.175	0.0142966
966.253	0.0143369
966.331	0.0142693
966.410	0.0144010
966.488	0.0143134
966.566	0.0143420
966.644	0.0142381
966.722	0.0143032
966.800	0.0144228
966.878	0.0143871
966.956	0.0143044
967.035	0.0142490
967.113	0.0141780
967.191	0.0143621
967.269	0.0143835
967.347	0.0143670
967.425	0.0144220
967.503	0.0142466
967.581	0.0143710
967.660	0.0142492
967.738	0.0142460
967.816	0.0143533
967.894	0.0142797
967.972	0.0143635
968.050	0.0144518
968.128	0.0142593
968.206	0.0143243
968.285	0.0144235
968.363	0.0143964
968.441	0.0143378
968.519	0.0143245
968.597	0.0143069
968.675	0.0144244
968.753	0.0142731
968.831	0.0144234
968.910	0.0144115
968.988	0.0144965
969.066	0.0144066
969.144	0.0143907
969.222	0.0144072
969.300	0.0143674
969.378	0.0144821
969.456	0.0143180
969.535	0.0143237
969.613	0.0143705
969.691	0.0143053
969.769	0.0142023
969.847	0.0142018
969.925	0.0143472
970.003	0.0143422
970.081	0.0142800
970.160	0.0142180
970.238	0.0143333
970.316	0.0143386
970.394	0.0141846
970.472	0.0143922
970.550	0.0143031
970.628	0.0141624
970.706	0.0142453
970.785	0.0143240
970.863	0.0142029
970.941	0.0141236
971.019	0.0143354
971.097	0.0143950
971.175	0.0142767
971.253	0.0143240
971.331	0.0142085
971.410	0.0141862
971.488	0.0141981
971.566	0.0141905
971.644	0.0141018
971.722	0.0141957
971.800	0.0141876
971.878	0.0141687
971.956	0.0141962
972.035	0.0141615
972.113	0.0143307
972.191	0.0141499
972.269	0.0141685
972.347	0.0142282
972.425	0.0140012
972.503	0.0141382
972.581	0.0140614
972.660	0.0140835
972.738	0.0141361
972.816	0.0140410
972.894	0.0140499
972.972	0.0140903
973.050	0.0142355
973.128	0.0141791
973.206	0.0141343
973.285	0.0142026
973.363	0.0140630
973.441	0.0141003
973.519	0.0141633
973.597	0.0141499
973.675	0.0141668
973.753	0.0142802
973.831	0.0141061
973.910	0.0140564
973.988	0.0141953
974.066	0.0140561
974.144	0.0142595
974.222	0.0140867
974.300	0.0142142
974.378	0.0142304
974.456	0.0141611
974.535	0.0141656
974.613	0.0141893
974.691	0.0141160
974.769	0.0142651
974.847	0.0140820
974.925	0.0141592
975.003	0.0141673
975.081	0.0141842
975.160	0.0142399
975.238	0.0140941
975.316	0.0141879
975.394	0.0141854
975.472	0.0142182
975.550	0.0142022
975.628	0.0142255
975.706	0.0142563
975.785	0.0141932
975.863	0.0143208
975.941	0.0142374
976.019	0.0142901
976.097	0.0143104
976.175	0.0143221
976.253	0.0143156
976.331	0.0143140
976.410	0.0143064
976.488	0.0143247
976.566	0.0144160
976.644	0.0143587
976.722	0.0144093
976.800	0.0142602
976.878	0.0144846
976.956	0.0142690
977.035	0.0142963
977.113	0.0144894
977.191	0.0144030
977.269	0.0142567
977.347	0.0143375
977.425	0.0143224
977.503	0.0143121
977.581	0.0143130
977.660	0.0142959
977.738	0.0142749
977.816	0.0143955
977.894	0.0143423
977.972	0.0143291
978.050	0.0141881
978.128	0.0142648
978.206	0.0142762
978.285	0.0143050
978.363	0.0142424
978.441	0.0142064
978.519	0.0142486
978.597	0.0143143
978.675	0.0141759
978.753	0.0141814
978.831	0.0142386
978.910	0.0142666
978.988	0.0142918
979.066	0.0142902
979.144	0.0141459
979.222	0.0143372
979.300	0.0142864
979.378	0.0142560
979.456	0.0142334
979.535	0.0142834
979.613	0.0142768
979.691	0.0143881
979.769	0.0142678
979.847	0.0142772
979.925	0.0141605
