05/20/2022	16:15:16	Ver.	4.1	UNKNOWN
Optical Delay	639.982744	Delta X		0.078125	Sweeps	1	Scan Rate	0/0
Coordinates	Axis 1	NaN	Axis 2	NaN	Axis 3	NaN	Axis 4	NaN	Axis 5	NaN	Axis 6	0.000000
TX Power	0.000000	RX Power	0.000000

639.983	0.0146758
640.061	0.0146535
640.139	0.0146848
640.217	0.0145888
640.295	0.0148042
640.373	0.0145949
640.451	0.0145660
640.530	0.0147162
640.608	0.0147031
640.686	0.0146938
640.764	0.0147346
640.842	0.0147234
640.920	0.0146690
640.998	0.0146835
641.076	0.0147323
641.155	0.0146020
641.233	0.0145589
641.311	0.0146722
641.389	0.0147149
641.467	0.0146662
641.545	0.0146419
641.623	0.0146206
641.701	0.0146341
641.780	0.0147166
641.858	0.0147405
641.936	0.0147359
642.014	0.0147168
642.092	0.0147355
642.170	0.0145301
642.248	0.0146294
642.326	0.0147973
642.405	0.0147250
642.483	0.0145997
642.561	0.0145623
642.639	0.0147485
642.717	0.0146416
642.795	0.0146685
642.873	0.0146144
642.951	0.0145171
643.030	0.0145980
643.108	0.0146613
643.186	0.0146593
643.264	0.0146169
643.342	0.0145775
643.420	0.0144954
643.498	0.0144975
643.576	0.0145876
643.655	0.0147005
643.733	0.0146598
643.811	0.0146701
643.889	0.0146718
643.967	0.0146074
644.045	0.0147469
644.123	0.0146716
644.201	0.0146510
644.280	0.0147067
644.358	0.0147741
644.436	0.0145317
644.514	0.0146719
644.592	0.0146196
644.670	0.0146371
644.748	0.0146104
644.826	0.0147147
644.905	0.0146290
644.983	0.0146456
645.061	0.0146066
645.139	0.0145198
645.217	0.0146206
645.295	0.0147507
645.373	0.0148383
645.451	0.0145593
645.530	0.0146892
645.608	0.0145670
645.686	0.0146143
645.764	0.0146685
645.842	0.0146375
645.920	0.0146472
645.998	0.0145826
646.076	0.0146535
646.155	0.0147099
646.233	0.0146665
646.311	0.0147422
646.389	0.0147221
646.467	0.0146294
646.545	0.0145657
646.623	0.0145049
646.701	0.0146543
646.780	0.0146996
646.858	0.0146929
646.936	0.0145393
647.014	0.0145282
647.092	0.0145465
647.170	0.0146392
647.248	0.0146311
647.326	0.0146258
647.405	0.0147588
647.483	0.0147215
647.561	0.0146808
647.639	0.0146618
647.717	0.0147775
647.795	0.0145506
647.873	0.0147034
647.951	0.0147250
648.030	0.0146419
648.108	0.0146992
648.186	0.0147363
648.264	0.0146114
648.342	0.0146436
648.420	0.0145089
648.498	0.0146233
648.576	0.0146882
648.655	0.0145921
648.733	0.0147342
648.811	0.0148155
648.889	0.0146288
648.967	0.0146223
649.045	0.0146132
649.123	0.0145441
649.201	0.0145597
649.280	0.0147942
649.358	0.0146229
649.436	0.0147869
649.514	0.0147830
649.592	0.0147044
649.670	0.0145686
649.748	0.0146771
649.826	0.0147061
649.905	0.0146271
649.983	0.0146851
650.061	0.0146967
650.139	0.0146390
650.217	0.0147924
650.295	0.0147798
650.373	0.0146949
650.451	0.0146550
650.530	0.0146770
650.608	0.0145705
650.686	0.0146707
650.764	0.0148350
650.842	0.0146989
650.920	0.0148796
650.998	0.0148000
651.076	0.0145867
651.155	0.0147730
651.233	0.0147213
651.311	0.0147090
651.389	0.0145951
651.467	0.0146149
651.545	0.0147998
651.623	0.0145711
651.701	0.0147213
651.780	0.0147831
651.858	0.0147757
651.936	0.0146720
652.014	0.0147189
652.092	0.0147991
652.170	0.0146922
652.248	0.0147006
652.326	0.0147215
652.405	0.0148148
652.483	0.0147690
652.561	0.0146748
652.639	0.0146882
652.717	0.0147610
652.795	0.0146708
652.873	0.0147220
652.951	0.0146676
653.030	0.0145672
653.108	0.0147845
653.186	0.0147745
653.264	0.0147838
653.342	0.0147070
653.420	0.0147731
653.498	0.0146732
653.576	0.0147919
653.655	0.0147017
653.733	0.0147858
653.811	0.0147194
653.889	0.0148360
653.967	0.0146331
654.045	0.0147543
654.123	0.0147403
654.201	0.0146798
654.280	0.0146616
654.358	0.0147191
654.436	0.0146731
654.514	0.0146898
654.592	0.0147202
654.670	0.0146593
654.748	0.0146095
654.826	0.0147475
654.905	0.0147200
654.983	0.0144982
655.061	0.0145744
655.139	0.0148175
655.217	0.0146204
655.295	0.0145904
655.373	0.0148014
655.451	0.0145721
655.530	0.0147128
655.608	0.0147533
655.686	0.0146758
655.764	0.0146551
655.842	0.0146891
655.920	0.0147025
655.998	0.0146076
656.076	0.0146738
656.155	0.0146906
656.233	0.0146571
656.311	0.0145692
656.389	0.0146381
656.467	0.0146893
656.545	0.0146522
656.623	0.0146408
656.701	0.0146451
656.780	0.0147445
656.858	0.0147667
656.936	0.0147459
657.014	0.0147258
657.092	0.0146768
657.170	0.0146626
657.248	0.0147839
657.326	0.0146941
657.405	0.0147298
657.483	0.0147433
657.561	0.0146836
657.639	0.0147260
657.717	0.0148029
657.795	0.0147860
657.873	0.0146748
657.951	0.0146170
658.030	0.0147254
658.108	0.0147920
658.186	0.0147810
658.264	0.0146170
658.342	0.0146832
658.420	0.0148675
658.498	0.0147364
658.576	0.0145943
658.655	0.0146471
658.733	0.0147741
658.811	0.0147833
658.889	0.0146904
658.967	0.0146374
659.045	0.0145802
659.123	0.0147250
659.201	0.0145810
659.280	0.0147263
659.358	0.0146921
659.436	0.0147765
659.514	0.0145696
659.592	0.0146854
659.670	0.0147274
659.748	0.0145564
659.826	0.0146692
659.905	0.0147050
659.983	0.0147323
660.061	0.0147850
660.139	0.0146208
660.217	0.0146700
660.295	0.0147729
660.373	0.0147475
660.451	0.0148372
660.530	0.0146074
660.608	0.0147861
660.686	0.0148016
660.764	0.0147029
660.842	0.0145587
660.920	0.0146255
660.998	0.0147237
661.076	0.0147408
661.155	0.0146687
661.233	0.0146230
661.311	0.0147559
661.389	0.0147450
661.467	0.0147411
661.545	0.0147488
661.623	0.0145803
661.701	0.0145875
661.780	0.0146526
661.858	0.0147321
661.936	0.0147704
662.014	0.0145748
662.092	0.0146835
662.170	0.0145485
662.248	0.0146375
662.326	0.0146730
662.405	0.0145819
662.483	0.0147111
662.561	0.0146425
662.639	0.0146242
662.717	0.0147331
662.795	0.0146768
662.873	0.0147324
662.951	0.0147078
663.030	0.0146440
663.108	0.0145404
663.186	0.0144932
663.264	0.0148031
663.342	0.0146526
663.420	0.0147215
663.498	0.0148276
663.576	0.0146040
663.655	0.0146629
663.733	0.0146053
663.811	0.0148389
663.889	0.0145503
663.967	0.0146521
664.045	0.0147885
664.123	0.0147697
664.201	0.0145927
664.280	0.0146774
664.358	0.0145119
664.436	0.0146888
664.514	0.0146935
664.592	0.0146462
664.670	0.0147205
664.748	0.0146529
664.826	0.0145711
664.905	0.0145662
664.983	0.0145996
665.061	0.0146895
665.139	0.0147735
665.217	0.0145762
665.295	0.0147285
665.373	0.0145785
665.451	0.0144730
665.530	0.0146558
665.608	0.0145857
665.686	0.0147022
665.764	0.0145885
665.842	0.0146740
665.920	0.0147674
665.998	0.0146630
666.076	0.0146306
666.155	0.0144954
666.233	0.0145411
666.311	0.0146599
666.389	0.0147018
666.467	0.0146928
666.545	0.0148219
666.623	0.0146983
666.701	0.0147131
666.780	0.0146448
666.858	0.0146111
666.936	0.0146816
667.014	0.0146580
667.092	0.0146302
667.170	0.0146258
667.248	0.0147765
667.326	0.0146083
667.405	0.0147423
667.483	0.0147327
667.561	0.0146115
667.639	0.0146391
667.717	0.0147792
667.795	0.0147717
667.873	0.0145356
667.951	0.0147018
668.030	0.0147070
668.108	0.0146379
668.186	0.0146384
668.264	0.0146662
668.342	0.0146959
668.420	0.0146477
668.498	0.0147288
668.576	0.0147615
668.655	0.0148057
668.733	0.0146907
668.811	0.0146643
668.889	0.0146143
668.967	0.0147267
669.045	0.0146037
669.123	0.0146450
669.201	0.0146437
669.280	0.0145163
669.358	0.0145976
669.436	0.0147063
669.514	0.0145831
669.592	0.0146153
669.670	0.0145047
669.748	0.0146828
669.826	0.0146111
669.905	0.0146006
669.983	0.0146537
670.061	0.0146298
670.139	0.0147289
670.217	0.0146210
670.295	0.0145239
670.373	0.0146564
670.451	0.0147717
670.530	0.0146405
670.608	0.0145738
670.686	0.0147098
670.764	0.0146241
670.842	0.0146346
670.920	0.0146404
670.998	0.0147809
671.076	0.0147245
671.155	0.0146284
671.233	0.0147121
671.311	0.0147677
671.389	0.0147182
671.467	0.0146986
671.545	0.0147010
671.623	0.0146514
671.701	0.0147269
671.780	0.0145969
671.858	0.0146999
671.936	0.0145867
672.014	0.0144814
672.092	0.0146030
672.170	0.0146088
672.248	0.0147826
672.326	0.0148040
672.405	0.0146944
672.483	0.0146627
672.561	0.0146140
672.639	0.0146896
672.717	0.0147997
672.795	0.0146616
672.873	0.0146184
672.951	0.0146856
673.030	0.0146710
673.108	0.0147433
673.186	0.0146650
673.264	0.0146593
673.342	0.0145682
673.420	0.0146339
673.498	0.0147595
673.576	0.0146208
673.655	0.0146199
673.733	0.0146928
673.811	0.0146957
673.889	0.0146677
673.967	0.0147585
674.045	0.0146834
674.123	0.0146930
674.201	0.0145266
674.280	0.0146344
674.358	0.0147247
674.436	0.0145779
674.514	0.0146077
674.592	0.0147794
674.670	0.0146233
674.748	0.0146922
674.826	0.0144414
674.905	0.0145940
674.983	0.0147907
675.061	0.0146474
675.139	0.0145924
675.217	0.0146651
675.295	0.0146719
675.373	0.0146246
675.451	0.0146070
675.530	0.0145490
675.608	0.0145455
675.686	0.0146089
675.764	0.0146197
675.842	0.0145166
675.920	0.0143848
675.998	0.0146114
676.076	0.0146490
676.155	0.0146415
676.233	0.0146057
676.311	0.0146114
676.389	0.0145242
676.467	0.0145175
676.545	0.0145162
676.623	0.0144856
676.701	0.0145808
676.780	0.0145762
676.858	0.0147043
676.936	0.0146126
677.014	0.0145646
677.092	0.0146154
677.170	0.0145313
677.248	0.0145634
677.326	0.0146906
677.405	0.0145968
677.483	0.0144732
677.561	0.0143586
677.639	0.0144706
677.717	0.0147416
677.795	0.0145795
677.873	0.0144625
677.951	0.0147069
678.030	0.0146407
678.108	0.0146967
678.186	0.0146520
678.264	0.0145947
678.342	0.0145039
678.420	0.0147209
678.498	0.0147295
678.576	0.0145615
678.655	0.0146311
678.733	0.0146021
678.811	0.0145741
678.889	0.0146245
678.967	0.0145695
679.045	0.0146537
679.123	0.0145606
679.201	0.0145495
679.280	0.0146584
679.358	0.0147338
679.436	0.0147601
679.514	0.0145567
679.592	0.0145562
679.670	0.0147096
679.748	0.0147049
679.826	0.0146776
679.905	0.0146924
679.983	0.0146694
680.061	0.0147655
680.139	0.0146904
680.217	0.0146575
680.295	0.0146602
680.373	0.0146400
680.451	0.0146948
680.530	0.0146305
680.608	0.0147523
680.686	0.0147941
680.764	0.0147291
680.842	0.0146799
680.920	0.0147009
680.998	0.0147818
681.076	0.0147302
681.155	0.0147468
681.233	0.0147012
681.311	0.0147462
681.389	0.0148896
681.467	0.0146824
681.545	0.0145754
681.623	0.0148162
681.701	0.0147186
681.780	0.0146465
681.858	0.0146850
681.936	0.0147688
682.014	0.0146544
682.092	0.0146407
682.170	0.0146529
682.248	0.0146973
682.326	0.0146961
682.405	0.0147052
682.483	0.0146322
682.561	0.0146404
682.639	0.0145803
682.717	0.0145293
682.795	0.0148157
682.873	0.0148268
682.951	0.0147352
683.030	0.0147047
683.108	0.0148367
683.186	0.0149432
683.264	0.0150856
683.342	0.0147593
683.420	0.0148175
683.498	0.0148736
683.576	0.0149426
683.655	0.0148699
683.733	0.0147555
683.811	0.0147138
683.889	0.0146675
683.967	0.0146017
684.045	0.0146109
684.123	0.0146503
684.201	0.0146513
684.280	0.0147095
684.358	0.0147960
684.436	0.0146274
684.514	0.0146302
684.592	0.0146072
684.670	0.0146537
684.748	0.0146341
684.826	0.0146183
684.905	0.0145926
684.983	0.0146983
685.061	0.0147150
685.139	0.0147276
685.217	0.0146770
685.295	0.0147483
685.373	0.0148556
685.451	0.0147955
685.530	0.0149084
685.608	0.0148430
685.686	0.0148279
685.764	0.0149142
685.842	0.0150774
685.920	0.0149332
685.998	0.0150915
686.076	0.0150059
686.155	0.0149739
686.233	0.0148589
686.311	0.0148631
686.389	0.0148797
686.467	0.0149374
686.545	0.0146674
686.623	0.0146639
686.701	0.0145675
686.780	0.0146185
686.858	0.0144911
686.936	0.0145872
687.014	0.0145229
687.092	0.0145644
687.170	0.0146194
687.248	0.0147035
687.326	0.0146614
687.405	0.0147821
687.483	0.0146089
687.561	0.0146755
687.639	0.0147567
687.717	0.0146400
687.795	0.0144956
687.873	0.0147513
687.951	0.0144910
688.030	0.0144744
688.108	0.0144851
688.186	0.0145381
688.264	0.0147589
688.342	0.0146971
688.420	0.0146087
688.498	0.0146967
688.576	0.0146333
688.655	0.0147083
688.733	0.0147449
688.811	0.0147250
688.889	0.0145466
688.967	0.0145464
689.045	0.0145502
689.123	0.0147588
689.201	0.0146379
689.280	0.0145857
689.358	0.0146114
689.436	0.0145902
689.514	0.0146148
689.592	0.0147465
689.670	0.0150190
689.748	0.0151022
689.826	0.0150251
689.905	0.0151746
689.983	0.0151230
690.061	0.0150667
690.139	0.0149774
690.217	0.0151811
690.295	0.0150890
690.373	0.0149236
690.451	0.0150114
690.530	0.0149152
690.608	0.0149259
690.686	0.0148992
690.764	0.0148191
690.842	0.0148116
690.920	0.0147260
690.998	0.0147229
691.076	0.0146526
691.155	0.0144547
691.233	0.0143227
691.311	0.0143299
691.389	0.0140956
691.467	0.0139928
691.545	0.0138557
691.623	0.0137194
691.701	0.0136674
691.780	0.0136791
691.858	0.0134952
691.936	0.0137218
692.014	0.0137464
692.092	0.0138518
692.170	0.0140657
692.248	0.0141227
692.326	0.0143183
692.405	0.0143290
692.483	0.0145346
692.561	0.0146765
692.639	0.0148466
692.717	0.0149097
692.795	0.0150495
692.873	0.0150667
692.951	0.0150117
693.030	0.0150417
693.108	0.0149755
693.186	0.0151063
693.264	0.0151233
693.342	0.0151472
693.420	0.0153233
693.498	0.0153793
693.576	0.0154678
693.655	0.0152487
693.733	0.0154082
693.811	0.0154440
693.889	0.0152482
693.967	0.0152886
694.045	0.0150026
694.123	0.0148566
694.201	0.0147675
694.280	0.0145381
694.358	0.0145645
694.436	0.0144507
694.514	0.0145945
694.592	0.0144664
694.670	0.0144717
694.748	0.0146214
694.826	0.0147095
694.905	0.0149667
694.983	0.0150442
695.061	0.0149883
695.139	0.0153584
695.217	0.0152374
695.295	0.0153022
695.373	0.0153799
695.451	0.0153349
695.530	0.0152531
695.608	0.0153033
695.686	0.0151888
695.764	0.0148537
695.842	0.0146344
695.920	0.0145538
695.998	0.0143844
696.076	0.0141678
696.155	0.0138079
696.233	0.0136436
696.311	0.0134586
696.389	0.0132085
696.467	0.0130405
696.545	0.0127912
696.623	0.0127451
696.701	0.0124500
696.780	0.0123873
696.858	0.0123130
696.936	0.0122120
697.014	0.0122128
697.092	0.0121899
697.170	0.0122401
697.248	0.0124092
697.326	0.0129371
697.405	0.0131045
697.483	0.0134549
697.561	0.0136363
697.639	0.0139704
697.717	0.0144564
697.795	0.0147395
697.873	0.0151547
697.951	0.0156564
698.030	0.0159541
698.108	0.0165047
698.186	0.0169073
698.264	0.0175719
698.342	0.0180080
698.420	0.0183608
698.498	0.0185323
698.576	0.0188590
698.655	0.0190948
698.733	0.0190425
698.811	0.0189337
698.889	0.0188345
698.967	0.0186280
699.045	0.0182458
699.123	0.0179007
699.201	0.0174919
699.280	0.0170296
699.358	0.0162911
699.436	0.0158174
699.514	0.0151871
699.592	0.0144299
699.670	0.0140840
699.748	0.0135499
699.826	0.0132559
699.905	0.0127514
699.983	0.0124100
700.061	0.0119646
700.139	0.0119273
700.217	0.0116677
700.295	0.0113803
700.373	0.0111325
700.451	0.0110681
700.530	0.0109806
700.608	0.0108413
700.686	0.0106914
700.764	0.0108041
700.842	0.0107494
700.920	0.0108702
700.998	0.0109171
701.076	0.0110897
701.155	0.0113670
701.233	0.0114565
701.311	0.0118916
701.389	0.0122861
701.467	0.0125212
701.545	0.0127969
701.623	0.0133055
701.701	0.0137357
701.780	0.0139880
701.858	0.0142298
701.936	0.0145710
702.014	0.0150733
702.092	0.0154770
702.170	0.0158930
702.248	0.0162986
702.326	0.0168703
702.405	0.0173579
702.483	0.0178088
702.561	0.0181942
702.639	0.0184535
702.717	0.0187134
702.795	0.0187328
702.873	0.0186762
702.951	0.0186696
703.030	0.0185287
703.108	0.0181937
703.186	0.0180273
703.264	0.0176685
703.342	0.0172971
703.420	0.0171789
703.498	0.0167873
703.576	0.0166018
703.655	0.0164438
703.733	0.0164297
703.811	0.0161652
703.889	0.0162522
703.967	0.0161465
704.045	0.0160887
704.123	0.0160904
704.201	0.0158078
704.280	0.0157709
704.358	0.0155383
704.436	0.0151505
704.514	0.0146890
704.592	0.0143076
704.670	0.0136050
704.748	0.0131234
704.826	0.0125617
704.905	0.0119007
704.983	0.0114583
705.061	0.0111191
705.139	0.0107944
705.217	0.0105346
705.295	0.0105529
705.373	0.0106102
705.451	0.0107193
705.530	0.0110619
705.608	0.0111333
705.686	0.0117792
705.764	0.0121621
705.842	0.0124474
705.920	0.0126767
705.998	0.0133603
706.076	0.0136433
706.155	0.0139783
706.233	0.0141830
706.311	0.0142554
706.389	0.0142855
706.467	0.0143225
706.545	0.0143687
706.623	0.0145789
706.701	0.0146085
706.780	0.0144690
706.858	0.0142803
706.936	0.0143117
707.014	0.0142025
707.092	0.0141305
707.170	0.0140244
707.248	0.0139684
707.326	0.0139142
707.405	0.0139692
707.483	0.0141219
707.561	0.0141560
707.639	0.0143110
707.717	0.0147320
707.795	0.0149679
707.873	0.0153821
707.951	0.0159076
708.030	0.0165062
708.108	0.0170213
708.186	0.0176199
708.264	0.0180922
708.342	0.0185768
708.420	0.0190752
708.498	0.0193901
708.576	0.0194048
708.655	0.0193902
708.733	0.0192779
708.811	0.0191045
708.889	0.0187206
708.967	0.0184491
709.045	0.0179556
709.123	0.0176024
709.201	0.0171074
709.280	0.0167178
709.358	0.0164846
709.436	0.0161944
709.514	0.0159570
709.592	0.0159890
709.670	0.0157410
709.748	0.0154908
709.826	0.0154454
709.905	0.0152036
709.983	0.0150115
710.061	0.0145468
710.139	0.0139787
710.217	0.0134979
710.295	0.0128474
710.373	0.0121514
710.451	0.0116103
710.530	0.0111061
710.608	0.0107245
710.686	0.0103754
710.764	0.0100676
710.842	0.00982826
710.920	0.00972130
710.998	0.00958023
711.076	0.00987396
711.155	0.0100411
711.233	0.0102027
711.311	0.0106625
711.389	0.0110327
711.467	0.0113866
711.545	0.0118599
711.623	0.0123547
711.701	0.0126666
711.780	0.0132832
711.858	0.0137716
711.936	0.0142397
712.014	0.0146457
712.092	0.0150669
712.170	0.0155161
712.248	0.0156758
712.326	0.0159570
712.405	0.0160667
712.483	0.0160915
712.561	0.0161140
712.639	0.0157919
712.717	0.0155483
712.795	0.0152685
712.873	0.0150257
712.951	0.0145219
713.030	0.0144493
713.108	0.0143179
713.186	0.0139316
713.264	0.0139225
713.342	0.0140700
713.420	0.0143853
713.498	0.0146803
713.576	0.0152676
713.655	0.0157951
713.733	0.0165395
713.811	0.0172802
713.889	0.0176583
713.967	0.0184249
714.045	0.0189793
714.123	0.0193198
714.201	0.0195961
714.280	0.0198483
714.358	0.0199776
714.436	0.0198738
714.514	0.0197386
714.592	0.0194046
714.670	0.0189945
714.748	0.0185958
714.826	0.0179095
714.905	0.0175365
714.983	0.0168405
715.061	0.0163959
715.139	0.0157988
715.217	0.0151237
715.295	0.0147038
715.373	0.0142815
715.451	0.0139339
715.530	0.0135322
715.608	0.0130866
715.686	0.0128722
715.764	0.0126151
715.842	0.0125583
715.920	0.0121270
715.998	0.0120159
716.076	0.0118488
716.155	0.0115450
716.233	0.0113218
716.311	0.0110697
716.389	0.0108662
716.467	0.0106767
716.545	0.0103590
716.623	0.0103419
716.701	0.0104420
716.780	0.0102848
716.858	0.0103799
716.936	0.0104270
717.014	0.0107390
717.092	0.0108887
717.170	0.0111308
717.248	0.0114915
717.326	0.0119140
717.405	0.0123744
717.483	0.0129270
717.561	0.0135200
717.639	0.0139479
717.717	0.0146196
717.795	0.0154173
717.873	0.0157220
717.951	0.0162444
718.030	0.0168642
718.108	0.0171979
718.186	0.0173214
718.264	0.0175644
718.342	0.0175449
718.420	0.0175314
718.498	0.0170423
718.576	0.0166712
718.655	0.0162543
718.733	0.0158049
718.811	0.0154462
718.889	0.0147565
718.967	0.0140882
719.045	0.0137505
719.123	0.0135864
719.201	0.0135166
719.280	0.0134796
719.358	0.0136122
719.436	0.0137587
719.514	0.0141249
719.592	0.0146145
719.670	0.0149097
719.748	0.0155057
719.826	0.0159350
719.905	0.0164812
719.983	0.0170605
720.061	0.0173171
720.139	0.0176900
720.217	0.0180831
720.295	0.0183278
720.373	0.0185728
720.451	0.0187794
720.530	0.0187968
720.608	0.0188089
720.686	0.0187302
720.764	0.0186269
720.842	0.0182001
720.920	0.0178804
720.998	0.0173704
721.076	0.0168696
721.155	0.0162475
721.233	0.0157359
721.311	0.0151096
721.389	0.0146448
721.467	0.0142931
721.545	0.0136573
721.623	0.0133008
721.701	0.0131580
721.780	0.0128551
721.858	0.0127578
721.936	0.0126351
722.014	0.0126616
722.092	0.0124851
722.170	0.0124625
722.248	0.0121254
722.326	0.0119166
722.405	0.0117726
722.483	0.0113327
722.561	0.0109740
722.639	0.0106022
722.717	0.0104053
722.795	0.0101704
722.873	0.0100853
722.951	0.00996078
723.030	0.0101836
723.108	0.0103675
723.186	0.0108212
723.264	0.0112518
723.342	0.0117964
723.420	0.0123188
723.498	0.0130529
723.576	0.0135688
723.655	0.0141443
723.733	0.0145693
723.811	0.0149198
723.889	0.0154366
723.967	0.0158074
724.045	0.0161001
724.123	0.0162159
724.201	0.0165163
724.280	0.0165755
724.358	0.0169077
724.436	0.0168855
724.514	0.0170145
724.592	0.0169556
724.670	0.0169633
724.748	0.0168098
724.826	0.0167886
724.905	0.0165816
724.983	0.0162976
725.061	0.0160702
725.139	0.0156540
725.217	0.0151850
725.295	0.0150273
725.373	0.0147543
725.451	0.0145235
725.530	0.0144157
725.608	0.0141611
725.686	0.0142459
725.764	0.0144845
725.842	0.0147250
725.920	0.0149609
725.998	0.0152271
726.076	0.0155130
726.155	0.0159953
726.233	0.0163274
726.311	0.0167631
726.389	0.0169466
726.467	0.0171262
726.545	0.0173921
726.623	0.0175085
726.701	0.0174310
726.780	0.0173954
726.858	0.0173537
726.936	0.0170946
727.014	0.0168242
727.092	0.0163804
727.170	0.0162194
727.248	0.0159347
727.326	0.0153460
727.405	0.0151712
727.483	0.0149651
727.561	0.0145847
727.639	0.0142760
727.717	0.0139010
727.795	0.0136085
727.873	0.0133187
727.951	0.0133493
728.030	0.0133670
728.108	0.0130411
728.186	0.0128928
728.264	0.0127583
728.342	0.0128410
728.420	0.0127634
728.498	0.0126253
728.576	0.0123869
728.655	0.0123770
728.733	0.0122771
728.811	0.0121416
728.889	0.0119994
728.967	0.0118611
729.045	0.0117917
729.123	0.0118489
729.201	0.0116586
729.280	0.0116106
729.358	0.0116874
729.436	0.0118581
729.514	0.0121765
729.592	0.0124466
729.670	0.0127157
729.748	0.0129951
729.826	0.0133163
729.905	0.0139036
729.983	0.0143462
730.061	0.0148328
730.139	0.0153687
730.217	0.0158397
730.295	0.0162012
730.373	0.0166969
730.451	0.0170394
730.530	0.0173391
730.608	0.0176187
730.686	0.0177911
730.764	0.0177806
730.842	0.0177898
730.920	0.0176974
730.998	0.0175085
731.076	0.0173339
731.155	0.0168629
731.233	0.0164758
731.311	0.0159759
731.389	0.0154259
731.467	0.0150952
731.545	0.0146526
731.623	0.0140153
731.701	0.0138045
731.780	0.0135581
731.858	0.0132928
731.936	0.0132003
732.014	0.0132846
732.092	0.0132304
732.170	0.0134319
732.248	0.0137224
732.326	0.0138470
732.405	0.0141129
732.483	0.0145930
732.561	0.0150540
732.639	0.0153835
732.717	0.0158316
732.795	0.0161579
732.873	0.0163934
732.951	0.0167139
733.030	0.0168884
733.108	0.0169493
733.186	0.0169773
733.264	0.0169852
733.342	0.0167789
733.420	0.0164376
733.498	0.0161655
733.576	0.0158862
733.655	0.0155495
733.733	0.0151027
733.811	0.0148077
733.889	0.0145776
733.967	0.0141004
734.045	0.0137385
734.123	0.0135602
734.201	0.0135084
734.280	0.0133533
734.358	0.0132977
734.436	0.0132695
734.514	0.0132299
734.592	0.0131610
734.670	0.0132314
734.748	0.0133636
734.826	0.0134841
734.905	0.0134943
734.983	0.0136160
735.061	0.0137123
735.139	0.0136898
735.217	0.0136226
735.295	0.0135837
735.373	0.0134980
735.451	0.0135227
735.530	0.0134247
735.608	0.0133395
735.686	0.0134172
735.764	0.0132829
735.842	0.0133305
735.920	0.0133212
735.998	0.0132310
736.076	0.0135272
736.155	0.0137717
736.233	0.0138973
736.311	0.0141724
736.389	0.0145379
736.467	0.0147659
736.545	0.0150549
736.623	0.0153885
736.701	0.0156734
736.780	0.0158070
736.858	0.0160081
736.936	0.0162351
737.014	0.0164378
737.092	0.0165270
737.170	0.0165845
737.248	0.0164288
737.326	0.0163038
737.405	0.0162273
737.483	0.0158237
737.561	0.0155777
737.639	0.0152582
737.717	0.0150562
737.795	0.0146433
737.873	0.0144077
737.951	0.0140313
738.030	0.0138018
738.108	0.0136013
738.186	0.0135759
738.264	0.0133482
738.342	0.0133564
738.420	0.0134933
738.498	0.0135889
738.576	0.0136464
738.655	0.0139101
738.733	0.0142348
738.811	0.0145251
738.889	0.0146685
738.967	0.0150815
739.045	0.0153099
739.123	0.0154253
739.201	0.0155448
739.280	0.0159270
739.358	0.0158589
739.436	0.0160027
739.514	0.0160069
739.592	0.0160728
739.670	0.0159249
739.748	0.0158851
739.826	0.0157923
739.905	0.0154827
739.983	0.0154970
740.061	0.0151661
740.139	0.0150560
740.217	0.0149017
740.295	0.0147704
740.373	0.0146136
740.451	0.0145692
740.530	0.0143858
740.608	0.0143742
740.686	0.0143587
740.764	0.0143470
740.842	0.0141344
740.920	0.0142338
740.998	0.0142790
741.076	0.0142577
741.155	0.0142068
741.233	0.0140559
741.311	0.0140910
741.389	0.0140838
741.467	0.0140356
741.545	0.0141032
741.623	0.0139542
741.701	0.0139418
741.780	0.0138466
741.858	0.0137687
741.936	0.0136771
742.014	0.0135675
742.092	0.0135977
742.170	0.0135245
742.248	0.0133941
742.326	0.0134203
742.405	0.0135058
742.483	0.0136224
742.561	0.0136260
742.639	0.0139905
742.717	0.0141042
742.795	0.0142264
742.873	0.0145338
742.951	0.0147055
743.030	0.0149834
743.108	0.0152029
743.186	0.0153738
743.264	0.0156272
743.342	0.0158567
743.420	0.0158507
743.498	0.0156607
743.576	0.0158051
743.655	0.0156146
743.733	0.0154980
743.811	0.0153533
743.889	0.0151681
743.967	0.0150237
744.045	0.0150005
744.123	0.0145798
744.201	0.0145890
744.280	0.0146085
744.358	0.0142514
744.436	0.0143336
744.514	0.0142128
744.592	0.0142213
744.670	0.0144238
744.748	0.0141673
744.826	0.0141006
744.905	0.0143146
744.983	0.0142737
745.061	0.0145038
745.139	0.0144555
745.217	0.0144462
745.295	0.0145445
745.373	0.0147564
745.451	0.0147318
745.530	0.0146724
745.608	0.0148213
745.686	0.0149947
745.764	0.0150111
745.842	0.0148612
745.920	0.0148225
745.998	0.0149266
746.076	0.0149441
746.155	0.0148343
746.233	0.0147626
746.311	0.0148954
746.389	0.0148000
746.467	0.0148423
746.545	0.0147017
746.623	0.0149131
746.701	0.0149892
746.780	0.0149908
746.858	0.0147776
746.936	0.0147228
747.014	0.0147689
747.092	0.0148326
747.170	0.0147093
747.248	0.0146563
747.326	0.0146552
747.405	0.0146315
747.483	0.0146324
747.561	0.0146404
747.639	0.0145161
747.717	0.0145447
747.795	0.0146490
747.873	0.0146458
747.951	0.0147659
748.030	0.0145220
748.108	0.0145544
748.186	0.0144641
748.264	0.0145111
748.342	0.0143090
748.420	0.0143588
748.498	0.0141945
748.576	0.0141990
748.655	0.0141257
748.733	0.0139645
748.811	0.0141231
748.889	0.0139689
748.967	0.0139972
749.045	0.0139909
749.123	0.0141036
749.201	0.0141812
749.280	0.0143869
749.358	0.0143973
749.436	0.0146104
749.514	0.0147049
749.592	0.0148073
749.670	0.0149749
749.748	0.0150594
749.826	0.0151231
749.905	0.0150764
749.983	0.0153419
750.061	0.0152266
750.139	0.0153423
750.217	0.0152404
750.295	0.0152798
750.373	0.0151181
750.451	0.0149965
750.530	0.0151118
750.608	0.0150233
750.686	0.0150447
750.764	0.0149123
750.842	0.0146301
750.920	0.0145413
750.998	0.0144512
751.076	0.0143574
751.155	0.0142585
751.233	0.0142113
751.311	0.0141118
751.389	0.0142588
751.467	0.0142112
751.545	0.0142574
751.623	0.0142863
751.701	0.0141815
751.780	0.0143599
751.858	0.0144568
751.936	0.0145018
752.014	0.0145929
752.092	0.0147552
752.170	0.0148971
752.248	0.0147483
752.326	0.0149660
752.405	0.0148038
752.483	0.0150468
752.561	0.0150059
752.639	0.0150251
752.717	0.0148632
752.795	0.0147840
752.873	0.0147435
752.951	0.0146394
753.030	0.0146169
753.108	0.0145435
753.186	0.0144062
753.264	0.0143917
753.342	0.0146304
753.420	0.0145682
753.498	0.0144415
753.576	0.0145835
753.655	0.0144331
753.733	0.0145466
753.811	0.0146508
753.889	0.0144966
753.967	0.0145465
754.045	0.0146426
754.123	0.0146146
754.201	0.0147232
754.280	0.0149156
754.358	0.0149292
754.436	0.0150048
754.514	0.0150018
754.592	0.0149632
754.670	0.0151881
754.748	0.0150253
754.826	0.0150609
754.905	0.0149612
754.983	0.0150199
755.061	0.0148833
755.139	0.0147914
755.217	0.0148196
755.295	0.0146097
755.373	0.0145609
755.451	0.0146397
755.530	0.0145667
755.608	0.0145894
755.686	0.0146444
755.764	0.0145199
755.842	0.0145520
755.920	0.0146594
755.998	0.0147904
756.076	0.0148491
756.155	0.0147318
756.233	0.0147833
756.311	0.0146707
756.389	0.0149710
756.467	0.0149459
756.545	0.0149599
756.623	0.0149112
756.701	0.0148757
756.780	0.0150811
756.858	0.0151516
756.936	0.0149587
757.014	0.0150038
757.092	0.0150440
757.170	0.0148904
757.248	0.0148402
757.326	0.0148952
757.405	0.0147771
757.483	0.0145554
757.561	0.0144301
757.639	0.0143738
757.717	0.0143533
757.795	0.0142820
757.873	0.0141582
757.951	0.0140738
758.030	0.0139448
758.108	0.0139661
758.186	0.0141000
758.264	0.0142453
758.342	0.0142590
758.420	0.0142596
758.498	0.0143015
758.576	0.0143282
758.655	0.0145274
758.733	0.0145876
758.811	0.0145915
758.889	0.0145530
758.967	0.0148058
759.045	0.0148959
759.123	0.0148196
759.201	0.0147954
759.280	0.0148682
759.358	0.0147751
759.436	0.0148792
759.514	0.0149463
759.592	0.0148747
759.670	0.0148362
759.748	0.0148185
759.826	0.0146918
759.905	0.0148611
759.983	0.0147462
760.061	0.0146788
760.139	0.0147477
760.217	0.0145667
760.295	0.0146496
760.373	0.0145826
760.451	0.0144591
760.530	0.0143591
760.608	0.0143125
760.686	0.0143398
760.764	0.0144695
760.842	0.0144007
760.920	0.0143737
760.998	0.0144588
761.076	0.0144929
761.155	0.0145312
761.233	0.0145501
761.311	0.0144986
761.389	0.0145090
761.467	0.0146082
761.545	0.0145522
761.623	0.0146946
761.701	0.0146071
761.780	0.0146159
761.858	0.0146368
761.936	0.0146886
762.014	0.0147893
762.092	0.0148548
762.170	0.0148508
762.248	0.0148116
762.326	0.0150305
762.405	0.0149624
762.483	0.0149597
762.561	0.0149625
762.639	0.0150572
762.717	0.0149900
762.795	0.0148452
762.873	0.0151073
762.951	0.0148843
763.030	0.0148930
763.108	0.0148709
763.186	0.0147513
763.264	0.0147883
763.342	0.0146571
763.420	0.0146897
763.498	0.0145618
763.576	0.0146733
763.655	0.0146518
763.733	0.0146645
763.811	0.0145947
763.889	0.0145407
763.967	0.0146357
764.045	0.0145992
764.123	0.0143748
764.201	0.0145502
764.280	0.0144450
764.358	0.0143951
764.436	0.0143294
764.514	0.0143710
764.592	0.0144536
764.670	0.0144380
764.748	0.0142443
764.826	0.0143707
764.905	0.0143865
764.983	0.0143578
765.061	0.0143258
765.139	0.0145409
765.217	0.0144041
765.295	0.0143746
765.373	0.0144387
765.451	0.0145030
765.530	0.0143831
765.608	0.0145409
765.686	0.0145665
765.764	0.0145748
765.842	0.0143793
765.920	0.0145267
765.998	0.0144814
766.076	0.0145406
766.155	0.0145434
766.233	0.0147218
766.311	0.0146741
766.389	0.0147379
766.467	0.0147729
766.545	0.0148038
766.623	0.0150146
766.701	0.0150311
766.780	0.0148046
766.858	0.0147881
766.936	0.0147929
767.014	0.0149721
767.092	0.0147826
767.170	0.0147125
767.248	0.0147784
767.326	0.0146183
767.405	0.0146485
767.483	0.0145699
767.561	0.0144260
767.639	0.0145500
767.717	0.0144247
767.795	0.0146050
767.873	0.0145213
767.951	0.0144168
768.030	0.0145262
768.108	0.0146600
768.186	0.0145980
768.264	0.0145000
768.342	0.0147208
768.420	0.0146244
768.498	0.0144750
768.576	0.0146076
768.655	0.0146051
768.733	0.0145275
768.811	0.0146193
768.889	0.0146345
768.967	0.0145243
769.045	0.0145236
769.123	0.0146052
769.201	0.0147395
769.280	0.0146333
769.358	0.0145893
769.436	0.0147604
769.514	0.0148266
769.592	0.0147378
769.670	0.0147897
769.748	0.0147603
769.826	0.0146842
769.905	0.0146731
769.983	0.0145723
770.061	0.0148148
770.139	0.0147330
770.217	0.0148214
770.295	0.0147475
770.373	0.0146805
770.451	0.0147424
770.530	0.0148916
770.608	0.0149445
770.686	0.0149635
770.764	0.0148614
770.842	0.0147514
770.920	0.0146925
770.998	0.0147773
771.076	0.0146451
771.155	0.0145270
771.233	0.0145631
771.311	0.0147677
771.389	0.0147655
771.467	0.0146362
771.545	0.0144334
771.623	0.0145286
771.701	0.0146059
771.780	0.0146201
771.858	0.0144981
771.936	0.0145757
772.014	0.0145166
772.092	0.0146128
772.170	0.0144810
772.248	0.0144735
772.326	0.0144268
772.405	0.0144138
772.483	0.0144121
772.561	0.0145110
772.639	0.0144955
772.717	0.0145695
772.795	0.0145416
772.873	0.0144369
772.951	0.0145645
773.030	0.0146783
773.108	0.0145933
773.186	0.0145969
773.264	0.0146516
773.342	0.0146755
773.420	0.0147179
773.498	0.0146787
773.576	0.0145631
773.655	0.0147377
773.733	0.0146454
773.811	0.0145605
773.889	0.0146311
773.967	0.0144892
774.045	0.0145371
774.123	0.0147205
774.201	0.0145834
774.280	0.0147379
774.358	0.0146207
774.436	0.0146053
774.514	0.0148686
774.592	0.0147314
774.670	0.0147459
774.748	0.0147623
774.826	0.0148207
774.905	0.0147656
774.983	0.0147324
775.061	0.0147773
775.139	0.0147009
775.217	0.0147054
775.295	0.0146923
775.373	0.0147064
775.451	0.0147020
775.530	0.0146655
775.608	0.0146281
775.686	0.0146845
775.764	0.0145173
775.842	0.0147501
775.920	0.0145482
775.998	0.0145736
776.076	0.0146991
776.155	0.0146868
776.233	0.0146557
776.311	0.0147038
776.389	0.0146304
776.467	0.0145540
776.545	0.0147610
776.623	0.0148399
776.701	0.0148909
776.780	0.0150207
776.858	0.0148788
776.936	0.0149635
777.014	0.0148944
777.092	0.0149901
777.170	0.0148501
777.248	0.0148692
777.326	0.0148783
777.405	0.0147129
777.483	0.0147188
777.561	0.0147533
777.639	0.0145586
777.717	0.0146248
777.795	0.0146033
777.873	0.0146437
777.951	0.0145833
778.030	0.0145659
778.108	0.0145490
778.186	0.0147041
778.264	0.0146028
778.342	0.0147099
778.420	0.0147707
778.498	0.0147753
778.576	0.0148024
778.655	0.0147816
778.733	0.0148845
778.811	0.0146665
778.889	0.0146404
778.967	0.0147707
779.045	0.0147141
779.123	0.0148075
779.201	0.0147297
779.280	0.0147540
779.358	0.0146595
779.436	0.0147166
779.514	0.0148904
779.592	0.0146323
779.670	0.0148431
779.748	0.0147087
779.826	0.0148589
779.905	0.0148591
779.983	0.0146980
780.061	0.0147633
780.139	0.0147341
780.217	0.0147122
780.295	0.0146635
780.373	0.0145786
780.451	0.0146263
780.530	0.0146837
780.608	0.0146154
780.686	0.0145642
780.764	0.0146092
780.842	0.0145080
780.920	0.0145932
780.998	0.0146258
781.076	0.0146848
781.155	0.0147045
781.233	0.0147972
781.311	0.0147126
781.389	0.0148135
781.467	0.0147898
781.545	0.0147902
781.623	0.0148907
781.701	0.0146823
781.780	0.0148611
781.858	0.0147455
781.936	0.0147992
782.014	0.0148188
782.092	0.0146602
782.170	0.0147789
782.248	0.0148453
782.326	0.0146558
782.405	0.0146889
782.483	0.0147141
782.561	0.0146778
782.639	0.0146418
782.717	0.0147133
782.795	0.0145715
782.873	0.0146577
782.951	0.0145000
783.030	0.0145945
783.108	0.0147201
783.186	0.0146921
783.264	0.0146068
783.342	0.0146230
783.420	0.0146515
783.498	0.0146178
783.576	0.0146963
783.655	0.0147076
783.733	0.0145250
783.811	0.0148401
783.889	0.0145944
783.967	0.0145486
784.045	0.0147144
784.123	0.0147494
784.201	0.0145601
784.280	0.0146424
784.358	0.0147465
784.436	0.0148768
784.514	0.0148647
784.592	0.0147163
784.670	0.0147932
784.748	0.0148488
784.826	0.0148478
784.905	0.0148466
784.983	0.0147235
785.061	0.0147095
785.139	0.0147330
785.217	0.0145840
785.295	0.0145750
785.373	0.0146764
785.451	0.0146809
785.530	0.0144566
785.608	0.0146216
785.686	0.0147050
785.764	0.0147636
785.842	0.0146703
785.920	0.0147569
785.998	0.0148428
786.076	0.0148049
786.155	0.0149055
786.233	0.0147309
786.311	0.0149660
786.389	0.0149625
786.467	0.0149226
786.545	0.0150227
786.623	0.0149563
786.701	0.0149745
786.780	0.0148916
786.858	0.0148712
786.936	0.0149204
787.014	0.0148915
787.092	0.0147939
787.170	0.0146251
787.248	0.0146877
787.326	0.0145339
787.405	0.0146962
787.483	0.0145447
787.561	0.0144435
787.639	0.0144855
787.717	0.0145599
787.795	0.0145836
787.873	0.0143652
787.951	0.0143969
788.030	0.0143612
788.108	0.0143906
788.186	0.0144550
788.264	0.0145573
788.342	0.0145563
788.420	0.0144875
788.498	0.0145618
788.576	0.0145599
788.655	0.0146707
788.733	0.0146475
788.811	0.0144787
788.889	0.0145852
788.967	0.0146763
789.045	0.0147807
789.123	0.0147035
789.201	0.0146375
789.280	0.0148754
789.358	0.0149533
789.436	0.0148624
789.514	0.0148517
789.592	0.0148128
789.670	0.0149479
789.748	0.0147462
789.826	0.0147022
789.905	0.0147852
789.983	0.0147813
790.061	0.0145449
790.139	0.0146010
790.217	0.0145464
790.295	0.0144767
790.373	0.0145305
790.451	0.0145454
790.530	0.0144385
790.608	0.0143463
790.686	0.0144415
790.764	0.0143905
790.842	0.0144931
790.920	0.0145847
790.998	0.0144885
791.076	0.0145444
791.155	0.0146236
791.233	0.0145937
791.311	0.0147247
791.389	0.0148027
791.467	0.0147053
791.545	0.0147211
791.623	0.0147084
791.701	0.0146841
791.780	0.0148553
791.858	0.0148161
791.936	0.0146812
792.014	0.0145822
792.092	0.0145597
792.170	0.0147239
792.248	0.0147221
792.326	0.0145970
792.405	0.0147490
792.483	0.0147633
792.561	0.0148185
792.639	0.0148525
792.717	0.0146563
792.795	0.0146869
792.873	0.0146616
792.951	0.0147754
793.030	0.0146220
793.108	0.0145490
793.186	0.0146198
793.264	0.0144843
793.342	0.0145716
793.420	0.0144387
793.498	0.0143948
793.576	0.0143968
793.655	0.0143533
793.733	0.0144722
793.811	0.0144603
793.889	0.0143674
793.967	0.0145602
794.045	0.0144509
794.123	0.0146445
794.201	0.0145528
794.280	0.0147700
794.358	0.0147839
794.436	0.0149315
794.514	0.0148191
794.592	0.0148038
794.670	0.0150245
794.748	0.0150567
794.826	0.0150990
794.905	0.0149605
794.983	0.0150309
795.061	0.0148627
795.139	0.0150015
795.217	0.0150790
795.295	0.0149365
795.373	0.0149235
795.451	0.0150835
795.530	0.0148888
795.608	0.0147627
795.686	0.0148302
795.764	0.0146677
795.842	0.0147397
795.920	0.0147196
795.998	0.0147356
796.076	0.0146326
796.155	0.0145173
796.233	0.0144854
796.311	0.0146252
796.389	0.0145097
796.467	0.0145348
796.545	0.0144842
796.623	0.0142516
796.701	0.0142206
796.780	0.0143195
796.858	0.0143108
796.936	0.0141110
797.014	0.0142473
797.092	0.0141176
797.170	0.0142025
797.248	0.0141759
797.326	0.0141296
797.405	0.0142765
797.483	0.0141617
797.561	0.0141378
797.639	0.0143303
797.717	0.0142616
797.795	0.0144805
797.873	0.0143610
797.951	0.0143768
798.030	0.0145415
798.108	0.0144952
798.186	0.0143749
798.264	0.0145364
798.342	0.0145200
798.420	0.0145728
798.498	0.0145858
798.576	0.0146357
798.655	0.0147302
798.733	0.0146389
798.811	0.0146537
798.889	0.0149398
798.967	0.0148378
799.045	0.0148918
799.123	0.0151009
799.201	0.0151011
799.280	0.0151501
799.358	0.0152870
799.436	0.0152898
799.514	0.0153836
799.592	0.0153468
799.670	0.0152293
799.748	0.0154617
799.826	0.0154570
799.905	0.0153127
799.983	0.0153306
800.061	0.0153881
800.139	0.0151808
800.217	0.0151439
800.295	0.0152434
800.373	0.0151138
800.451	0.0150092
800.530	0.0149633
800.608	0.0148907
800.686	0.0148737
800.764	0.0148440
800.842	0.0146667
800.920	0.0146745
800.998	0.0145307
801.076	0.0145707
801.155	0.0144328
801.233	0.0144192
801.311	0.0142081
801.389	0.0142068
801.467	0.0143013
801.545	0.0140972
801.623	0.0140865
801.701	0.0140253
801.780	0.0141544
801.858	0.0141467
801.936	0.0142557
802.014	0.0142386
802.092	0.0142740
802.170	0.0142728
802.248	0.0143232
802.326	0.0144879
802.405	0.0144762
802.483	0.0146291
802.561	0.0145825
802.639	0.0145731
802.717	0.0147619
802.795	0.0146876
802.873	0.0145299
802.951	0.0145947
803.030	0.0147486
803.108	0.0146387
803.186	0.0145925
803.264	0.0147836
803.342	0.0146564
803.420	0.0144064
803.498	0.0144103
803.576	0.0146285
803.655	0.0145528
803.733	0.0145698
803.811	0.0144038
803.889	0.0145705
803.967	0.0146402
804.045	0.0147378
804.123	0.0147470
804.201	0.0147233
804.280	0.0147825
804.358	0.0148769
804.436	0.0150381
804.514	0.0150227
804.592	0.0150693
804.670	0.0151773
804.748	0.0151761
804.826	0.0152534
804.905	0.0153001
804.983	0.0154214
805.061	0.0153218
805.139	0.0153010
805.217	0.0152823
805.295	0.0153163
805.373	0.0153008
805.451	0.0153045
805.530	0.0153563
805.608	0.0152641
805.686	0.0151791
805.764	0.0152163
805.842	0.0152058
805.920	0.0151398
805.998	0.0151076
806.076	0.0152451
806.155	0.0150063
806.233	0.0149139
806.311	0.0148419
806.389	0.0147318
806.467	0.0146923
806.545	0.0145853
806.623	0.0144648
806.701	0.0143339
806.780	0.0142072
806.858	0.0140918
806.936	0.0138977
807.014	0.0140814
807.092	0.0137826
807.170	0.0139400
807.248	0.0139790
807.326	0.0138867
807.405	0.0138385
807.483	0.0139545
807.561	0.0139766
807.639	0.0141314
807.717	0.0140852
807.795	0.0142130
807.873	0.0141896
807.951	0.0142724
808.030	0.0143304
808.108	0.0144253
808.186	0.0144985
808.264	0.0144405
808.342	0.0144913
808.420	0.0145844
808.498	0.0146272
808.576	0.0145506
808.655	0.0146033
808.733	0.0146955
808.811	0.0148455
808.889	0.0148338
808.967	0.0148309
809.045	0.0147693
809.123	0.0148190
809.201	0.0148376
809.280	0.0146890
809.358	0.0149006
809.436	0.0149078
809.514	0.0148587
809.592	0.0148776
809.670	0.0149339
809.748	0.0150143
809.826	0.0149866
809.905	0.0149466
809.983	0.0149311
810.061	0.0151884
810.139	0.0152100
810.217	0.0151034
810.295	0.0151705
810.373	0.0152209
810.451	0.0152386
810.530	0.0153107
810.608	0.0152184
810.686	0.0153599
810.764	0.0154391
810.842	0.0153777
810.920	0.0153683
810.998	0.0154180
811.076	0.0153051
811.155	0.0153581
811.233	0.0154662
811.311	0.0151863
811.389	0.0151961
811.467	0.0151331
811.545	0.0151421
811.623	0.0148325
811.701	0.0148680
811.780	0.0148434
811.858	0.0146658
811.936	0.0145039
812.014	0.0144109
812.092	0.0144666
812.170	0.0142802
812.248	0.0144836
812.326	0.0144259
812.405	0.0143236
812.483	0.0142725
812.561	0.0142380
812.639	0.0140519
812.717	0.0140188
812.795	0.0141307
812.873	0.0140254
812.951	0.0140221
813.030	0.0140662
813.108	0.0139049
813.186	0.0138200
813.264	0.0138422
813.342	0.0137876
813.420	0.0138032
813.498	0.0139404
813.576	0.0137976
813.655	0.0138301
813.733	0.0140067
813.811	0.0140351
813.889	0.0140028
813.967	0.0141136
814.045	0.0141660
814.123	0.0143342
814.201	0.0144579
814.280	0.0145196
814.358	0.0146970
814.436	0.0146080
814.514	0.0147874
814.592	0.0147545
814.670	0.0150289
814.748	0.0149477
814.826	0.0151262
814.905	0.0152147
814.983	0.0150774
815.061	0.0151906
815.139	0.0151460
815.217	0.0152214
815.295	0.0151456
815.373	0.0150985
815.451	0.0152039
815.530	0.0151200
815.608	0.0150829
815.686	0.0152133
815.764	0.0150446
815.842	0.0149986
815.920	0.0150024
815.998	0.0150456
816.076	0.0149794
816.155	0.0152106
816.233	0.0150845
816.311	0.0151044
816.389	0.0151546
816.467	0.0151595
816.545	0.0151253
816.623	0.0151262
816.701	0.0152488
816.780	0.0152403
816.858	0.0151720
816.936	0.0152409
817.014	0.0152816
817.092	0.0150179
817.170	0.0150418
817.248	0.0151080
817.326	0.0150699
817.405	0.0149201
817.483	0.0149922
817.561	0.0149232
817.639	0.0148972
817.717	0.0147906
817.795	0.0148154
817.873	0.0147002
817.951	0.0147466
818.030	0.0146619
818.108	0.0145618
818.186	0.0143565
818.264	0.0142667
818.342	0.0140356
818.420	0.0141297
818.498	0.0140302
818.576	0.0140427
818.655	0.0138536
818.733	0.0138006
818.811	0.0138036
818.889	0.0137991
818.967	0.0138586
819.045	0.0136996
819.123	0.0137085
819.201	0.0138331
819.280	0.0139484
819.358	0.0139429
819.436	0.0138203
819.514	0.0139230
819.592	0.0139926
819.670	0.0139510
819.748	0.0141782
819.826	0.0140778
819.905	0.0141232
819.983	0.0141942
820.061	0.0142467
820.139	0.0143246
820.217	0.0143866
820.295	0.0145843
820.373	0.0145244
820.451	0.0147305
820.530	0.0147749
820.608	0.0150303
820.686	0.0150523
820.764	0.0152087
820.842	0.0152248
820.920	0.0153267
820.998	0.0153984
821.076	0.0154729
821.155	0.0154533
821.233	0.0154712
821.311	0.0153911
821.389	0.0153857
821.467	0.0153871
821.545	0.0152860
821.623	0.0150858
821.701	0.0151253
821.780	0.0149837
821.858	0.0147649
821.936	0.0148604
822.014	0.0147626
822.092	0.0146459
822.170	0.0146573
822.248	0.0145889
822.326	0.0145885
822.405	0.0145755
822.483	0.0144521
822.561	0.0145232
822.639	0.0146350
822.717	0.0146955
822.795	0.0147359
822.873	0.0147914
822.951	0.0148949
823.030	0.0149292
823.108	0.0147631
823.186	0.0148478
823.264	0.0150329
823.342	0.0148965
823.420	0.0149525
823.498	0.0149586
823.576	0.0148787
823.655	0.0147205
823.733	0.0147683
823.811	0.0145894
823.889	0.0146188
823.967	0.0146347
824.045	0.0145089
824.123	0.0143594
824.201	0.0143806
824.280	0.0143034
824.358	0.0142587
824.436	0.0143970
824.514	0.0143063
824.592	0.0143609
824.670	0.0142436
824.748	0.0142161
824.826	0.0141965
824.905	0.0141824
824.983	0.0141942
825.061	0.0142592
825.139	0.0141454
825.217	0.0141030
825.295	0.0141937
825.373	0.0141006
825.451	0.0140667
825.530	0.0139880
825.608	0.0140920
825.686	0.0142496
825.764	0.0142651
825.842	0.0143078
825.920	0.0143355
825.998	0.0143710
826.076	0.0144930
826.155	0.0143900
826.233	0.0145849
826.311	0.0147065
826.389	0.0146776
826.467	0.0148018
826.545	0.0147997
826.623	0.0148599
826.701	0.0149169
826.780	0.0149004
826.858	0.0150050
826.936	0.0150804
827.014	0.0150990
827.092	0.0151612
827.170	0.0151269
827.248	0.0151844
827.326	0.0150806
827.405	0.0151836
827.483	0.0151516
827.561	0.0150563
827.639	0.0148479
827.717	0.0149863
827.795	0.0149731
827.873	0.0148454
827.951	0.0147552
828.030	0.0148181
828.108	0.0147221
828.186	0.0146150
828.264	0.0147409
828.342	0.0146932
828.420	0.0146900
828.498	0.0145816
828.576	0.0146368
828.655	0.0146633
828.733	0.0146676
828.811	0.0146679
828.889	0.0146378
828.967	0.0147706
829.045	0.0147130
829.123	0.0148425
829.201	0.0147843
829.280	0.0148206
829.358	0.0149664
829.436	0.0148914
829.514	0.0148345
829.592	0.0148014
829.670	0.0147740
829.748	0.0147361
829.826	0.0147261
829.905	0.0146340
829.983	0.0146807
830.061	0.0145300
830.139	0.0145068
830.217	0.0144205
830.295	0.0144594
830.373	0.0144444
830.451	0.0143102
830.530	0.0142481
830.608	0.0144183
830.686	0.0143134
830.764	0.0142294
830.842	0.0143710
830.920	0.0144279
830.998	0.0145339
831.076	0.0146179
831.155	0.0145068
831.233	0.0146206
831.311	0.0147855
831.389	0.0146806
831.467	0.0145547
831.545	0.0146600
831.623	0.0146465
831.701	0.0145718
831.780	0.0145314
831.858	0.0146521
831.936	0.0146652
832.014	0.0144535
832.092	0.0145630
832.170	0.0146066
832.248	0.0144512
832.326	0.0145108
832.405	0.0145084
832.483	0.0145002
832.561	0.0145324
832.639	0.0146818
832.717	0.0144940
832.795	0.0146944
832.873	0.0147341
832.951	0.0146982
833.030	0.0148917
833.108	0.0149960
833.186	0.0148692
833.264	0.0149852
833.342	0.0150126
833.420	0.0149831
833.498	0.0149137
833.576	0.0149483
833.655	0.0149644
833.733	0.0149612
833.811	0.0148784
833.889	0.0149538
833.967	0.0150312
834.045	0.0149871
834.123	0.0148853
834.201	0.0148743
834.280	0.0147563
834.358	0.0148734
834.436	0.0148525
834.514	0.0148213
834.592	0.0147309
834.670	0.0148367
834.748	0.0146551
834.826	0.0147042
834.905	0.0147023
834.983	0.0144959
835.061	0.0145863
835.139	0.0145465
835.217	0.0145296
835.295	0.0145232
835.373	0.0145090
835.451	0.0144617
835.530	0.0144713
835.608	0.0145953
835.686	0.0144701
835.764	0.0143927
835.842	0.0145592
835.920	0.0146673
835.998	0.0147382
836.076	0.0145914
836.155	0.0147848
836.233	0.0146396
836.311	0.0145952
836.389	0.0145992
836.467	0.0146381
836.545	0.0147195
836.623	0.0147363
836.701	0.0147991
836.780	0.0147254
836.858	0.0147589
836.936	0.0147768
837.014	0.0145684
837.092	0.0145885
837.170	0.0146560
837.248	0.0147230
837.326	0.0145147
837.405	0.0145968
837.483	0.0145209
837.561	0.0144697
837.639	0.0144891
837.717	0.0144855
837.795	0.0145041
837.873	0.0143859
837.951	0.0144297
838.030	0.0144315
838.108	0.0142537
838.186	0.0142584
838.264	0.0144717
838.342	0.0144894
838.420	0.0143776
838.498	0.0143905
838.576	0.0144276
838.655	0.0145544
838.733	0.0142948
838.811	0.0145922
838.889	0.0145070
838.967	0.0146647
839.045	0.0147015
839.123	0.0147497
839.201	0.0147143
839.280	0.0148190
839.358	0.0149798
839.436	0.0148556
839.514	0.0149663
839.592	0.0149572
839.670	0.0148799
839.748	0.0150787
839.826	0.0149652
839.905	0.0149023
839.983	0.0149577
840.061	0.0150211
840.139	0.0148631
840.217	0.0148277
840.295	0.0149612
840.373	0.0147398
840.451	0.0147356
840.530	0.0147454
840.608	0.0146899
840.686	0.0147383
840.764	0.0146728
840.842	0.0148203
840.920	0.0146747
840.998	0.0147134
841.076	0.0146736
841.155	0.0146218
841.233	0.0147643
841.311	0.0147959
841.389	0.0146860
841.467	0.0145318
841.545	0.0146322
841.623	0.0145065
841.701	0.0147075
841.780	0.0145363
841.858	0.0145350
841.936	0.0145942
842.014	0.0146175
842.092	0.0144180
842.170	0.0144996
842.248	0.0145502
842.326	0.0144257
842.405	0.0143112
842.483	0.0143504
842.561	0.0143694
842.639	0.0144547
842.717	0.0144205
842.795	0.0144907
842.873	0.0145064
842.951	0.0145323
843.030	0.0146082
843.108	0.0145544
843.186	0.0145966
843.264	0.0145527
843.342	0.0144863
843.420	0.0144427
843.498	0.0145657
843.576	0.0145535
843.655	0.0145003
843.733	0.0145266
843.811	0.0146144
843.889	0.0144908
843.967	0.0146411
844.045	0.0145584
844.123	0.0146831
844.201	0.0147806
844.280	0.0146709
844.358	0.0145959
844.436	0.0146831
844.514	0.0147878
844.592	0.0147691
844.670	0.0147520
844.748	0.0146370
844.826	0.0147019
844.905	0.0147730
844.983	0.0147758
845.061	0.0148251
845.139	0.0148038
845.217	0.0147395
845.295	0.0148349
845.373	0.0148694
845.451	0.0146058
845.530	0.0147362
845.608	0.0148868
845.686	0.0147063
845.764	0.0145985
845.842	0.0147107
845.920	0.0148232
845.998	0.0148727
846.076	0.0147166
846.155	0.0147033
846.233	0.0147861
846.311	0.0147279
846.389	0.0146545
846.467	0.0147238
846.545	0.0147234
846.623	0.0147367
846.701	0.0148098
846.780	0.0147579
846.858	0.0146785
846.936	0.0147403
847.014	0.0145951
847.092	0.0147167
847.170	0.0146886
847.248	0.0147184
847.326	0.0147109
847.405	0.0146025
847.483	0.0145918
847.561	0.0145743
847.639	0.0146220
847.717	0.0144431
847.795	0.0145238
847.873	0.0146363
847.951	0.0146190
848.030	0.0146590
848.108	0.0146317
848.186	0.0145455
848.264	0.0145370
848.342	0.0145253
848.420	0.0144328
848.498	0.0145440
848.576	0.0144839
848.655	0.0143289
848.733	0.0145062
848.811	0.0145525
848.889	0.0143565
848.967	0.0143977
849.045	0.0144597
849.123	0.0144469
849.201	0.0144434
849.280	0.0146772
849.358	0.0144765
849.436	0.0145760
849.514	0.0146742
849.592	0.0146191
849.670	0.0145959
849.748	0.0145383
849.826	0.0147364
849.905	0.0148128
849.983	0.0147905
850.061	0.0147401
850.139	0.0145898
850.217	0.0146363
850.295	0.0147126
850.373	0.0147832
850.451	0.0146644
850.530	0.0148467
850.608	0.0148211
850.686	0.0149028
850.764	0.0148211
850.842	0.0148171
850.920	0.0147144
850.998	0.0147920
851.076	0.0148779
851.155	0.0148354
851.233	0.0148057
851.311	0.0148442
851.389	0.0148596
851.467	0.0148586
851.545	0.0147549
851.623	0.0147202
851.701	0.0149564
851.780	0.0148368
851.858	0.0148447
851.936	0.0147265
852.014	0.0147557
852.092	0.0148020
852.170	0.0146332
852.248	0.0147915
852.326	0.0147463
852.405	0.0148251
852.483	0.0146678
852.561	0.0147507
852.639	0.0147879
852.717	0.0147014
852.795	0.0147063
852.873	0.0147701
852.951	0.0146745
853.030	0.0146945
853.108	0.0146443
853.186	0.0145193
853.264	0.0145743
853.342	0.0146432
853.420	0.0146153
853.498	0.0146630
853.576	0.0146955
853.655	0.0145464
853.733	0.0145397
853.811	0.0145224
853.889	0.0146400
853.967	0.0145632
854.045	0.0144833
854.123	0.0146060
854.201	0.0144911
854.280	0.0144751
854.358	0.0144328
854.436	0.0145433
854.514	0.0145257
854.592	0.0145230
854.670	0.0146326
854.748	0.0143646
854.826	0.0143296
854.905	0.0144879
854.983	0.0144639
855.061	0.0145907
855.139	0.0146384
855.217	0.0145037
855.295	0.0146046
855.373	0.0145453
855.451	0.0145650
855.530	0.0146467
855.608	0.0147737
855.686	0.0147380
855.764	0.0147610
855.842	0.0146159
855.920	0.0146721
855.998	0.0147311
856.076	0.0147562
856.155	0.0147258
856.233	0.0148581
856.311	0.0149900
856.389	0.0148891
856.467	0.0148545
856.545	0.0149989
856.623	0.0148068
856.701	0.0148914
856.780	0.0150087
856.858	0.0150215
856.936	0.0147919
857.014	0.0148071
857.092	0.0148900
857.170	0.0148730
857.248	0.0148753
857.326	0.0147713
857.405	0.0148804
857.483	0.0148033
857.561	0.0148370
857.639	0.0147566
857.717	0.0147615
857.795	0.0146456
857.873	0.0145998
857.951	0.0146131
858.030	0.0146259
858.108	0.0146014
858.186	0.0145989
858.264	0.0147326
858.342	0.0147058
858.420	0.0146881
858.498	0.0146449
858.576	0.0146171
858.655	0.0147083
858.733	0.0148220
858.811	0.0145409
858.889	0.0144588
858.967	0.0146339
859.045	0.0146061
859.123	0.0143977
859.201	0.0145341
859.280	0.0146291
859.358	0.0145321
859.436	0.0145151
859.514	0.0146691
859.592	0.0145557
859.670	0.0144643
859.748	0.0145058
859.826	0.0145671
859.905	0.0145451
859.983	0.0145664
860.061	0.0144710
860.139	0.0144984
860.217	0.0145778
860.295	0.0146084
860.373	0.0145416
860.451	0.0144612
860.530	0.0143961
860.608	0.0144583
860.686	0.0144566
860.764	0.0145310
860.842	0.0145223
860.920	0.0144704
860.998	0.0145744
861.076	0.0145478
861.155	0.0145057
861.233	0.0143797
861.311	0.0145212
861.389	0.0144760
861.467	0.0143601
861.545	0.0145783
861.623	0.0145297
861.701	0.0143957
861.780	0.0144627
861.858	0.0143892
861.936	0.0146413
862.014	0.0144991
862.092	0.0145905
862.170	0.0146380
862.248	0.0146102
862.326	0.0146827
862.405	0.0145963
862.483	0.0147200
862.561	0.0148120
862.639	0.0146897
862.717	0.0147118
862.795	0.0148193
862.873	0.0147926
862.951	0.0147632
863.030	0.0147984
863.108	0.0149206
863.186	0.0148356
863.264	0.0149201
863.342	0.0148610
863.420	0.0149490
863.498	0.0149847
863.576	0.0149129
863.655	0.0148546
863.733	0.0147860
863.811	0.0147684
863.889	0.0149188
863.967	0.0147832
864.045	0.0147490
864.123	0.0147237
864.201	0.0148407
864.280	0.0147584
864.358	0.0146082
864.436	0.0146664
864.514	0.0146087
864.592	0.0146032
864.670	0.0144999
864.748	0.0145927
864.826	0.0145689
864.905	0.0146515
864.983	0.0146342
865.061	0.0146659
865.139	0.0147078
865.217	0.0146977
865.295	0.0146492
865.373	0.0147426
865.451	0.0145092
865.530	0.0144176
865.608	0.0144795
865.686	0.0145940
865.764	0.0145760
865.842	0.0144453
865.920	0.0145257
865.998	0.0145571
866.076	0.0143971
866.155	0.0145203
866.233	0.0145264
866.311	0.0144717
866.389	0.0144719
866.467	0.0145009
866.545	0.0145856
866.623	0.0144498
866.701	0.0143863
866.780	0.0144175
866.858	0.0147089
866.936	0.0145325
867.014	0.0145442
867.092	0.0145453
867.170	0.0145944
867.248	0.0144912
867.326	0.0146227
867.405	0.0146575
867.483	0.0147025
867.561	0.0144740
867.639	0.0145965
867.717	0.0147762
867.795	0.0144683
867.873	0.0146577
867.951	0.0146680
868.030	0.0147153
868.108	0.0145471
868.186	0.0146622
868.264	0.0146350
868.342	0.0146967
868.420	0.0147811
868.498	0.0147367
868.576	0.0147111
868.655	0.0147041
868.733	0.0148428
868.811	0.0148101
868.889	0.0148762
868.967	0.0149818
869.045	0.0149353
869.123	0.0149276
869.201	0.0149150
869.280	0.0149218
869.358	0.0149053
869.436	0.0149014
869.514	0.0149342
869.592	0.0149413
869.670	0.0148215
869.748	0.0148536
869.826	0.0148114
869.905	0.0146172
869.983	0.0148286
870.061	0.0146499
870.139	0.0145098
870.217	0.0147071
870.295	0.0146816
870.373	0.0145323
870.451	0.0144245
870.530	0.0146040
870.608	0.0145276
870.686	0.0146854
870.764	0.0145238
870.842	0.0144600
870.920	0.0145721
870.998	0.0145341
871.076	0.0145659
871.155	0.0144754
871.233	0.0144820
871.311	0.0145553
871.389	0.0146623
871.467	0.0146866
871.545	0.0147265
871.623	0.0145811
871.701	0.0146098
871.780	0.0146557
871.858	0.0145886
871.936	0.0146245
872.014	0.0146296
872.092	0.0145467
872.170	0.0145999
872.248	0.0144821
872.326	0.0145733
872.405	0.0145575
872.483	0.0147939
872.561	0.0146643
872.639	0.0145525
872.717	0.0145598
872.795	0.0146290
872.873	0.0146373
872.951	0.0147105
873.030	0.0145660
873.108	0.0147211
873.186	0.0146752
873.264	0.0147913
873.342	0.0147781
873.420	0.0148237
873.498	0.0148268
873.576	0.0147568
873.655	0.0149738
873.733	0.0148217
873.811	0.0146513
873.889	0.0148341
873.967	0.0148847
874.045	0.0149401
874.123	0.0149048
874.201	0.0147325
874.280	0.0147958
874.358	0.0146964
874.436	0.0146831
874.514	0.0147044
874.592	0.0147317
874.670	0.0147193
874.748	0.0147614
874.826	0.0147197
874.905	0.0147952
874.983	0.0147568
875.061	0.0146929
875.139	0.0147330
875.217	0.0148385
875.295	0.0147878
875.373	0.0147791
875.451	0.0149104
875.530	0.0147263
875.608	0.0148356
875.686	0.0147709
875.764	0.0148144
875.842	0.0147507
875.920	0.0147552
875.998	0.0149017
876.076	0.0147235
876.155	0.0146884
876.233	0.0145711
876.311	0.0146741
876.389	0.0146250
876.467	0.0147837
876.545	0.0146593
876.623	0.0146419
876.701	0.0145742
876.780	0.0146661
876.858	0.0146440
876.936	0.0146648
877.014	0.0145841
877.092	0.0145153
877.170	0.0145291
877.248	0.0147060
877.326	0.0145608
877.405	0.0145063
877.483	0.0147081
877.561	0.0147182
877.639	0.0145697
877.717	0.0145717
877.795	0.0145113
877.873	0.0147077
877.951	0.0146246
878.030	0.0145095
878.108	0.0145962
878.186	0.0146170
878.264	0.0145533
878.342	0.0145351
878.420	0.0145374
878.498	0.0146730
878.576	0.0146676
878.655	0.0147762
878.733	0.0147952
878.811	0.0147082
878.889	0.0147876
878.967	0.0147966
879.045	0.0147135
879.123	0.0147242
879.201	0.0147511
879.280	0.0149330
879.358	0.0149253
879.436	0.0148043
879.514	0.0146747
879.592	0.0146825
879.670	0.0148285
879.748	0.0147073
879.826	0.0147594
879.905	0.0147260
879.983	0.0147382
880.061	0.0147530
880.139	0.0146625
880.217	0.0145918
880.295	0.0146867
880.373	0.0146727
880.451	0.0146215
880.530	0.0146320
880.608	0.0146899
880.686	0.0145864
880.764	0.0146607
880.842	0.0144923
880.920	0.0146198
880.998	0.0146404
881.076	0.0146245
881.155	0.0147028
881.233	0.0145500
881.311	0.0148246
881.389	0.0147412
881.467	0.0145866
881.545	0.0147138
881.623	0.0147707
881.701	0.0147347
881.780	0.0147594
881.858	0.0147258
881.936	0.0146973
882.014	0.0148473
882.092	0.0147935
882.170	0.0147894
882.248	0.0146832
882.326	0.0146750
882.405	0.0146590
882.483	0.0146442
882.561	0.0145108
882.639	0.0146153
882.717	0.0145828
882.795	0.0145859
882.873	0.0147146
882.951	0.0146207
883.030	0.0147063
883.108	0.0144988
883.186	0.0145221
883.264	0.0146214
883.342	0.0145318
883.420	0.0144802
883.498	0.0145934
883.576	0.0145429
883.655	0.0144189
883.733	0.0145983
883.811	0.0146696
883.889	0.0146452
883.967	0.0147072
884.045	0.0147185
884.123	0.0147156
884.201	0.0148689
884.280	0.0148445
884.358	0.0147670
884.436	0.0147471
884.514	0.0149551
884.592	0.0146140
884.670	0.0146832
884.748	0.0148962
884.826	0.0148676
884.905	0.0147556
884.983	0.0146066
885.061	0.0146243
885.139	0.0147521
885.217	0.0149555
885.295	0.0146918
885.373	0.0147540
885.451	0.0147648
885.530	0.0147511
885.608	0.0146275
885.686	0.0146854
885.764	0.0146030
885.842	0.0146915
885.920	0.0147679
885.998	0.0146118
886.076	0.0146049
886.155	0.0147236
886.233	0.0146624
886.311	0.0146285
886.389	0.0146487
886.467	0.0147171
886.545	0.0147732
886.623	0.0147585
886.701	0.0148071
886.780	0.0148022
886.858	0.0146790
886.936	0.0147223
887.014	0.0147121
887.092	0.0146815
887.170	0.0147652
887.248	0.0145507
887.326	0.0145124
887.405	0.0147108
887.483	0.0148797
887.561	0.0148087
887.639	0.0145325
887.717	0.0147337
887.795	0.0146186
887.873	0.0146692
887.951	0.0145860
888.030	0.0147048
888.108	0.0146845
888.186	0.0145396
888.264	0.0145336
888.342	0.0144991
888.420	0.0144902
888.498	0.0145694
888.576	0.0145866
888.655	0.0144880
888.733	0.0144917
888.811	0.0145271
888.889	0.0145539
888.967	0.0144920
889.045	0.0145958
889.123	0.0145398
889.201	0.0146033
889.280	0.0147219
889.358	0.0146639
889.436	0.0145213
889.514	0.0146759
889.592	0.0147724
889.670	0.0147373
889.748	0.0147433
889.826	0.0147586
889.905	0.0147419
889.983	0.0148475
890.061	0.0149191
890.139	0.0149668
890.217	0.0147825
890.295	0.0147850
890.373	0.0149928
890.451	0.0148994
890.530	0.0148038
890.608	0.0147366
890.686	0.0149182
890.764	0.0147728
890.842	0.0147919
890.920	0.0147291
890.998	0.0147575
891.076	0.0146265
891.155	0.0146437
891.233	0.0146880
891.311	0.0146095
891.389	0.0145315
891.467	0.0145252
891.545	0.0145733
891.623	0.0146265
891.701	0.0144842
891.780	0.0145174
891.858	0.0145788
891.936	0.0146487
892.014	0.0146725
892.092	0.0144157
892.170	0.0145309
892.248	0.0145545
892.326	0.0145177
892.405	0.0145739
892.483	0.0146251
892.561	0.0145113
892.639	0.0143932
892.717	0.0146249
892.795	0.0145621
892.873	0.0145438
892.951	0.0146667
893.030	0.0145725
893.108	0.0146820
893.186	0.0146498
893.264	0.0147820
893.342	0.0147061
893.420	0.0147779
893.498	0.0146860
893.576	0.0148113
893.655	0.0148830
893.733	0.0148331
893.811	0.0148737
893.889	0.0147514
893.967	0.0147396
894.045	0.0147248
894.123	0.0148560
894.201	0.0147973
894.280	0.0146790
894.358	0.0145596
894.436	0.0147133
894.514	0.0146166
894.592	0.0145539
894.670	0.0144994
894.748	0.0145325
894.826	0.0145728
894.905	0.0144937
894.983	0.0145174
895.061	0.0145245
895.139	0.0146610
895.217	0.0147735
895.295	0.0145967
895.373	0.0146024
895.451	0.0147215
895.530	0.0145834
895.608	0.0147247
895.686	0.0148576
895.764	0.0150397
895.842	0.0148661
895.920	0.0149310
895.998	0.0148631
896.076	0.0148576
896.155	0.0149606
896.233	0.0147526
896.311	0.0146915
896.389	0.0146605
896.467	0.0147140
896.545	0.0146307
896.623	0.0144918
896.701	0.0144888
896.780	0.0143315
896.858	0.0143895
896.936	0.0144373
897.014	0.0144981
897.092	0.0145236
897.170	0.0148212
897.248	0.0146944
897.326	0.0148634
897.405	0.0149002
897.483	0.0149073
897.561	0.0150023
897.639	0.0149740
897.717	0.0150290
897.795	0.0151369
897.873	0.0151398
897.951	0.0150955
898.030	0.0149253
898.108	0.0147148
898.186	0.0148969
898.264	0.0148151
898.342	0.0145937
898.420	0.0145905
898.498	0.0146738
898.576	0.0145341
898.655	0.0145969
898.733	0.0144503
898.811	0.0144890
898.889	0.0146229
898.967	0.0145875
899.045	0.0146288
899.123	0.0146600
899.201	0.0145805
899.280	0.0144260
899.358	0.0144785
899.436	0.0146471
899.514	0.0147367
899.592	0.0146342
899.670	0.0146258
899.748	0.0147808
899.826	0.0147002
899.905	0.0146033
899.983	0.0148499
900.061	0.0146503
900.139	0.0147825
900.217	0.0146650
900.295	0.0146316
900.373	0.0147707
900.451	0.0147890
900.530	0.0146764
900.608	0.0145912
900.686	0.0145825
900.764	0.0146690
900.842	0.0146054
900.920	0.0145197
900.998	0.0146394
901.076	0.0146668
901.155	0.0145828
901.233	0.0146149
901.311	0.0147283
901.389	0.0146572
901.467	0.0146631
901.545	0.0147318
901.623	0.0146861
901.701	0.0147215
901.780	0.0146177
901.858	0.0147424
901.936	0.0147484
902.014	0.0148330
902.092	0.0147089
902.170	0.0146375
902.248	0.0146906
902.326	0.0146505
902.405	0.0145499
902.483	0.0146251
902.561	0.0145773
902.639	0.0145943
902.717	0.0147711
902.795	0.0146989
902.873	0.0147865
902.951	0.0150107
903.030	0.0149853
903.108	0.0149979
903.186	0.0149188
903.264	0.0148631
903.342	0.0149450
903.420	0.0149413
903.498	0.0149387
903.576	0.0149760
903.655	0.0148795
903.733	0.0148329
903.811	0.0149010
903.889	0.0147594
903.967	0.0146926
904.045	0.0145932
904.123	0.0144055
904.201	0.0143880
904.280	0.0144045
904.358	0.0142695
904.436	0.0143896
904.514	0.0142530
904.592	0.0141705
904.670	0.0142558
904.748	0.0141268
904.826	0.0140723
904.905	0.0141624
904.983	0.0142709
905.061	0.0142384
905.139	0.0144108
905.217	0.0144052
905.295	0.0143742
905.373	0.0145363
905.451	0.0146027
905.530	0.0147045
905.608	0.0147015
905.686	0.0146780
905.764	0.0146560
905.842	0.0146768
905.920	0.0149529
905.998	0.0149093
906.076	0.0149754
906.155	0.0149945
906.233	0.0149921
906.311	0.0150113
906.389	0.0149306
906.467	0.0148826
906.545	0.0147611
906.623	0.0148706
906.701	0.0149858
906.780	0.0148489
906.858	0.0147539
906.936	0.0147315
907.014	0.0147157
907.092	0.0147199
907.170	0.0145372
907.248	0.0146437
907.326	0.0147119
907.405	0.0146353
907.483	0.0147215
907.561	0.0145779
907.639	0.0145479
907.717	0.0146835
907.795	0.0147124
907.873	0.0143820
907.951	0.0145687
908.030	0.0147854
908.108	0.0145966
908.186	0.0144486
908.264	0.0144687
908.342	0.0144663
908.420	0.0144888
908.498	0.0145793
908.576	0.0146666
908.655	0.0145559
908.733	0.0144904
908.811	0.0146702
908.889	0.0147328
908.967	0.0145898
909.045	0.0146528
909.123	0.0147350
909.201	0.0147240
909.280	0.0147454
909.358	0.0147522
909.436	0.0146403
909.514	0.0148110
909.592	0.0147856
909.670	0.0146969
909.748	0.0147330
909.826	0.0145987
909.905	0.0146790
909.983	0.0148499
910.061	0.0146233
910.139	0.0146378
910.217	0.0145638
910.295	0.0145003
910.373	0.0145863
910.451	0.0144510
910.530	0.0143788
910.608	0.0143955
910.686	0.0144460
910.764	0.0142879
910.842	0.0144238
910.920	0.0143977
910.998	0.0144756
911.076	0.0144165
911.155	0.0145692
911.233	0.0145097
911.311	0.0145708
911.389	0.0146947
911.467	0.0146692
911.545	0.0147091
911.623	0.0149196
911.701	0.0148350
911.780	0.0149880
911.858	0.0148666
911.936	0.0149846
912.014	0.0149355
912.092	0.0149316
912.170	0.0150101
912.248	0.0150150
912.326	0.0149258
912.405	0.0148174
912.483	0.0149877
912.561	0.0150205
912.639	0.0149152
912.717	0.0149772
912.795	0.0148101
912.873	0.0145564
912.951	0.0145456
913.030	0.0146898
913.108	0.0145444
913.186	0.0144266
913.264	0.0144997
913.342	0.0145328
913.420	0.0146906
913.498	0.0146095
913.576	0.0143749
913.655	0.0145303
913.733	0.0147252
913.811	0.0146198
913.889	0.0146915
913.967	0.0147570
914.045	0.0146246
914.123	0.0145854
914.201	0.0147733
914.280	0.0147118
914.358	0.0146762
914.436	0.0147702
914.514	0.0146684
914.592	0.0146130
914.670	0.0146542
914.748	0.0147095
914.826	0.0148285
914.905	0.0147604
914.983	0.0148155
915.061	0.0147714
915.139	0.0148603
915.217	0.0148441
915.295	0.0148314
915.373	0.0149474
915.451	0.0148503
915.530	0.0148279
915.608	0.0147813
915.686	0.0147641
915.764	0.0147518
915.842	0.0149467
915.920	0.0146808
915.998	0.0147088
916.076	0.0145360
916.155	0.0145890
916.233	0.0144912
916.311	0.0144675
916.389	0.0144485
916.467	0.0145131
916.545	0.0146440
916.623	0.0145705
916.701	0.0144950
916.780	0.0144010
916.858	0.0142727
916.936	0.0142789
917.014	0.0142426
917.092	0.0142322
917.170	0.0143372
917.248	0.0141893
917.326	0.0142608
917.405	0.0142506
917.483	0.0143230
917.561	0.0143315
917.639	0.0145731
917.717	0.0144695
917.795	0.0146297
917.873	0.0147112
917.951	0.0148227
918.030	0.0148985
918.108	0.0149139
918.186	0.0149033
918.264	0.0149918
918.342	0.0151366
918.420	0.0150645
918.498	0.0150598
918.576	0.0150514
918.655	0.0150552
918.733	0.0148731
918.811	0.0149554
918.889	0.0150462
918.967	0.0147421
919.045	0.0148369
919.123	0.0147725
919.201	0.0147593
919.280	0.0147411
919.358	0.0146048
919.436	0.0147349
919.514	0.0146833
919.592	0.0145972
919.670	0.0145239
919.748	0.0144659
919.826	0.0145348
919.905	0.0144983
919.983	0.0146330
920.061	0.0146600
920.139	0.0146159
920.217	0.0146297
920.295	0.0145865
920.373	0.0145255
920.451	0.0144626
920.530	0.0146884
920.608	0.0145759
920.686	0.0144637
920.764	0.0145377
920.842	0.0146054
920.920	0.0145502
920.998	0.0145738
921.076	0.0143874
921.155	0.0146112
921.233	0.0145114
921.311	0.0146474
921.389	0.0145637
921.467	0.0145522
921.545	0.0146164
921.623	0.0147179
921.701	0.0146777
921.780	0.0146507
921.858	0.0147757
921.936	0.0146149
922.014	0.0147127
922.092	0.0148460
922.170	0.0147920
922.248	0.0148727
922.326	0.0147532
922.405	0.0145914
922.483	0.0147688
922.561	0.0146847
922.639	0.0146297
922.717	0.0145750
922.795	0.0146227
922.873	0.0144979
922.951	0.0144311
923.030	0.0145892
923.108	0.0144711
923.186	0.0144044
923.264	0.0144692
923.342	0.0143808
923.420	0.0143770
923.498	0.0144504
923.576	0.0143420
923.655	0.0143719
923.733	0.0143520
923.811	0.0145773
923.889	0.0145777
923.967	0.0146411
924.045	0.0146932
924.123	0.0146798
924.201	0.0147646
924.280	0.0148559
924.358	0.0148022
924.436	0.0149707
924.514	0.0150082
924.592	0.0150747
924.670	0.0150041
924.748	0.0151109
924.826	0.0150501
924.905	0.0151080
924.983	0.0151311
925.061	0.0150787
925.139	0.0149835
925.217	0.0148820
925.295	0.0148221
925.373	0.0146262
925.451	0.0145608
925.530	0.0146279
925.608	0.0145351
925.686	0.0144302
925.764	0.0143685
925.842	0.0144135
925.920	0.0143290
925.998	0.0144041
926.076	0.0142039
926.155	0.0142988
926.233	0.0142493
926.311	0.0143837
926.389	0.0144895
926.467	0.0143703
926.545	0.0144034
926.623	0.0145728
926.701	0.0145797
926.780	0.0145320
926.858	0.0144798
926.936	0.0145856
927.014	0.0145883
927.092	0.0146011
927.170	0.0146489
927.248	0.0145734
927.326	0.0146805
927.405	0.0146908
927.483	0.0148333
927.561	0.0145738
927.639	0.0145892
927.717	0.0148282
927.795	0.0148346
927.873	0.0147699
927.951	0.0148449
928.030	0.0147513
928.108	0.0149365
928.186	0.0149281
928.264	0.0149310
928.342	0.0148743
928.420	0.0147848
928.498	0.0148362
928.576	0.0147466
928.655	0.0149313
928.733	0.0150652
928.811	0.0149969
928.889	0.0147743
928.967	0.0147919
929.045	0.0146715
929.123	0.0146479
929.201	0.0146310
929.280	0.0145905
929.358	0.0144843
929.436	0.0145853
929.514	0.0143595
929.592	0.0142498
929.670	0.0143031
929.748	0.0142905
929.826	0.0144995
929.905	0.0143935
929.983	0.0145243
930.061	0.0145245
930.139	0.0144221
930.217	0.0146441
930.295	0.0146075
930.373	0.0145144
930.451	0.0146952
930.530	0.0146901
930.608	0.0148091
930.686	0.0150039
930.764	0.0147684
930.842	0.0148048
930.920	0.0148931
930.998	0.0148833
931.076	0.0147271
931.155	0.0149148
931.233	0.0149418
931.311	0.0147710
931.389	0.0147643
931.467	0.0147474
931.545	0.0148011
931.623	0.0147331
931.701	0.0146798
931.780	0.0146837
931.858	0.0146700
931.936	0.0147751
932.014	0.0146973
932.092	0.0146291
932.170	0.0146664
932.248	0.0146956
932.326	0.0146834
932.405	0.0146436
932.483	0.0146337
932.561	0.0146693
932.639	0.0147124
932.717	0.0146707
932.795	0.0146487
932.873	0.0146421
932.951	0.0147895
933.030	0.0146483
933.108	0.0145515
933.186	0.0146735
933.264	0.0147079
933.342	0.0147730
933.420	0.0146629
933.498	0.0145623
933.576	0.0146346
933.655	0.0146829
933.733	0.0146024
933.811	0.0146304
933.889	0.0146880
933.967	0.0146505
934.045	0.0146861
934.123	0.0147308
934.201	0.0148649
934.280	0.0147520
934.358	0.0148575
934.436	0.0149863
934.514	0.0148668
934.592	0.0147787
934.670	0.0150254
934.748	0.0149235
934.826	0.0149950
934.905	0.0149601
934.983	0.0148895
935.061	0.0147012
935.139	0.0149007
935.217	0.0147657
935.295	0.0147158
935.373	0.0147237
935.451	0.0145708
935.530	0.0145723
935.608	0.0145962
935.686	0.0144769
935.764	0.0146190
935.842	0.0144363
935.920	0.0144958
935.998	0.0143709
936.076	0.0144219
936.155	0.0143893
936.233	0.0144020
936.311	0.0145548
936.389	0.0144101
936.467	0.0144498
936.545	0.0147296
936.623	0.0147773
936.701	0.0145448
936.780	0.0145612
936.858	0.0147427
936.936	0.0146914
937.014	0.0147520
937.092	0.0148357
937.170	0.0148141
937.248	0.0146999
937.326	0.0146342
937.405	0.0147690
937.483	0.0146064
937.561	0.0145475
937.639	0.0147836
937.717	0.0145744
937.795	0.0146819
937.873	0.0148249
937.951	0.0146828
938.030	0.0146957
938.108	0.0146154
938.186	0.0147704
938.264	0.0147540
938.342	0.0145537
938.420	0.0146251
938.498	0.0147547
938.576	0.0147016
938.655	0.0146697
938.733	0.0148172
938.811	0.0147079
938.889	0.0148154
938.967	0.0146542
939.045	0.0147061
939.123	0.0146343
939.201	0.0146147
939.280	0.0147926
939.358	0.0148117
939.436	0.0145905
939.514	0.0146548
939.592	0.0144762
939.670	0.0145254
939.748	0.0145773
939.826	0.0145173
939.905	0.0144725
939.983	0.0145029
940.061	0.0146494
940.139	0.0146349
940.217	0.0144671
940.295	0.0144275
940.373	0.0146289
940.451	0.0145489
940.530	0.0144987
940.608	0.0144436
940.686	0.0145462
940.764	0.0145596
940.842	0.0145864
940.920	0.0146693
940.998	0.0144754
941.076	0.0146957
941.155	0.0146415
941.233	0.0146259
941.311	0.0147380
941.389	0.0146286
941.467	0.0145339
941.545	0.0145654
941.623	0.0146316
941.701	0.0146342
941.780	0.0148112
941.858	0.0147584
941.936	0.0147478
942.014	0.0146616
942.092	0.0146415
942.170	0.0145528
942.248	0.0147040
942.326	0.0147473
942.405	0.0146780
942.483	0.0146630
942.561	0.0147470
942.639	0.0145466
942.717	0.0145651
942.795	0.0147549
942.873	0.0146162
942.951	0.0145982
943.030	0.0146703
943.108	0.0147177
943.186	0.0147450
943.264	0.0147932
943.342	0.0145936
943.420	0.0146240
943.498	0.0147398
943.576	0.0148106
943.655	0.0146757
943.733	0.0146769
943.811	0.0148842
943.889	0.0145832
943.967	0.0145969
944.045	0.0146941
944.123	0.0147014
944.201	0.0148521
944.280	0.0147660
944.358	0.0146431
944.436	0.0145122
944.514	0.0145042
944.592	0.0146882
944.670	0.0146896
944.748	0.0146276
944.826	0.0145766
944.905	0.0145759
944.983	0.0145824
945.061	0.0144381
945.139	0.0146599
945.217	0.0145708
945.295	0.0144267
945.373	0.0145054
945.451	0.0145810
945.530	0.0145650
945.608	0.0146104
945.686	0.0144724
945.764	0.0145511
945.842	0.0143520
945.920	0.0144666
945.998	0.0147526
946.076	0.0144886
946.155	0.0144530
946.233	0.0144665
946.311	0.0145862
946.389	0.0144698
946.467	0.0145734
946.545	0.0146355
946.623	0.0145609
946.701	0.0146114
946.780	0.0146004
946.858	0.0146342
946.936	0.0145795
947.014	0.0146821
947.092	0.0146808
947.170	0.0148085
947.248	0.0147874
947.326	0.0147725
947.405	0.0148164
947.483	0.0149547
947.561	0.0149006
947.639	0.0148333
947.717	0.0149380
947.795	0.0149351
947.873	0.0150325
947.951	0.0149805
948.030	0.0149381
948.108	0.0148618
948.186	0.0149929
948.264	0.0149641
948.342	0.0148742
948.420	0.0148930
948.498	0.0147823
948.576	0.0149064
948.655	0.0148408
948.733	0.0148557
948.811	0.0147586
948.889	0.0147691
948.967	0.0148032
949.045	0.0147725
949.123	0.0147302
949.201	0.0145913
949.280	0.0145748
949.358	0.0145797
949.436	0.0145869
949.514	0.0146190
949.592	0.0145496
949.670	0.0144315
949.748	0.0145354
949.826	0.0146922
949.905	0.0144563
949.983	0.0144392
950.061	0.0146282
950.139	0.0144469
950.217	0.0145616
950.295	0.0144626
950.373	0.0144025
950.451	0.0146571
950.530	0.0145040
950.608	0.0145860
950.686	0.0145943
950.764	0.0145871
950.842	0.0146685
950.920	0.0145615
950.998	0.0145943
951.076	0.0145057
951.155	0.0145442
951.233	0.0143964
951.311	0.0145009
951.389	0.0143890
951.467	0.0145477
951.545	0.0146313
951.623	0.0144985
951.701	0.0145927
951.780	0.0145553
951.858	0.0144450
951.936	0.0145931
952.014	0.0146092
952.092	0.0146318
952.170	0.0146815
952.248	0.0146466
952.326	0.0146246
952.405	0.0147431
952.483	0.0147890
952.561	0.0146593
952.639	0.0148377
952.717	0.0146983
952.795	0.0147273
952.873	0.0149064
952.951	0.0147337
953.030	0.0147541
953.108	0.0148286
953.186	0.0149645
953.264	0.0149482
953.342	0.0149820
953.420	0.0150204
953.498	0.0149163
953.576	0.0149979
953.655	0.0150092
953.733	0.0148902
953.811	0.0150642
953.889	0.0150009
953.967	0.0150870
954.045	0.0150918
954.123	0.0150337
954.201	0.0149886
954.280	0.0149405
954.358	0.0148964
954.436	0.0150576
954.514	0.0149603
954.592	0.0148205
954.670	0.0148279
954.748	0.0148090
954.826	0.0147375
954.905	0.0145598
954.983	0.0146768
955.061	0.0145662
955.139	0.0146436
955.217	0.0144793
955.295	0.0145655
955.373	0.0146643
955.451	0.0144997
955.530	0.0145522
955.608	0.0144424
955.686	0.0144496
955.764	0.0144605
955.842	0.0145887
955.920	0.0145369
955.998	0.0145764
956.076	0.0146600
956.155	0.0146484
956.233	0.0144931
956.311	0.0144640
956.389	0.0145464
956.467	0.0145252
956.545	0.0145454
956.623	0.0145299
956.701	0.0146556
956.780	0.0146237
956.858	0.0146325
956.936	0.0145692
957.014	0.0145238
957.092	0.0145166
957.170	0.0144510
957.248	0.0143806
957.326	0.0144508
957.405	0.0145461
957.483	0.0145954
957.561	0.0145399
957.639	0.0145689
957.717	0.0146385
957.795	0.0144767
957.873	0.0146394
957.951	0.0146284
958.030	0.0146049
958.108	0.0146872
958.186	0.0147967
958.264	0.0149490
958.342	0.0148550
958.420	0.0148802
958.498	0.0147523
958.576	0.0148298
958.655	0.0148945
958.733	0.0149654
958.811	0.0148837
958.889	0.0147610
958.967	0.0149139
959.045	0.0148922
959.123	0.0149261
959.201	0.0147465
959.280	0.0148042
959.358	0.0148911
959.436	0.0148983
959.514	0.0147679
959.592	0.0147876
959.670	0.0147214
959.748	0.0147791
959.826	0.0148011
959.905	0.0148197
