05/20/2022	16:15:41	Ver.	4.1	UNKNOWN
Optical Delay	639.982744	Delta X		0.078125	Sweeps	1	Scan Rate	0/0
Coordinates	Axis 1	NaN	Axis 2	NaN	Axis 3	NaN	Axis 4	NaN	Axis 5	NaN	Axis 6	0.000000
TX Power	0.000000	RX Power	0.000000

639.983	0.0142709
640.061	0.0141978
640.139	0.0142988
640.217	0.0143232
640.295	0.0143462
640.373	0.0142221
640.451	0.0142565
640.530	0.0141575
640.608	0.0143006
640.686	0.0142966
640.764	0.0142230
640.842	0.0143279
640.920	0.0144365
640.998	0.0142199
641.076	0.0143112
641.155	0.0142722
641.233	0.0142670
641.311	0.0142816
641.389	0.0144402
641.467	0.0143678
641.545	0.0142416
641.623	0.0142244
641.701	0.0142144
641.780	0.0142332
641.858	0.0143021
641.936	0.0141840
642.014	0.0142403
642.092	0.0142936
642.170	0.0142692
642.248	0.0142772
642.326	0.0143910
642.405	0.0143291
642.483	0.0143297
642.561	0.0142803
642.639	0.0142376
642.717	0.0141259
642.795	0.0141334
642.873	0.0143813
642.951	0.0143655
643.030	0.0142632
643.108	0.0141798
643.186	0.0142699
643.264	0.0142541
643.342	0.0141859
643.420	0.0143818
643.498	0.0142049
643.576	0.0143154
643.655	0.0142269
643.733	0.0141792
643.811	0.0143090
643.889	0.0142445
643.967	0.0142954
644.045	0.0142642
644.123	0.0143044
644.201	0.0142873
644.280	0.0142918
644.358	0.0142747
644.436	0.0142189
644.514	0.0142472
644.592	0.0141872
644.670	0.0142958
644.748	0.0142200
644.826	0.0143564
644.905	0.0141705
644.983	0.0143578
645.061	0.0143137
645.139	0.0143198
645.217	0.0142761
645.295	0.0142711
645.373	0.0142814
645.451	0.0143295
645.530	0.0143501
645.608	0.0142764
645.686	0.0142870
645.764	0.0142340
645.842	0.0142524
645.920	0.0143002
645.998	0.0143365
646.076	0.0143641
646.155	0.0142244
646.233	0.0142995
646.311	0.0142216
646.389	0.0143391
646.467	0.0143073
646.545	0.0144197
646.623	0.0142706
646.701	0.0141383
646.780	0.0144154
646.858	0.0143382
646.936	0.0143789
647.014	0.0142614
647.092	0.0143786
647.170	0.0143345
647.248	0.0143681
647.326	0.0142365
647.405	0.0142598
647.483	0.0143909
647.561	0.0142616
647.639	0.0142655
647.717	0.0142641
647.795	0.0143960
647.873	0.0143607
647.951	0.0143291
648.030	0.0142432
648.108	0.0143158
648.186	0.0141877
648.264	0.0142867
648.342	0.0141917
648.420	0.0144305
648.498	0.0143598
648.576	0.0142262
648.655	0.0142738
648.733	0.0143597
648.811	0.0143185
648.889	0.0142284
648.967	0.0144622
649.045	0.0143740
649.123	0.0143053
649.201	0.0142211
649.280	0.0143154
649.358	0.0143578
649.436	0.0143104
649.514	0.0142951
649.592	0.0143958
649.670	0.0143875
649.748	0.0143056
649.826	0.0142229
649.905	0.0142059
649.983	0.0142590
650.061	0.0143664
650.139	0.0142786
650.217	0.0143062
650.295	0.0142854
650.373	0.0142221
650.451	0.0142693
650.530	0.0143722
650.608	0.0142200
650.686	0.0142310
650.764	0.0143277
650.842	0.0141197
650.920	0.0142789
650.998	0.0143092
651.076	0.0143175
651.155	0.0143039
651.233	0.0143377
651.311	0.0142339
651.389	0.0142449
651.467	0.0142184
651.545	0.0143106
651.623	0.0143214
651.701	0.0142958
651.780	0.0143375
651.858	0.0142201
651.936	0.0142846
652.014	0.0142943
652.092	0.0142387
652.170	0.0142935
652.248	0.0142739
652.326	0.0141154
652.405	0.0142986
652.483	0.0142848
652.561	0.0143222
652.639	0.0143485
652.717	0.0143961
652.795	0.0144498
652.873	0.0142278
652.951	0.0142113
653.030	0.0143479
653.108	0.0142438
653.186	0.0142274
653.264	0.0142714
653.342	0.0144652
653.420	0.0142256
653.498	0.0142780
653.576	0.0143365
653.655	0.0143144
653.733	0.0143704
653.811	0.0142803
653.889	0.0143015
653.967	0.0142339
654.045	0.0142721
654.123	0.0143583
654.201	0.0143304
654.280	0.0142771
654.358	0.0144559
654.436	0.0143808
654.514	0.0141721
654.592	0.0142697
654.670	0.0143221
654.748	0.0142096
654.826	0.0143579
654.905	0.0144134
654.983	0.0141917
655.061	0.0143127
655.139	0.0142827
655.217	0.0142249
655.295	0.0141656
655.373	0.0143368
655.451	0.0143531
655.530	0.0142060
655.608	0.0142635
655.686	0.0145079
655.764	0.0142805
655.842	0.0143336
655.920	0.0143120
655.998	0.0142641
656.076	0.0143869
656.155	0.0142579
656.233	0.0143956
656.311	0.0142496
656.389	0.0141402
656.467	0.0142754
656.545	0.0142796
656.623	0.0144329
656.701	0.0143166
656.780	0.0143899
656.858	0.0142477
656.936	0.0143214
657.014	0.0142487
657.092	0.0142762
657.170	0.0143568
657.248	0.0143656
657.326	0.0142813
657.405	0.0144004
657.483	0.0143806
657.561	0.0143157
657.639	0.0142694
657.717	0.0143348
657.795	0.0143065
657.873	0.0142824
657.951	0.0143194
658.030	0.0142991
658.108	0.0140615
658.186	0.0143072
658.264	0.0143897
658.342	0.0142025
658.420	0.0143632
658.498	0.0142368
658.576	0.0142600
658.655	0.0143410
658.733	0.0142607
658.811	0.0143111
658.889	0.0141748
658.967	0.0142298
659.045	0.0141992
659.123	0.0142848
659.201	0.0143271
659.280	0.0142572
659.358	0.0144645
659.436	0.0142432
659.514	0.0143941
659.592	0.0143898
659.670	0.0142599
659.748	0.0142535
659.826	0.0142343
659.905	0.0143227
659.983	0.0143156
660.061	0.0143559
660.139	0.0143237
660.217	0.0142902
660.295	0.0144375
660.373	0.0143712
660.451	0.0145168
660.530	0.0142473
660.608	0.0144042
660.686	0.0141930
660.764	0.0143169
660.842	0.0142812
660.920	0.0142731
660.998	0.0144261
661.076	0.0143387
661.155	0.0142834
661.233	0.0142696
661.311	0.0142600
661.389	0.0142398
661.467	0.0141965
661.545	0.0143058
661.623	0.0142820
661.701	0.0143237
661.780	0.0144160
661.858	0.0142871
661.936	0.0142915
662.014	0.0143439
662.092	0.0143055
662.170	0.0142197
662.248	0.0143565
662.326	0.0143818
662.405	0.0142755
662.483	0.0142803
662.561	0.0142657
662.639	0.0142274
662.717	0.0142946
662.795	0.0142143
662.873	0.0141589
662.951	0.0142654
663.030	0.0143634
663.108	0.0142429
663.186	0.0141983
663.264	0.0142091
663.342	0.0142975
663.420	0.0143725
663.498	0.0143340
663.576	0.0142165
663.655	0.0143665
663.733	0.0143693
663.811	0.0141954
663.889	0.0142165
663.967	0.0142730
664.045	0.0143627
664.123	0.0142868
664.201	0.0143428
664.280	0.0141150
664.358	0.0144019
664.436	0.0144350
664.514	0.0143401
664.592	0.0143352
664.670	0.0142966
664.748	0.0141222
664.826	0.0142378
664.905	0.0144490
664.983	0.0143787
665.061	0.0142973
665.139	0.0143293
665.217	0.0142405
665.295	0.0142404
665.373	0.0143642
665.451	0.0142106
665.530	0.0144108
665.608	0.0142809
665.686	0.0141641
665.764	0.0143459
665.842	0.0142601
665.920	0.0142033
665.998	0.0142947
666.076	0.0143318
666.155	0.0143023
666.233	0.0142386
666.311	0.0143188
666.389	0.0142300
666.467	0.0142873
666.545	0.0143594
666.623	0.0142117
666.701	0.0141550
666.780	0.0143433
666.858	0.0143626
666.936	0.0142846
667.014	0.0143252
667.092	0.0142717
667.170	0.0143056
667.248	0.0143430
667.326	0.0143180
667.405	0.0142869
667.483	0.0142770
667.561	0.0143860
667.639	0.0143629
667.717	0.0143250
667.795	0.0143340
667.873	0.0142122
667.951	0.0143034
668.030	0.0142718
668.108	0.0141277
668.186	0.0142575
668.264	0.0143024
668.342	0.0143221
668.420	0.0142077
668.498	0.0142838
668.576	0.0142685
668.655	0.0142467
668.733	0.0142745
668.811	0.0143057
668.889	0.0144054
668.967	0.0143731
669.045	0.0142352
669.123	0.0142556
669.201	0.0141737
669.280	0.0142092
669.358	0.0142342
669.436	0.0142973
669.514	0.0143201
669.592	0.0143862
669.670	0.0143014
669.748	0.0141634
669.826	0.0142596
669.905	0.0143670
669.983	0.0142775
670.061	0.0143571
670.139	0.0144342
670.217	0.0143896
670.295	0.0142223
670.373	0.0143150
670.451	0.0144315
670.530	0.0144606
670.608	0.0142072
670.686	0.0141808
670.764	0.0143689
670.842	0.0142837
670.920	0.0141624
670.998	0.0142706
671.076	0.0142787
671.155	0.0143674
671.233	0.0142783
671.311	0.0143062
671.389	0.0142774
671.467	0.0142194
671.545	0.0143954
671.623	0.0142719
671.701	0.0143688
671.780	0.0142908
671.858	0.0143259
671.936	0.0141331
672.014	0.0142965
672.092	0.0143641
672.170	0.0141290
672.248	0.0141990
672.326	0.0143682
672.405	0.0143169
672.483	0.0141689
672.561	0.0142890
672.639	0.0144712
672.717	0.0142841
672.795	0.0142596
672.873	0.0143111
672.951	0.0142850
673.030	0.0142302
673.108	0.0142601
673.186	0.0143124
673.264	0.0142535
673.342	0.0144081
673.420	0.0142362
673.498	0.0143063
673.576	0.0142804
673.655	0.0142419
673.733	0.0142410
673.811	0.0142867
673.889	0.0142587
673.967	0.0142970
674.045	0.0143318
674.123	0.0143353
674.201	0.0142006
674.280	0.0141394
674.358	0.0143044
674.436	0.0142809
674.514	0.0141990
674.592	0.0144211
674.670	0.0143063
674.748	0.0142538
674.826	0.0141898
674.905	0.0144378
674.983	0.0142996
675.061	0.0142454
675.139	0.0143212
675.217	0.0142632
675.295	0.0142120
675.373	0.0141684
675.451	0.0142269
675.530	0.0142492
675.608	0.0141768
675.686	0.0142113
675.764	0.0141879
675.842	0.0142879
675.920	0.0143403
675.998	0.0142384
676.076	0.0142248
676.155	0.0142427
676.233	0.0143437
676.311	0.0143255
676.389	0.0142889
676.467	0.0142168
676.545	0.0142640
676.623	0.0142128
676.701	0.0143226
676.780	0.0143213
676.858	0.0142565
676.936	0.0142215
677.014	0.0142944
677.092	0.0141547
677.170	0.0143159
677.248	0.0143204
677.326	0.0143459
677.405	0.0141937
677.483	0.0143138
677.561	0.0143118
677.639	0.0143406
677.717	0.0143436
677.795	0.0143483
677.873	0.0142558
677.951	0.0144046
678.030	0.0143129
678.108	0.0142634
678.186	0.0142976
678.264	0.0143840
678.342	0.0144267
678.420	0.0143614
678.498	0.0143114
678.576	0.0142595
678.655	0.0141914
678.733	0.0143571
678.811	0.0142172
678.889	0.0142487
678.967	0.0143404
679.045	0.0144319
679.123	0.0142489
679.201	0.0142811
679.280	0.0144110
679.358	0.0143072
679.436	0.0141801
679.514	0.0144741
679.592	0.0143977
679.670	0.0143983
679.748	0.0141973
679.826	0.0143153
679.905	0.0144089
679.983	0.0143139
680.061	0.0143742
680.139	0.0143622
680.217	0.0144678
680.295	0.0143954
680.373	0.0143761
680.451	0.0144022
680.530	0.0143195
680.608	0.0142455
680.686	0.0142859
680.764	0.0143693
680.842	0.0143682
680.920	0.0143149
680.998	0.0143506
681.076	0.0140862
681.155	0.0143208
681.233	0.0141421
681.311	0.0142616
681.389	0.0142830
681.467	0.0142425
681.545	0.0143038
681.623	0.0141838
681.701	0.0141364
681.780	0.0141985
681.858	0.0143184
681.936	0.0144248
682.014	0.0143578
682.092	0.0145189
682.170	0.0145492
682.248	0.0144066
682.326	0.0144106
682.405	0.0143873
682.483	0.0143352
682.561	0.0144420
682.639	0.0143867
682.717	0.0143578
682.795	0.0143856
682.873	0.0142120
682.951	0.0143282
683.030	0.0142432
683.108	0.0143314
683.186	0.0143189
683.264	0.0143196
683.342	0.0143943
683.420	0.0142948
683.498	0.0142614
683.576	0.0142844
683.655	0.0144049
683.733	0.0143513
683.811	0.0142508
683.889	0.0142807
683.967	0.0143755
684.045	0.0144778
684.123	0.0143970
684.201	0.0143643
684.280	0.0144037
684.358	0.0143427
684.436	0.0144464
684.514	0.0143700
684.592	0.0142545
684.670	0.0143036
684.748	0.0143378
684.826	0.0143216
684.905	0.0142964
684.983	0.0141947
685.061	0.0141647
685.139	0.0142635
685.217	0.0144919
685.295	0.0144814
685.373	0.0143031
685.451	0.0144127
685.530	0.0145835
685.608	0.0144778
685.686	0.0145085
685.764	0.0145261
685.842	0.0146388
685.920	0.0146854
685.998	0.0144614
686.076	0.0145007
686.155	0.0143461
686.233	0.0143009
686.311	0.0142317
686.389	0.0141821
686.467	0.0140189
686.545	0.0140546
686.623	0.0141013
686.701	0.0140907
686.780	0.0139702
686.858	0.0140216
686.936	0.0141698
687.014	0.0142609
687.092	0.0141451
687.170	0.0143625
687.248	0.0144444
687.326	0.0144315
687.405	0.0143868
687.483	0.0143552
687.561	0.0144357
687.639	0.0142752
687.717	0.0141674
687.795	0.0143321
687.873	0.0142779
687.951	0.0141528
688.030	0.0141598
688.108	0.0142449
688.186	0.0141738
688.264	0.0141951
688.342	0.0143687
688.420	0.0143013
688.498	0.0143346
688.576	0.0141961
688.655	0.0141095
688.733	0.0141667
688.811	0.0142700
688.889	0.0141353
688.967	0.0141200
689.045	0.0141861
689.123	0.0142097
689.201	0.0140356
689.280	0.0142908
689.358	0.0143031
689.436	0.0144093
689.514	0.0145239
689.592	0.0146281
689.670	0.0145924
689.748	0.0147959
689.826	0.0148721
689.905	0.0148480
689.983	0.0147830
690.061	0.0149461
690.139	0.0148708
690.217	0.0148246
690.295	0.0146737
690.373	0.0145600
690.451	0.0145204
690.530	0.0146301
690.608	0.0144035
690.686	0.0142891
690.764	0.0142346
690.842	0.0141008
690.920	0.0138135
690.998	0.0136682
691.076	0.0135916
691.155	0.0132801
691.233	0.0130669
691.311	0.0131350
691.389	0.0130238
691.467	0.0129327
691.545	0.0130766
691.623	0.0131623
691.701	0.0132160
691.780	0.0135180
691.858	0.0136796
691.936	0.0138398
692.014	0.0142961
692.092	0.0145495
692.170	0.0146334
692.248	0.0148693
692.326	0.0150805
692.405	0.0151746
692.483	0.0154673
692.561	0.0152914
692.639	0.0152049
692.717	0.0151421
692.795	0.0151531
692.873	0.0151090
692.951	0.0148101
693.030	0.0146519
693.108	0.0145594
693.186	0.0142866
693.264	0.0141290
693.342	0.0141134
693.420	0.0140880
693.498	0.0140336
693.576	0.0142396
693.655	0.0143666
693.733	0.0144686
693.811	0.0145630
693.889	0.0146989
693.967	0.0146330
694.045	0.0149248
694.123	0.0148373
694.201	0.0148000
694.280	0.0146494
694.358	0.0144868
694.436	0.0144418
694.514	0.0142052
694.592	0.0140659
694.670	0.0139377
694.748	0.0137653
694.826	0.0138222
694.905	0.0140063
694.983	0.0141385
695.061	0.0140955
695.139	0.0141277
695.217	0.0143034
695.295	0.0144444
695.373	0.0145133
695.451	0.0144992
695.530	0.0144404
695.608	0.0143839
695.686	0.0144014
695.764	0.0143174
695.842	0.0140406
695.920	0.0140300
695.998	0.0139059
696.076	0.0137318
696.155	0.0135851
696.233	0.0133609
696.311	0.0132077
696.389	0.0130704
696.467	0.0130010
696.545	0.0128773
696.623	0.0128269
696.701	0.0127340
696.780	0.0127116
696.858	0.0127547
696.936	0.0129884
697.014	0.0129338
697.092	0.0130402
697.170	0.0133381
697.248	0.0134336
697.326	0.0136835
697.405	0.0137743
697.483	0.0142195
697.561	0.0144572
697.639	0.0145939
697.717	0.0146892
697.795	0.0148547
697.873	0.0150295
697.951	0.0151756
698.030	0.0154353
698.108	0.0155585
698.186	0.0157629
698.264	0.0162051
698.342	0.0164821
698.420	0.0167169
698.498	0.0170122
698.576	0.0173357
698.655	0.0175360
698.733	0.0177467
698.811	0.0176005
698.889	0.0176587
698.967	0.0175718
699.045	0.0174648
699.123	0.0169984
699.201	0.0166761
699.280	0.0163263
699.358	0.0157617
699.436	0.0151287
699.514	0.0145075
699.592	0.0140713
699.670	0.0134702
699.748	0.0130952
699.826	0.0126598
699.905	0.0122559
699.983	0.0121220
700.061	0.0118528
700.139	0.0114224
700.217	0.0113882
700.295	0.0111551
700.373	0.0111195
700.451	0.0109831
700.530	0.0107391
700.608	0.0108049
700.686	0.0106221
700.764	0.0106118
700.842	0.0106549
700.920	0.0104990
700.998	0.0106195
701.076	0.0107824
701.155	0.0110375
701.233	0.0111975
701.311	0.0114329
701.389	0.0120631
701.467	0.0123323
701.545	0.0129382
701.623	0.0134280
701.701	0.0138828
701.780	0.0143658
701.858	0.0149363
701.936	0.0153951
702.014	0.0158533
702.092	0.0164479
702.170	0.0170149
702.248	0.0174467
702.326	0.0178104
702.405	0.0180947
702.483	0.0184380
702.561	0.0185418
702.639	0.0186588
702.717	0.0187714
702.795	0.0188150
702.873	0.0187220
702.951	0.0184241
703.030	0.0181902
703.108	0.0179929
703.186	0.0176192
703.264	0.0173678
703.342	0.0170457
703.420	0.0166530
703.498	0.0162830
703.576	0.0161716
703.655	0.0157664
703.733	0.0154518
703.811	0.0151516
703.889	0.0147215
703.967	0.0147115
704.045	0.0144218
704.123	0.0140308
704.201	0.0137589
704.280	0.0133962
704.358	0.0129446
704.436	0.0128587
704.514	0.0122150
704.592	0.0119498
704.670	0.0116672
704.748	0.0111476
704.826	0.0110722
704.905	0.0109615
704.983	0.0107053
705.061	0.0104678
705.139	0.0105635
705.217	0.0107255
705.295	0.0110154
705.373	0.0113018
705.451	0.0113270
705.530	0.0117542
705.608	0.0121124
705.686	0.0122385
705.764	0.0126868
705.842	0.0131737
705.920	0.0135857
705.998	0.0138177
706.076	0.0141906
706.155	0.0142592
706.233	0.0145063
706.311	0.0146758
706.389	0.0145471
706.467	0.0147195
706.545	0.0148092
706.623	0.0146984
706.701	0.0144273
706.780	0.0141067
706.858	0.0140485
706.936	0.0140691
707.014	0.0139496
707.092	0.0138120
707.170	0.0136588
707.248	0.0137236
707.326	0.0139921
707.405	0.0140161
707.483	0.0143989
707.561	0.0148309
707.639	0.0150589
707.717	0.0155238
707.795	0.0160081
707.873	0.0166022
707.951	0.0170900
708.030	0.0174065
708.108	0.0178406
708.186	0.0181242
708.264	0.0182276
708.342	0.0183556
708.420	0.0183703
708.498	0.0182115
708.576	0.0180630
708.655	0.0177079
708.733	0.0174462
708.811	0.0169909
708.889	0.0166744
708.967	0.0162036
709.045	0.0158034
709.123	0.0154916
709.201	0.0152261
709.280	0.0150564
709.358	0.0147203
709.436	0.0147240
709.514	0.0145491
709.592	0.0145491
709.670	0.0144225
709.748	0.0142844
709.826	0.0140141
709.905	0.0137234
709.983	0.0132803
710.061	0.0129031
710.139	0.0125768
710.217	0.0121858
710.295	0.0118112
710.373	0.0112685
710.451	0.0108936
710.530	0.0105610
710.608	0.0102908
710.686	0.0100687
710.764	0.00994118
710.842	0.0100997
710.920	0.0100867
710.998	0.0103687
711.076	0.0107283
711.155	0.0109644
711.233	0.0115849
711.311	0.0119440
711.389	0.0124743
711.467	0.0129834
711.545	0.0136237
711.623	0.0138496
711.701	0.0142078
711.780	0.0147379
711.858	0.0148917
711.936	0.0151603
712.014	0.0151495
712.092	0.0151192
712.170	0.0151596
712.248	0.0149994
712.326	0.0148856
712.405	0.0147369
712.483	0.0144067
712.561	0.0142152
712.639	0.0139719
712.717	0.0136222
712.795	0.0134351
712.873	0.0134420
712.951	0.0134150
713.030	0.0132536
713.108	0.0135021
713.186	0.0135545
713.264	0.0140799
713.342	0.0143598
713.420	0.0149199
713.498	0.0155724
713.576	0.0160551
713.655	0.0167444
713.733	0.0173732
713.811	0.0177382
713.889	0.0183980
713.967	0.0186538
714.045	0.0188688
714.123	0.0190317
714.201	0.0192499
714.280	0.0192674
714.358	0.0191434
714.436	0.0188206
714.514	0.0183951
714.592	0.0180853
714.670	0.0175220
714.748	0.0171186
714.826	0.0164037
714.905	0.0157845
714.983	0.0154276
715.061	0.0149657
715.139	0.0146355
715.217	0.0140916
715.295	0.0138707
715.373	0.0136592
715.451	0.0134016
715.530	0.0130405
715.608	0.0127680
715.686	0.0124895
715.764	0.0122469
715.842	0.0119901
715.920	0.0116736
715.998	0.0113531
716.076	0.0111639
716.155	0.0109013
716.233	0.0105285
716.311	0.0103873
716.389	0.0101698
716.467	0.0100375
716.545	0.00994202
716.623	0.00997566
716.701	0.00986816
716.780	0.0100746
716.858	0.0104583
716.936	0.0105270
717.014	0.0108270
717.092	0.0110616
717.170	0.0115231
717.248	0.0119250
717.326	0.0123855
717.405	0.0127721
717.483	0.0133110
717.561	0.0138972
717.639	0.0143560
717.717	0.0147980
717.795	0.0155504
717.873	0.0161239
717.951	0.0164481
718.030	0.0167350
718.108	0.0170771
718.186	0.0171577
718.264	0.0171342
718.342	0.0172373
718.420	0.0170062
718.498	0.0165345
718.576	0.0161481
718.655	0.0154844
718.733	0.0149031
718.811	0.0143868
718.889	0.0139552
718.967	0.0134657
719.045	0.0133693
719.123	0.0133470
719.201	0.0133318
719.280	0.0135344
719.358	0.0137331
719.436	0.0140318
719.514	0.0144122
719.592	0.0147377
719.670	0.0152808
719.748	0.0158756
719.826	0.0160621
719.905	0.0165029
719.983	0.0169715
720.061	0.0171388
720.139	0.0174673
720.217	0.0177781
720.295	0.0178358
720.373	0.0180145
720.451	0.0179912
720.530	0.0179109
720.608	0.0177831
720.686	0.0177338
720.764	0.0174303
720.842	0.0169460
720.920	0.0168140
720.998	0.0162881
721.076	0.0158142
721.155	0.0152802
721.233	0.0149163
721.311	0.0145468
721.389	0.0141770
721.467	0.0137550
721.545	0.0134182
721.623	0.0131032
721.701	0.0129549
721.780	0.0128162
721.858	0.0125644
721.936	0.0124459
722.014	0.0122611
722.092	0.0120108
722.170	0.0119188
722.248	0.0115559
722.326	0.0111887
722.405	0.0109373
722.483	0.0106221
722.561	0.0104349
722.639	0.0100005
722.717	0.00999664
722.795	0.00996613
722.873	0.00999763
722.951	0.0101369
723.030	0.0102181
723.108	0.0106785
723.186	0.0110278
723.264	0.0115084
723.342	0.0120527
723.420	0.0124039
723.498	0.0128848
723.576	0.0134937
723.655	0.0140842
723.733	0.0145086
723.811	0.0151107
723.889	0.0153951
723.967	0.0157231
724.045	0.0160049
724.123	0.0162766
724.201	0.0163371
724.280	0.0165691
724.358	0.0167642
724.436	0.0167887
724.514	0.0166557
724.592	0.0166925
724.670	0.0165630
724.748	0.0163847
724.826	0.0160290
724.905	0.0158527
724.983	0.0154739
725.061	0.0151854
725.139	0.0148754
725.217	0.0144967
725.295	0.0142710
725.373	0.0140654
725.451	0.0139414
725.530	0.0139442
725.608	0.0137926
725.686	0.0139824
725.764	0.0142149
725.842	0.0144207
725.920	0.0147553
725.998	0.0150663
726.076	0.0154726
726.155	0.0158962
726.233	0.0162077
726.311	0.0167346
726.389	0.0167587
726.467	0.0168855
726.545	0.0173100
726.623	0.0171163
726.701	0.0168847
726.780	0.0168896
726.858	0.0168024
726.936	0.0165929
727.014	0.0163089
727.092	0.0159478
727.170	0.0155746
727.248	0.0151582
727.326	0.0147725
727.405	0.0144802
727.483	0.0141941
727.561	0.0139742
727.639	0.0137682
727.717	0.0135378
727.795	0.0134074
727.873	0.0132816
727.951	0.0131161
728.030	0.0130132
728.108	0.0130649
728.186	0.0129240
728.264	0.0128520
728.342	0.0127105
728.420	0.0125458
728.498	0.0124609
728.576	0.0123367
728.655	0.0119614
728.733	0.0118268
728.811	0.0116257
728.889	0.0113752
728.967	0.0111993
729.045	0.0109988
729.123	0.0106816
729.201	0.0107762
729.280	0.0108308
729.358	0.0109049
729.436	0.0111414
729.514	0.0113599
729.592	0.0118436
729.670	0.0122800
729.748	0.0127031
729.826	0.0130210
729.905	0.0137756
729.983	0.0142697
730.061	0.0147574
730.139	0.0152702
730.217	0.0158987
730.295	0.0161853
730.373	0.0167127
730.451	0.0171161
730.530	0.0172056
730.608	0.0173864
730.686	0.0174036
730.764	0.0174079
730.842	0.0174840
730.920	0.0172108
730.998	0.0168795
731.076	0.0165658
731.155	0.0162557
731.233	0.0157292
731.311	0.0153371
731.389	0.0148159
731.467	0.0143741
731.545	0.0139400
731.623	0.0136143
731.701	0.0134261
731.780	0.0132304
731.858	0.0129438
731.936	0.0130007
732.014	0.0130855
732.092	0.0132349
732.170	0.0134966
732.248	0.0136356
732.326	0.0139661
732.405	0.0144782
732.483	0.0147906
732.561	0.0150842
732.639	0.0154002
732.717	0.0157783
732.795	0.0162097
732.873	0.0161833
732.951	0.0162743
733.030	0.0162954
733.108	0.0162675
733.186	0.0162798
733.264	0.0161036
733.342	0.0159483
733.420	0.0158246
733.498	0.0154626
733.576	0.0152100
733.655	0.0149458
733.733	0.0148157
733.811	0.0144852
733.889	0.0142894
733.967	0.0140141
734.045	0.0137797
734.123	0.0135414
734.201	0.0135075
734.280	0.0133284
734.358	0.0131177
734.436	0.0129558
734.514	0.0128403
734.592	0.0129981
734.670	0.0129774
734.748	0.0131504
734.826	0.0132335
734.905	0.0131621
734.983	0.0132294
735.061	0.0132567
735.139	0.0131184
735.217	0.0132816
735.295	0.0131160
735.373	0.0129427
735.451	0.0129928
735.530	0.0126752
735.608	0.0125850
735.686	0.0127483
735.764	0.0125037
735.842	0.0123557
735.920	0.0124121
735.998	0.0126051
736.076	0.0128391
736.155	0.0130405
736.233	0.0132397
736.311	0.0134693
736.389	0.0137995
736.467	0.0142801
736.545	0.0146936
736.623	0.0148784
736.701	0.0151756
736.780	0.0154067
736.858	0.0156730
736.936	0.0159882
737.014	0.0162909
737.092	0.0161703
737.170	0.0161801
737.248	0.0162497
737.326	0.0162345
737.405	0.0159538
737.483	0.0159861
737.561	0.0157531
737.639	0.0154498
737.717	0.0151623
737.795	0.0147992
737.873	0.0145610
737.951	0.0142821
738.030	0.0139751
738.108	0.0136523
738.186	0.0133833
738.264	0.0132294
738.342	0.0130978
738.420	0.0129581
738.498	0.0131078
738.576	0.0130363
738.655	0.0130491
738.733	0.0133732
738.811	0.0137053
738.889	0.0137163
738.967	0.0140111
739.045	0.0142992
739.123	0.0146026
739.201	0.0150135
739.280	0.0151232
739.358	0.0153648
739.436	0.0155021
739.514	0.0157065
739.592	0.0157795
739.670	0.0157484
739.748	0.0156579
739.826	0.0157378
739.905	0.0156622
739.983	0.0154939
740.061	0.0152586
740.139	0.0150520
740.217	0.0149942
740.295	0.0147483
740.373	0.0145992
740.451	0.0144625
740.530	0.0143163
740.608	0.0141394
740.686	0.0140081
740.764	0.0138639
740.842	0.0137913
740.920	0.0138556
740.998	0.0136256
741.076	0.0136999
741.155	0.0136627
741.233	0.0136098
741.311	0.0137222
741.389	0.0136036
741.467	0.0137342
741.545	0.0138306
741.623	0.0137779
741.701	0.0136948
741.780	0.0135671
741.858	0.0135960
741.936	0.0135877
742.014	0.0135725
742.092	0.0134011
742.170	0.0132014
742.248	0.0131425
742.326	0.0131831
742.405	0.0130788
742.483	0.0129828
742.561	0.0130559
742.639	0.0131377
742.717	0.0131882
742.795	0.0134079
742.873	0.0135191
742.951	0.0138371
743.030	0.0141460
743.108	0.0143926
743.186	0.0145874
743.264	0.0148890
743.342	0.0150696
743.420	0.0153898
743.498	0.0154537
743.576	0.0155483
743.655	0.0155288
743.733	0.0157107
743.811	0.0155107
743.889	0.0152969
743.967	0.0152262
744.045	0.0152484
744.123	0.0149143
744.201	0.0147974
744.280	0.0147943
744.358	0.0147343
744.436	0.0143327
744.514	0.0140723
744.592	0.0140852
744.670	0.0139025
744.748	0.0137642
744.826	0.0137064
744.905	0.0137068
744.983	0.0136582
745.061	0.0135938
745.139	0.0137801
745.217	0.0137729
745.295	0.0137930
745.373	0.0139230
745.451	0.0140757
745.530	0.0141483
745.608	0.0142858
745.686	0.0144918
745.764	0.0144934
745.842	0.0145880
745.920	0.0147950
745.998	0.0147235
746.076	0.0148081
746.155	0.0148527
746.233	0.0148322
746.311	0.0148827
746.389	0.0150015
746.467	0.0149694
746.545	0.0150682
746.623	0.0149839
746.701	0.0148277
746.780	0.0149454
746.858	0.0147761
746.936	0.0147896
747.014	0.0147161
747.092	0.0146661
747.170	0.0144045
747.248	0.0144022
747.326	0.0144192
747.405	0.0140525
747.483	0.0140698
747.561	0.0138530
747.639	0.0139616
747.717	0.0139597
747.795	0.0140335
747.873	0.0141449
747.951	0.0139706
748.030	0.0141692
748.108	0.0142575
748.186	0.0141840
748.264	0.0142100
748.342	0.0142617
748.420	0.0142825
748.498	0.0140852
748.576	0.0141814
748.655	0.0140812
748.733	0.0138623
748.811	0.0138437
748.889	0.0138601
748.967	0.0135843
749.045	0.0136285
749.123	0.0135322
749.201	0.0135433
749.280	0.0135909
749.358	0.0134864
749.436	0.0135664
749.514	0.0138612
749.592	0.0138712
749.670	0.0139533
749.748	0.0142215
749.826	0.0142023
749.905	0.0143576
749.983	0.0146877
750.061	0.0147955
750.139	0.0148740
750.217	0.0150621
750.295	0.0152449
750.373	0.0151814
750.451	0.0151753
750.530	0.0151804
750.608	0.0151210
750.686	0.0151575
750.764	0.0148556
750.842	0.0148337
750.920	0.0145809
750.998	0.0144412
751.076	0.0143562
751.155	0.0142074
751.233	0.0140793
751.311	0.0139234
751.389	0.0138537
751.467	0.0136536
751.545	0.0138421
751.623	0.0136166
751.701	0.0137325
751.780	0.0137706
751.858	0.0139700
751.936	0.0139721
752.014	0.0140353
752.092	0.0142808
752.170	0.0143934
752.248	0.0145492
752.326	0.0145261
752.405	0.0144436
752.483	0.0144619
752.561	0.0146229
752.639	0.0145226
752.717	0.0144943
752.795	0.0144401
752.873	0.0145792
752.951	0.0145184
753.030	0.0143777
753.108	0.0143678
753.186	0.0143940
753.264	0.0144838
753.342	0.0144940
753.420	0.0144689
753.498	0.0145712
753.576	0.0144730
753.655	0.0144242
753.733	0.0144490
753.811	0.0143924
753.889	0.0143744
753.967	0.0143709
754.045	0.0142341
754.123	0.0144478
754.201	0.0144093
754.280	0.0143015
754.358	0.0143893
754.436	0.0144562
754.514	0.0144360
754.592	0.0144544
754.670	0.0145023
754.748	0.0145090
754.826	0.0144307
754.905	0.0145831
754.983	0.0145487
755.061	0.0143785
755.139	0.0143104
755.217	0.0143882
755.295	0.0143143
755.373	0.0142736
755.451	0.0141599
755.530	0.0141055
755.608	0.0141489
755.686	0.0140474
755.764	0.0139442
755.842	0.0141447
755.920	0.0141022
755.998	0.0142020
756.076	0.0141335
756.155	0.0141642
756.233	0.0141956
756.311	0.0142216
756.389	0.0142551
756.467	0.0143508
756.545	0.0142387
756.623	0.0142013
756.701	0.0143010
756.780	0.0145288
756.858	0.0145802
756.936	0.0145464
757.014	0.0145900
757.092	0.0147592
757.170	0.0146531
757.248	0.0146420
757.326	0.0145767
757.405	0.0143877
757.483	0.0146285
757.561	0.0145522
757.639	0.0143990
757.717	0.0143778
757.795	0.0141244
757.873	0.0141036
757.951	0.0139801
758.030	0.0137323
758.108	0.0136795
758.186	0.0137846
758.264	0.0136949
758.342	0.0137835
758.420	0.0136864
758.498	0.0137807
758.576	0.0139215
758.655	0.0139845
758.733	0.0140253
758.811	0.0140200
758.889	0.0141782
758.967	0.0141129
759.045	0.0142820
759.123	0.0143682
759.201	0.0144652
759.280	0.0143543
759.358	0.0144527
759.436	0.0144339
759.514	0.0142953
759.592	0.0144924
759.670	0.0145381
759.748	0.0145623
759.826	0.0145580
759.905	0.0145786
759.983	0.0143871
760.061	0.0145382
760.139	0.0145066
760.217	0.0142988
760.295	0.0143895
760.373	0.0142246
760.451	0.0142859
760.530	0.0141979
760.608	0.0140276
760.686	0.0140282
760.764	0.0139822
760.842	0.0140175
760.920	0.0140637
760.998	0.0141087
761.076	0.0139701
761.155	0.0139024
761.233	0.0141209
761.311	0.0140610
761.389	0.0139849
761.467	0.0140355
761.545	0.0142021
761.623	0.0142507
761.701	0.0141914
761.780	0.0142249
761.858	0.0144792
761.936	0.0144659
762.014	0.0144611
762.092	0.0146349
762.170	0.0144733
762.248	0.0145358
762.326	0.0145753
762.405	0.0144792
762.483	0.0146828
762.561	0.0146178
762.639	0.0145700
762.717	0.0144555
762.795	0.0144540
762.873	0.0144511
762.951	0.0143604
763.030	0.0142789
763.108	0.0141419
763.186	0.0141284
763.264	0.0140475
763.342	0.0140605
763.420	0.0140856
763.498	0.0140802
763.576	0.0142028
763.655	0.0141315
763.733	0.0142060
763.811	0.0142790
763.889	0.0144466
763.967	0.0142834
764.045	0.0144874
764.123	0.0144540
764.201	0.0143441
764.280	0.0142677
764.358	0.0142685
764.436	0.0142574
764.514	0.0142609
764.592	0.0140564
764.670	0.0142026
764.748	0.0141868
764.826	0.0139407
764.905	0.0140750
764.983	0.0139957
765.061	0.0139204
765.139	0.0138318
765.217	0.0139234
765.295	0.0139349
765.373	0.0138676
765.451	0.0138222
765.530	0.0138094
765.608	0.0139685
765.686	0.0140375
765.764	0.0139564
765.842	0.0141975
765.920	0.0140869
765.998	0.0141876
766.076	0.0143008
766.155	0.0143851
766.233	0.0144425
766.311	0.0145328
766.389	0.0145632
766.467	0.0146298
766.545	0.0145248
766.623	0.0147617
766.701	0.0146282
766.780	0.0145750
766.858	0.0146859
766.936	0.0145225
767.014	0.0146093
767.092	0.0144205
767.170	0.0142435
767.248	0.0142053
767.326	0.0142129
767.405	0.0142462
767.483	0.0141079
767.561	0.0141030
767.639	0.0141294
767.717	0.0140543
767.795	0.0140315
767.873	0.0140131
767.951	0.0140783
768.030	0.0141305
768.108	0.0140955
768.186	0.0141602
768.264	0.0140775
768.342	0.0141233
768.420	0.0140992
768.498	0.0141076
768.576	0.0143200
768.655	0.0143349
768.733	0.0143100
768.811	0.0142535
768.889	0.0143313
768.967	0.0144148
769.045	0.0143975
769.123	0.0144062
769.201	0.0144257
769.280	0.0144046
769.358	0.0144642
769.436	0.0144661
769.514	0.0143710
769.592	0.0145626
769.670	0.0144009
769.748	0.0142677
769.826	0.0144024
769.905	0.0144205
769.983	0.0143381
770.061	0.0143719
770.139	0.0145141
770.217	0.0145078
770.295	0.0145216
770.373	0.0144825
770.451	0.0145652
770.530	0.0145007
770.608	0.0145644
770.686	0.0146387
770.764	0.0144222
770.842	0.0144010
770.920	0.0144815
770.998	0.0143181
771.076	0.0143242
771.155	0.0143613
771.233	0.0142506
771.311	0.0141313
771.389	0.0141959
771.467	0.0141705
771.545	0.0142226
771.623	0.0141376
771.701	0.0140659
771.780	0.0142976
771.858	0.0142808
771.936	0.0142400
772.014	0.0141272
772.092	0.0141805
772.170	0.0141862
772.248	0.0142100
772.326	0.0141238
772.405	0.0140184
772.483	0.0139552
772.561	0.0140845
772.639	0.0141309
772.717	0.0139080
772.795	0.0140891
772.873	0.0141786
772.951	0.0142612
773.030	0.0142102
773.108	0.0142120
773.186	0.0143089
773.264	0.0143256
773.342	0.0142651
773.420	0.0143623
773.498	0.0142648
773.576	0.0143774
773.655	0.0142544
773.733	0.0144897
773.811	0.0143140
773.889	0.0142884
773.967	0.0143327
774.045	0.0142944
774.123	0.0143482
774.201	0.0143339
774.280	0.0144128
774.358	0.0144061
774.436	0.0143993
774.514	0.0143624
774.592	0.0143326
774.670	0.0142558
774.748	0.0144224
774.826	0.0141974
774.905	0.0141895
774.983	0.0142016
775.061	0.0142506
775.139	0.0143171
775.217	0.0140612
775.295	0.0142132
775.373	0.0143395
775.451	0.0143685
775.530	0.0142623
775.608	0.0142974
775.686	0.0142353
775.764	0.0143948
775.842	0.0144334
775.920	0.0144910
775.998	0.0145676
776.076	0.0144723
776.155	0.0143508
776.233	0.0144577
776.311	0.0143691
776.389	0.0145902
776.467	0.0146021
776.545	0.0145479
776.623	0.0145341
776.701	0.0144786
776.780	0.0144601
776.858	0.0145199
776.936	0.0145605
777.014	0.0145075
777.092	0.0144761
777.170	0.0145403
777.248	0.0145964
777.326	0.0145167
777.405	0.0145272
777.483	0.0145396
777.561	0.0145271
777.639	0.0145014
777.717	0.0142759
777.795	0.0143834
777.873	0.0144456
777.951	0.0143721
778.030	0.0143044
778.108	0.0143101
778.186	0.0143192
778.264	0.0143256
778.342	0.0141970
778.420	0.0142522
778.498	0.0142776
778.576	0.0142654
778.655	0.0141349
778.733	0.0142546
778.811	0.0142231
778.889	0.0142378
778.967	0.0143465
779.045	0.0142801
779.123	0.0144193
779.201	0.0143680
779.280	0.0142879
779.358	0.0142218
779.436	0.0143451
779.514	0.0142879
779.592	0.0143896
779.670	0.0144736
779.748	0.0144955
779.826	0.0144901
779.905	0.0145720
779.983	0.0144654
780.061	0.0144686
780.139	0.0145987
780.217	0.0145367
780.295	0.0144328
780.373	0.0145090
780.451	0.0144125
780.530	0.0144414
780.608	0.0142910
780.686	0.0141972
780.764	0.0143868
780.842	0.0143377
780.920	0.0142532
780.998	0.0142917
781.076	0.0144842
781.155	0.0145440
781.233	0.0143069
781.311	0.0143517
781.389	0.0143757
781.467	0.0142942
781.545	0.0143039
781.623	0.0142905
781.701	0.0144684
781.780	0.0141565
781.858	0.0144233
781.936	0.0144050
782.014	0.0143555
782.092	0.0143456
782.170	0.0144018
782.248	0.0144688
782.326	0.0143800
782.405	0.0143518
782.483	0.0144580
782.561	0.0143573
782.639	0.0143504
782.717	0.0144160
782.795	0.0143869
782.873	0.0143980
782.951	0.0142909
783.030	0.0144013
783.108	0.0142486
783.186	0.0143198
783.264	0.0143009
783.342	0.0142197
783.420	0.0142421
783.498	0.0142852
783.576	0.0140938
783.655	0.0141589
783.733	0.0141680
783.811	0.0141713
783.889	0.0143886
783.967	0.0142598
784.045	0.0142105
784.123	0.0143166
784.201	0.0143689
784.280	0.0144341
784.358	0.0144383
784.436	0.0144948
784.514	0.0144510
784.592	0.0145551
784.670	0.0144464
784.748	0.0144882
784.826	0.0146226
784.905	0.0143674
784.983	0.0145847
785.061	0.0145190
785.139	0.0145125
785.217	0.0142138
785.295	0.0143600
785.373	0.0143932
785.451	0.0142618
785.530	0.0143226
785.608	0.0144139
785.686	0.0142238
785.764	0.0142794
785.842	0.0142390
785.920	0.0143798
785.998	0.0144028
786.076	0.0143797
786.155	0.0144819
786.233	0.0145561
786.311	0.0144762
786.389	0.0145544
786.467	0.0145136
786.545	0.0144205
786.623	0.0144276
786.701	0.0144453
786.780	0.0144601
786.858	0.0143864
786.936	0.0145055
787.014	0.0142441
787.092	0.0143886
787.170	0.0142849
787.248	0.0141638
787.326	0.0142824
787.405	0.0142185
787.483	0.0140929
787.561	0.0141174
787.639	0.0141023
787.717	0.0141370
787.795	0.0140530
787.873	0.0143189
787.951	0.0141454
788.030	0.0141548
788.108	0.0140204
788.186	0.0142055
788.264	0.0141598
788.342	0.0141167
788.420	0.0141689
788.498	0.0141582
788.576	0.0142363
788.655	0.0140641
788.733	0.0141132
788.811	0.0142426
788.889	0.0142918
788.967	0.0142188
789.045	0.0140734
789.123	0.0141958
789.201	0.0143959
789.280	0.0144202
789.358	0.0144207
789.436	0.0144146
789.514	0.0143874
789.592	0.0144347
789.670	0.0145877
789.748	0.0144817
789.826	0.0145355
789.905	0.0143733
789.983	0.0144656
790.061	0.0144962
790.139	0.0144749
790.217	0.0142363
790.295	0.0142451
790.373	0.0142556
790.451	0.0143281
790.530	0.0142751
790.608	0.0141553
790.686	0.0139864
790.764	0.0141760
790.842	0.0141766
790.920	0.0141650
790.998	0.0140252
791.076	0.0141502
791.155	0.0142719
791.233	0.0141816
791.311	0.0142913
791.389	0.0141557
791.467	0.0141898
791.545	0.0140564
791.623	0.0140647
791.701	0.0141573
791.780	0.0142242
791.858	0.0141489
791.936	0.0141521
792.014	0.0142223
792.092	0.0141822
792.170	0.0143344
792.248	0.0142595
792.326	0.0143820
792.405	0.0143880
792.483	0.0143732
792.561	0.0143027
792.639	0.0144052
792.717	0.0145075
792.795	0.0143714
792.873	0.0143925
792.951	0.0144434
793.030	0.0144324
793.108	0.0142886
793.186	0.0142733
793.264	0.0142381
793.342	0.0141708
793.420	0.0141476
793.498	0.0141517
793.576	0.0141653
793.655	0.0140475
793.733	0.0141502
793.811	0.0142296
793.889	0.0142087
793.967	0.0142056
794.045	0.0143896
794.123	0.0143813
794.201	0.0143027
794.280	0.0143818
794.358	0.0143436
794.436	0.0143695
794.514	0.0145895
794.592	0.0146006
794.670	0.0145263
794.748	0.0144829
794.826	0.0145526
794.905	0.0145612
794.983	0.0146348
795.061	0.0146138
795.139	0.0145651
795.217	0.0145225
795.295	0.0145889
795.373	0.0145220
795.451	0.0145346
795.530	0.0143971
795.608	0.0143879
795.686	0.0143832
795.764	0.0143365
795.842	0.0143808
795.920	0.0144618
795.998	0.0142511
796.076	0.0143530
796.155	0.0141101
796.233	0.0141665
796.311	0.0143194
796.389	0.0139843
796.467	0.0140263
796.545	0.0139585
796.623	0.0140256
796.701	0.0140318
796.780	0.0138555
796.858	0.0137780
796.936	0.0137363
797.014	0.0137130
797.092	0.0137551
797.170	0.0137490
797.248	0.0138506
797.326	0.0138171
797.405	0.0137663
797.483	0.0137276
797.561	0.0139156
797.639	0.0139436
797.717	0.0140780
797.795	0.0140214
797.873	0.0139799
797.951	0.0140681
798.030	0.0142612
798.108	0.0141815
798.186	0.0142449
798.264	0.0141839
798.342	0.0140921
798.420	0.0141766
798.498	0.0143436
798.576	0.0143256
798.655	0.0143864
798.733	0.0144420
798.811	0.0143748
798.889	0.0144949
798.967	0.0147449
799.045	0.0146868
799.123	0.0147813
799.201	0.0148888
799.280	0.0147791
799.358	0.0149416
799.436	0.0150142
799.514	0.0150068
799.592	0.0148913
799.670	0.0151044
799.748	0.0149684
799.826	0.0149859
799.905	0.0150034
799.983	0.0147769
800.061	0.0148447
800.139	0.0147497
800.217	0.0145944
800.295	0.0146580
800.373	0.0145667
800.451	0.0144294
800.530	0.0143932
800.608	0.0145922
800.686	0.0144719
800.764	0.0142628
800.842	0.0141378
800.920	0.0141113
800.998	0.0142834
801.076	0.0139912
801.155	0.0139376
801.233	0.0139642
801.311	0.0138889
801.389	0.0137114
801.467	0.0137386
801.545	0.0137505
801.623	0.0138744
801.701	0.0137637
801.780	0.0138240
801.858	0.0138599
801.936	0.0139075
802.014	0.0141251
802.092	0.0140743
802.170	0.0141454
802.248	0.0140857
802.326	0.0142226
802.405	0.0141904
802.483	0.0143247
802.561	0.0142155
802.639	0.0143363
802.717	0.0142329
802.795	0.0142830
802.873	0.0142610
802.951	0.0142081
803.030	0.0144105
803.108	0.0144283
803.186	0.0142343
803.264	0.0143752
803.342	0.0144213
803.420	0.0142785
803.498	0.0143936
803.576	0.0145371
803.655	0.0144003
803.733	0.0142744
803.811	0.0143023
803.889	0.0143848
803.967	0.0144766
804.045	0.0144602
804.123	0.0145538
804.201	0.0146624
804.280	0.0145325
804.358	0.0146932
804.436	0.0147085
804.514	0.0148000
804.592	0.0147391
804.670	0.0147237
804.748	0.0146879
804.826	0.0146915
804.905	0.0146857
804.983	0.0147431
805.061	0.0147496
805.139	0.0146694
805.217	0.0147263
805.295	0.0145589
805.373	0.0146471
805.451	0.0148181
805.530	0.0146621
805.608	0.0146262
805.686	0.0145665
805.764	0.0147012
805.842	0.0145808
805.920	0.0145335
805.998	0.0146825
806.076	0.0147300
806.155	0.0145142
806.233	0.0144476
806.311	0.0142713
806.389	0.0143505
806.467	0.0142287
806.545	0.0141357
806.623	0.0140736
806.701	0.0138531
806.780	0.0138009
806.858	0.0137006
806.936	0.0136869
807.014	0.0136964
807.092	0.0135297
807.170	0.0135800
807.248	0.0136068
807.326	0.0135681
807.405	0.0137543
807.483	0.0137849
807.561	0.0138700
807.639	0.0139442
807.717	0.0138654
807.795	0.0139915
807.873	0.0139808
807.951	0.0141201
808.030	0.0140119
808.108	0.0141990
808.186	0.0142870
808.264	0.0141752
808.342	0.0142406
808.420	0.0142259
808.498	0.0140717
808.576	0.0141575
808.655	0.0143075
808.733	0.0142769
808.811	0.0143098
808.889	0.0144644
808.967	0.0144775
809.045	0.0143530
809.123	0.0144051
809.201	0.0145446
809.280	0.0144025
809.358	0.0143987
809.436	0.0144460
809.514	0.0144790
809.592	0.0145080
809.670	0.0145781
809.748	0.0145937
809.826	0.0146188
809.905	0.0146237
809.983	0.0145180
810.061	0.0147689
810.139	0.0147001
810.217	0.0148276
810.295	0.0147734
810.373	0.0146918
810.451	0.0147359
810.530	0.0147569
810.608	0.0147015
810.686	0.0149035
810.764	0.0148486
810.842	0.0149177
810.920	0.0148291
810.998	0.0148274
811.076	0.0147936
811.155	0.0147961
811.233	0.0147542
811.311	0.0147703
811.389	0.0146918
811.467	0.0146094
811.545	0.0145755
811.623	0.0144002
811.701	0.0145729
811.780	0.0143674
811.858	0.0143030
811.936	0.0142171
812.014	0.0140398
812.092	0.0139658
812.170	0.0140347
812.248	0.0139209
812.326	0.0137759
812.405	0.0137088
812.483	0.0136839
812.561	0.0137104
812.639	0.0137228
812.717	0.0136069
812.795	0.0135564
812.873	0.0136111
812.951	0.0135600
813.030	0.0135594
813.108	0.0135981
813.186	0.0135288
813.264	0.0136008
813.342	0.0136057
813.420	0.0136022
813.498	0.0137092
813.576	0.0137090
813.655	0.0136504
813.733	0.0138120
813.811	0.0137423
813.889	0.0138364
813.967	0.0139867
814.045	0.0141764
814.123	0.0141601
814.201	0.0142861
814.280	0.0145242
814.358	0.0144393
814.436	0.0145363
814.514	0.0145378
814.592	0.0145718
814.670	0.0146250
814.748	0.0146711
814.826	0.0146581
814.905	0.0146826
814.983	0.0147544
815.061	0.0147551
815.139	0.0148299
815.217	0.0147060
815.295	0.0145087
815.373	0.0145750
815.451	0.0147142
815.530	0.0147649
815.608	0.0146280
815.686	0.0146567
815.764	0.0146676
815.842	0.0146966
815.920	0.0146223
815.998	0.0146893
816.076	0.0146738
816.155	0.0146261
816.233	0.0146645
816.311	0.0147797
816.389	0.0147796
816.467	0.0146944
816.545	0.0147911
816.623	0.0148452
816.701	0.0147781
816.780	0.0147461
816.858	0.0145798
816.936	0.0146720
817.014	0.0146166
817.092	0.0145701
817.170	0.0146442
817.248	0.0145693
817.326	0.0145532
817.405	0.0143578
817.483	0.0143956
817.561	0.0144234
817.639	0.0142568
817.717	0.0142628
817.795	0.0142632
817.873	0.0141864
817.951	0.0142363
818.030	0.0140637
818.108	0.0138645
818.186	0.0139220
818.264	0.0137663
818.342	0.0136827
818.420	0.0138678
818.498	0.0138251
818.576	0.0134991
818.655	0.0136212
818.733	0.0136729
818.811	0.0135277
818.889	0.0134710
818.967	0.0136547
819.045	0.0135986
819.123	0.0136090
819.201	0.0136162
819.280	0.0135615
819.358	0.0135671
819.436	0.0135783
819.514	0.0136637
819.592	0.0136844
819.670	0.0135889
819.748	0.0137667
819.826	0.0139096
819.905	0.0139136
819.983	0.0139573
820.061	0.0141011
820.139	0.0142972
820.217	0.0142962
820.295	0.0144757
820.373	0.0143810
820.451	0.0145067
820.530	0.0146667
820.608	0.0147300
820.686	0.0147094
820.764	0.0148177
820.842	0.0148431
820.920	0.0147350
820.998	0.0148160
821.076	0.0150104
821.155	0.0150398
821.233	0.0148920
821.311	0.0147406
821.389	0.0147654
821.467	0.0147113
821.545	0.0146019
821.623	0.0145860
821.701	0.0146790
821.780	0.0144536
821.858	0.0144599
821.936	0.0144192
822.014	0.0143031
822.092	0.0141042
822.170	0.0140658
822.248	0.0141915
822.326	0.0143220
822.405	0.0142030
822.483	0.0142277
822.561	0.0141464
822.639	0.0142838
822.717	0.0144447
822.795	0.0142691
822.873	0.0144933
822.951	0.0144075
823.030	0.0145029
823.108	0.0145815
823.186	0.0144864
823.264	0.0145435
823.342	0.0146263
823.420	0.0143805
823.498	0.0145116
823.576	0.0144225
823.655	0.0144433
823.733	0.0143704
823.811	0.0141325
823.889	0.0144312
823.967	0.0141887
824.045	0.0141096
824.123	0.0142287
824.201	0.0141003
824.280	0.0141307
824.358	0.0140130
824.436	0.0140508
824.514	0.0141233
824.592	0.0140145
824.670	0.0140163
824.748	0.0140021
824.826	0.0139257
824.905	0.0138764
824.983	0.0138052
825.061	0.0138561
825.139	0.0136930
825.217	0.0137177
825.295	0.0138175
825.373	0.0136700
825.451	0.0138200
825.530	0.0136698
825.608	0.0137400
825.686	0.0138524
825.764	0.0139479
825.842	0.0139350
825.920	0.0141321
825.998	0.0141457
826.076	0.0140648
826.155	0.0142181
826.233	0.0142284
826.311	0.0142429
826.389	0.0143534
826.467	0.0145110
826.545	0.0146511
826.623	0.0145601
826.701	0.0146571
826.780	0.0146574
826.858	0.0147404
826.936	0.0147943
827.014	0.0148027
827.092	0.0148969
827.170	0.0148450
827.248	0.0148568
827.326	0.0148000
827.405	0.0147268
827.483	0.0147140
827.561	0.0146436
827.639	0.0145555
827.717	0.0147155
827.795	0.0146165
827.873	0.0146520
827.951	0.0144070
828.030	0.0144287
828.108	0.0144817
828.186	0.0144054
828.264	0.0144400
828.342	0.0143315
828.420	0.0143100
828.498	0.0143564
828.576	0.0142747
828.655	0.0144955
828.733	0.0143165
828.811	0.0144260
828.889	0.0142145
828.967	0.0142622
829.045	0.0144043
829.123	0.0145201
829.201	0.0143964
829.280	0.0142657
829.358	0.0142961
829.436	0.0143301
829.514	0.0144555
829.592	0.0144283
829.670	0.0141734
829.748	0.0143226
829.826	0.0144379
829.905	0.0144107
829.983	0.0141480
830.061	0.0142789
830.139	0.0142677
830.217	0.0141657
830.295	0.0140947
830.373	0.0140621
830.451	0.0139700
830.530	0.0139761
830.608	0.0140620
830.686	0.0139744
830.764	0.0140632
830.842	0.0140497
830.920	0.0140980
830.998	0.0140605
831.076	0.0140971
831.155	0.0139465
831.233	0.0141934
831.311	0.0141257
831.389	0.0142504
831.467	0.0141803
831.545	0.0141761
831.623	0.0141462
831.701	0.0141708
831.780	0.0140189
831.858	0.0140929
831.936	0.0141334
832.014	0.0140944
832.092	0.0140992
832.170	0.0141959
832.248	0.0139920
832.326	0.0139319
832.405	0.0142574
832.483	0.0141471
832.561	0.0141609
832.639	0.0144261
832.717	0.0143304
832.795	0.0145274
832.873	0.0143835
832.951	0.0143417
833.030	0.0144812
833.108	0.0144988
833.186	0.0145458
833.264	0.0146130
833.342	0.0146429
833.420	0.0145094
833.498	0.0145116
833.576	0.0145818
833.655	0.0145731
833.733	0.0146671
833.811	0.0146449
833.889	0.0146045
833.967	0.0146496
834.045	0.0145718
834.123	0.0145673
834.201	0.0146701
834.280	0.0144533
834.358	0.0144955
834.436	0.0145728
834.514	0.0145579
834.592	0.0144501
834.670	0.0143251
834.748	0.0142545
834.826	0.0141480
834.905	0.0142784
834.983	0.0142405
835.061	0.0141963
835.139	0.0142490
835.217	0.0140138
835.295	0.0140451
835.373	0.0140736
835.451	0.0139973
835.530	0.0140957
835.608	0.0141475
835.686	0.0139380
835.764	0.0140946
835.842	0.0141913
835.920	0.0143312
835.998	0.0142698
836.076	0.0142688
836.155	0.0141963
836.233	0.0143068
836.311	0.0142645
836.389	0.0143451
836.467	0.0144138
836.545	0.0144903
836.623	0.0142165
836.701	0.0143119
836.780	0.0143412
836.858	0.0142686
836.936	0.0143034
837.014	0.0143799
837.092	0.0143527
837.170	0.0142017
837.248	0.0141734
837.326	0.0143362
837.405	0.0142207
837.483	0.0140012
837.561	0.0142772
837.639	0.0142157
837.717	0.0141481
837.795	0.0140086
837.873	0.0139552
837.951	0.0140987
838.030	0.0141499
838.108	0.0140085
838.186	0.0140226
838.264	0.0140005
838.342	0.0138690
838.420	0.0138828
838.498	0.0140788
838.576	0.0141411
838.655	0.0141566
838.733	0.0140836
838.811	0.0140852
838.889	0.0142722
838.967	0.0142046
839.045	0.0142715
839.123	0.0142898
839.201	0.0142471
839.280	0.0144515
839.358	0.0144064
839.436	0.0145110
839.514	0.0144768
839.592	0.0145152
839.670	0.0146001
839.748	0.0145860
839.826	0.0145274
839.905	0.0145978
839.983	0.0145415
840.061	0.0146094
840.139	0.0147293
840.217	0.0146121
840.295	0.0145341
840.373	0.0144696
840.451	0.0144619
840.530	0.0144037
840.608	0.0143833
840.686	0.0142661
840.764	0.0143763
840.842	0.0143393
840.920	0.0142906
840.998	0.0143523
841.076	0.0142046
841.155	0.0143193
841.233	0.0142188
841.311	0.0142621
841.389	0.0142832
841.467	0.0141652
841.545	0.0141532
841.623	0.0141708
841.701	0.0141099
841.780	0.0141190
841.858	0.0141676
841.936	0.0140961
842.014	0.0140687
842.092	0.0140765
842.170	0.0140566
842.248	0.0141224
842.326	0.0139745
842.405	0.0140154
842.483	0.0141184
842.561	0.0140395
842.639	0.0140193
842.717	0.0140632
842.795	0.0140806
842.873	0.0141766
842.951	0.0143736
843.030	0.0143514
843.108	0.0143055
843.186	0.0141899
843.264	0.0142678
843.342	0.0143108
843.420	0.0144916
843.498	0.0143163
843.576	0.0143317
843.655	0.0143153
843.733	0.0143835
843.811	0.0144167
843.889	0.0142065
843.967	0.0143680
844.045	0.0143394
844.123	0.0145034
844.201	0.0144674
844.280	0.0143267
844.358	0.0143363
844.436	0.0143879
844.514	0.0143121
844.592	0.0143618
844.670	0.0144218
844.748	0.0144624
844.826	0.0144814
844.905	0.0143078
844.983	0.0143947
845.061	0.0144307
845.139	0.0143576
845.217	0.0143626
845.295	0.0144904
845.373	0.0144228
845.451	0.0144551
845.530	0.0145007
845.608	0.0144398
845.686	0.0144299
845.764	0.0143072
845.842	0.0143207
845.920	0.0143932
845.998	0.0144273
846.076	0.0144749
846.155	0.0144216
846.233	0.0143061
846.311	0.0144155
846.389	0.0144456
846.467	0.0144347
846.545	0.0144621
846.623	0.0144431
846.701	0.0143490
846.780	0.0143920
846.858	0.0143992
846.936	0.0145552
847.014	0.0143792
847.092	0.0143020
847.170	0.0142615
847.248	0.0142351
847.326	0.0144689
847.405	0.0142981
847.483	0.0144823
847.561	0.0143389
847.639	0.0141747
847.717	0.0143275
847.795	0.0143337
847.873	0.0142777
847.951	0.0141001
848.030	0.0143416
848.108	0.0141241
848.186	0.0143196
848.264	0.0142662
848.342	0.0141357
848.420	0.0141600
848.498	0.0140907
848.576	0.0142471
848.655	0.0142251
848.733	0.0141566
848.811	0.0142449
848.889	0.0141190
848.967	0.0142288
849.045	0.0142655
849.123	0.0141180
849.201	0.0140138
849.280	0.0142690
849.358	0.0142135
849.436	0.0143580
849.514	0.0143692
849.592	0.0142547
849.670	0.0143858
849.748	0.0144162
849.826	0.0144393
849.905	0.0144630
849.983	0.0144043
850.061	0.0144035
850.139	0.0144590
850.217	0.0144382
850.295	0.0144928
850.373	0.0144720
850.451	0.0144421
850.530	0.0143188
850.608	0.0145099
850.686	0.0144015
850.764	0.0144641
850.842	0.0145861
850.920	0.0144690
850.998	0.0145522
851.076	0.0144206
851.155	0.0143217
851.233	0.0144063
851.311	0.0145626
851.389	0.0145335
851.467	0.0145153
851.545	0.0145364
851.623	0.0145641
851.701	0.0145399
851.780	0.0144553
851.858	0.0144089
851.936	0.0145258
852.014	0.0146143
852.092	0.0144170
852.170	0.0144678
852.248	0.0144065
852.326	0.0144118
852.405	0.0144836
852.483	0.0144248
852.561	0.0143644
852.639	0.0144328
852.717	0.0143121
852.795	0.0142759
852.873	0.0143420
852.951	0.0143613
853.030	0.0143331
853.108	0.0142914
853.186	0.0142586
853.264	0.0143096
853.342	0.0142924
853.420	0.0142187
853.498	0.0143591
853.576	0.0142491
853.655	0.0142268
853.733	0.0142666
853.811	0.0141892
853.889	0.0142242
853.967	0.0141814
854.045	0.0142108
854.123	0.0141235
854.201	0.0140512
854.280	0.0142300
854.358	0.0141483
854.436	0.0141600
854.514	0.0140108
854.592	0.0140130
854.670	0.0142542
854.748	0.0140894
854.826	0.0141816
854.905	0.0141602
854.983	0.0140717
855.061	0.0141061
855.139	0.0141141
855.217	0.0141819
855.295	0.0140954
855.373	0.0142611
855.451	0.0141917
855.530	0.0141934
855.608	0.0142278
855.686	0.0143333
855.764	0.0142976
855.842	0.0141550
855.920	0.0143008
855.998	0.0142383
856.076	0.0145447
856.155	0.0145315
856.233	0.0144483
856.311	0.0143575
856.389	0.0145011
856.467	0.0146542
856.545	0.0146012
856.623	0.0144939
856.701	0.0146997
856.780	0.0144405
856.858	0.0145272
856.936	0.0146603
857.014	0.0145395
857.092	0.0145159
857.170	0.0144847
857.248	0.0144602
857.326	0.0145110
857.405	0.0144935
857.483	0.0142902
857.561	0.0144135
857.639	0.0143326
857.717	0.0144208
857.795	0.0142696
857.873	0.0144536
857.951	0.0143891
858.030	0.0143005
858.108	0.0143329
858.186	0.0144576
858.264	0.0144415
858.342	0.0144275
858.420	0.0143894
858.498	0.0143873
858.576	0.0141924
858.655	0.0143005
858.733	0.0143357
858.811	0.0141912
858.889	0.0141827
858.967	0.0141975
859.045	0.0142721
859.123	0.0142059
859.201	0.0141447
859.280	0.0142258
859.358	0.0142026
859.436	0.0141641
859.514	0.0142206
859.592	0.0141129
859.670	0.0141408
859.748	0.0141999
859.826	0.0141794
859.905	0.0141615
859.983	0.0140954
860.061	0.0141653
860.139	0.0142529
860.217	0.0141570
860.295	0.0142297
860.373	0.0142831
860.451	0.0142564
860.530	0.0142566
860.608	0.0142805
860.686	0.0141850
860.764	0.0142636
860.842	0.0142416
860.920	0.0141771
860.998	0.0141811
861.076	0.0141222
861.155	0.0142684
861.233	0.0139460
861.311	0.0141154
861.389	0.0140459
861.467	0.0140589
861.545	0.0141763
861.623	0.0140236
861.701	0.0140706
861.780	0.0142016
861.858	0.0141052
861.936	0.0141214
862.014	0.0143130
862.092	0.0142494
862.170	0.0141393
862.248	0.0141565
862.326	0.0143977
862.405	0.0144788
862.483	0.0143157
862.561	0.0143453
862.639	0.0145065
862.717	0.0144994
862.795	0.0145308
862.873	0.0145678
862.951	0.0145214
863.030	0.0145560
863.108	0.0146775
863.186	0.0144706
863.264	0.0145689
863.342	0.0145896
863.420	0.0147086
863.498	0.0145554
863.576	0.0143280
863.655	0.0144613
863.733	0.0146772
863.811	0.0144794
863.889	0.0144176
863.967	0.0143393
864.045	0.0142252
864.123	0.0142856
864.201	0.0143519
864.280	0.0143681
864.358	0.0143699
864.436	0.0144034
864.514	0.0144016
864.592	0.0142821
864.670	0.0142410
864.748	0.0143776
864.826	0.0142725
864.905	0.0142666
864.983	0.0142925
865.061	0.0143102
865.139	0.0144466
865.217	0.0142218
865.295	0.0142826
865.373	0.0141456
865.451	0.0141836
865.530	0.0141779
865.608	0.0142647
865.686	0.0142751
865.764	0.0141320
865.842	0.0141875
865.920	0.0141026
865.998	0.0142437
866.076	0.0143140
866.155	0.0141856
866.233	0.0141963
866.311	0.0141664
866.389	0.0141283
866.467	0.0142174
866.545	0.0142544
866.623	0.0142362
866.701	0.0140939
866.780	0.0141077
866.858	0.0142742
866.936	0.0143362
867.014	0.0143190
867.092	0.0143707
867.170	0.0141370
867.248	0.0142974
867.326	0.0142419
867.405	0.0142417
867.483	0.0142429
867.561	0.0141756
867.639	0.0143227
867.717	0.0143202
867.795	0.0143091
867.873	0.0143590
867.951	0.0143432
868.030	0.0143292
868.108	0.0142438
868.186	0.0142411
868.264	0.0141607
868.342	0.0142886
868.420	0.0143623
868.498	0.0144448
868.576	0.0144093
868.655	0.0144543
868.733	0.0144824
868.811	0.0145027
868.889	0.0143676
868.967	0.0144127
869.045	0.0145752
869.123	0.0145552
869.201	0.0145014
869.280	0.0146486
869.358	0.0146152
869.436	0.0145972
869.514	0.0144395
869.592	0.0145653
869.670	0.0146066
869.748	0.0145744
869.826	0.0143904
869.905	0.0145874
869.983	0.0144824
870.061	0.0143703
870.139	0.0144004
870.217	0.0144427
870.295	0.0143886
870.373	0.0143469
870.451	0.0142279
870.530	0.0143800
870.608	0.0143591
870.686	0.0141301
870.764	0.0143028
870.842	0.0140974
870.920	0.0140510
870.998	0.0143578
871.076	0.0142782
871.155	0.0141354
871.233	0.0141769
871.311	0.0142321
871.389	0.0141944
871.467	0.0143260
871.545	0.0141186
871.623	0.0141969
871.701	0.0142486
871.780	0.0142564
871.858	0.0142228
871.936	0.0141881
872.014	0.0142480
872.092	0.0142135
872.170	0.0142415
872.248	0.0142726
872.326	0.0143351
872.405	0.0143096
872.483	0.0142270
872.561	0.0143288
872.639	0.0142849
872.717	0.0142193
872.795	0.0142967
872.873	0.0144099
872.951	0.0142403
873.030	0.0143385
873.108	0.0142714
873.186	0.0143049
873.264	0.0144273
873.342	0.0143630
873.420	0.0143542
873.498	0.0143619
873.576	0.0144334
873.655	0.0144477
873.733	0.0144382
873.811	0.0144830
873.889	0.0144321
873.967	0.0144675
874.045	0.0144930
874.123	0.0144679
874.201	0.0145469
874.280	0.0142637
874.358	0.0143779
874.436	0.0144371
874.514	0.0144547
874.592	0.0144888
874.670	0.0143456
874.748	0.0143519
874.826	0.0144381
874.905	0.0142955
874.983	0.0144535
875.061	0.0144978
875.139	0.0143447
875.217	0.0144081
875.295	0.0146140
875.373	0.0145441
875.451	0.0145827
875.530	0.0143861
875.608	0.0143333
875.686	0.0142886
875.764	0.0144514
875.842	0.0144229
875.920	0.0143260
875.998	0.0144435
876.076	0.0142839
876.155	0.0143315
876.233	0.0142820
876.311	0.0144032
876.389	0.0143031
876.467	0.0143295
876.545	0.0142668
876.623	0.0141726
876.701	0.0140968
876.780	0.0142790
876.858	0.0142548
876.936	0.0141267
877.014	0.0141657
877.092	0.0141677
877.170	0.0142464
877.248	0.0142246
877.326	0.0141989
877.405	0.0144315
877.483	0.0142962
877.561	0.0141721
877.639	0.0140486
877.717	0.0140019
877.795	0.0142075
877.873	0.0142288
877.951	0.0143305
878.030	0.0141737
878.108	0.0142818
878.186	0.0143075
878.264	0.0144125
878.342	0.0142527
878.420	0.0143224
878.498	0.0144298
878.576	0.0145022
878.655	0.0143224
878.733	0.0144718
878.811	0.0144564
878.889	0.0145882
878.967	0.0145789
879.045	0.0144574
879.123	0.0144526
879.201	0.0144653
879.280	0.0143983
879.358	0.0144899
879.436	0.0144762
879.514	0.0143755
879.592	0.0144515
879.670	0.0143637
879.748	0.0143043
879.826	0.0142673
879.905	0.0142649
879.983	0.0142020
880.061	0.0142397
880.139	0.0143193
880.217	0.0143174
880.295	0.0141526
880.373	0.0142681
880.451	0.0142500
880.530	0.0141779
880.608	0.0142665
880.686	0.0142547
880.764	0.0141155
880.842	0.0143259
880.920	0.0143410
880.998	0.0141676
881.076	0.0141992
881.155	0.0144294
881.233	0.0143943
881.311	0.0144308
881.389	0.0144086
881.467	0.0144225
881.545	0.0143317
881.623	0.0142651
881.701	0.0144601
881.780	0.0144273
881.858	0.0144203
881.936	0.0143812
882.014	0.0143726
882.092	0.0144402
882.170	0.0144118
882.248	0.0144466
882.326	0.0142722
882.405	0.0143264
882.483	0.0142215
882.561	0.0142324
882.639	0.0142168
882.717	0.0142110
882.795	0.0142452
882.873	0.0142747
882.951	0.0142608
883.030	0.0142700
883.108	0.0143485
883.186	0.0142060
883.264	0.0141377
883.342	0.0143000
883.420	0.0142874
883.498	0.0142092
883.576	0.0142226
883.655	0.0141531
883.733	0.0142463
883.811	0.0142126
883.889	0.0141913
883.967	0.0144360
884.045	0.0144141
884.123	0.0144496
884.201	0.0143823
884.280	0.0143362
884.358	0.0143385
884.436	0.0143684
884.514	0.0143520
884.592	0.0144057
884.670	0.0143732
884.748	0.0143410
884.826	0.0143212
884.905	0.0143056
884.983	0.0142107
885.061	0.0143030
885.139	0.0143599
885.217	0.0144115
885.295	0.0143926
885.373	0.0143861
885.451	0.0144299
885.530	0.0145139
885.608	0.0144460
885.686	0.0144291
885.764	0.0144032
885.842	0.0144292
885.920	0.0143110
885.998	0.0142506
886.076	0.0143694
886.155	0.0142628
886.233	0.0143735
886.311	0.0143389
886.389	0.0143414
886.467	0.0143713
886.545	0.0142715
886.623	0.0144223
886.701	0.0143537
886.780	0.0143530
886.858	0.0142882
886.936	0.0143639
887.014	0.0144901
887.092	0.0145844
887.170	0.0144676
887.248	0.0144122
887.326	0.0144431
887.405	0.0144602
887.483	0.0144371
887.561	0.0144503
887.639	0.0144197
887.717	0.0144000
887.795	0.0143770
887.873	0.0141678
887.951	0.0144003
888.030	0.0142912
888.108	0.0142604
888.186	0.0142409
888.264	0.0141728
888.342	0.0141257
888.420	0.0140634
888.498	0.0141645
888.576	0.0141033
888.655	0.0140180
888.733	0.0141969
888.811	0.0142808
888.889	0.0141364
888.967	0.0142806
889.045	0.0144183
889.123	0.0142886
889.201	0.0142919
889.280	0.0144070
889.358	0.0143441
889.436	0.0143587
889.514	0.0144843
889.592	0.0144138
889.670	0.0144186
889.748	0.0143889
889.826	0.0144989
889.905	0.0143520
889.983	0.0144749
890.061	0.0143269
890.139	0.0144267
890.217	0.0145174
890.295	0.0145049
890.373	0.0143490
890.451	0.0146266
890.530	0.0144315
890.608	0.0145629
890.686	0.0144542
890.764	0.0145354
890.842	0.0145350
890.920	0.0145278
890.998	0.0143757
891.076	0.0142551
891.155	0.0141994
891.233	0.0142632
891.311	0.0143652
891.389	0.0142308
891.467	0.0140810
891.545	0.0142446
891.623	0.0142685
891.701	0.0141910
891.780	0.0141695
891.858	0.0142442
891.936	0.0143401
892.014	0.0141487
892.092	0.0141628
892.170	0.0142417
892.248	0.0143559
892.326	0.0142507
892.405	0.0141991
892.483	0.0141237
892.561	0.0141143
892.639	0.0141187
892.717	0.0142902
892.795	0.0141080
892.873	0.0140293
892.951	0.0142999
893.030	0.0143143
893.108	0.0141879
893.186	0.0143450
893.264	0.0144660
893.342	0.0143797
893.420	0.0142572
893.498	0.0144845
893.576	0.0146436
893.655	0.0145744
893.733	0.0143034
893.811	0.0144590
893.889	0.0145476
893.967	0.0146075
894.045	0.0143097
894.123	0.0144034
894.201	0.0144190
894.280	0.0143023
894.358	0.0143710
894.436	0.0143395
894.514	0.0143730
894.592	0.0142091
894.670	0.0142184
894.748	0.0142412
894.826	0.0141931
894.905	0.0142288
894.983	0.0142298
895.061	0.0142074
895.139	0.0141615
895.217	0.0142480
895.295	0.0142590
895.373	0.0143347
895.451	0.0142387
895.530	0.0142451
895.608	0.0142770
895.686	0.0144296
895.764	0.0143562
895.842	0.0144783
895.920	0.0144008
895.998	0.0144080
896.076	0.0144653
896.155	0.0142550
896.233	0.0142374
896.311	0.0142960
896.389	0.0141396
896.467	0.0141631
896.545	0.0141944
896.623	0.0140493
896.701	0.0139833
896.780	0.0142044
896.858	0.0142771
896.936	0.0143447
897.014	0.0143796
897.092	0.0143612
897.170	0.0144448
897.248	0.0144360
897.326	0.0145301
897.405	0.0144045
897.483	0.0144890
897.561	0.0145779
897.639	0.0145746
897.717	0.0144315
897.795	0.0144688
897.873	0.0145878
897.951	0.0144888
898.030	0.0144674
898.108	0.0143661
898.186	0.0143477
898.264	0.0143661
898.342	0.0142332
898.420	0.0141754
898.498	0.0141111
898.576	0.0141665
898.655	0.0141671
898.733	0.0141631
898.811	0.0143285
898.889	0.0142125
898.967	0.0142091
899.045	0.0142156
899.123	0.0142733
899.201	0.0142162
899.280	0.0144552
899.358	0.0142049
899.436	0.0141338
899.514	0.0144086
899.592	0.0142185
899.670	0.0142762
899.748	0.0141941
899.826	0.0144286
899.905	0.0142960
899.983	0.0142427
900.061	0.0142879
900.139	0.0143032
900.217	0.0142178
900.295	0.0142028
900.373	0.0142884
900.451	0.0142683
900.530	0.0143169
900.608	0.0141705
900.686	0.0141488
900.764	0.0142442
900.842	0.0142743
900.920	0.0140755
900.998	0.0142236
901.076	0.0144143
901.155	0.0142496
901.233	0.0141150
901.311	0.0143564
901.389	0.0142973
901.467	0.0142143
901.545	0.0142452
901.623	0.0143376
901.701	0.0142780
901.780	0.0143335
901.858	0.0142713
901.936	0.0143092
902.014	0.0142535
902.092	0.0142628
902.170	0.0141125
902.248	0.0141422
902.326	0.0142527
902.405	0.0142940
902.483	0.0143800
902.561	0.0144214
902.639	0.0143840
902.717	0.0144962
902.795	0.0144499
902.873	0.0145078
902.951	0.0146054
903.030	0.0144496
903.108	0.0143829
903.186	0.0145837
903.264	0.0145460
903.342	0.0145322
903.420	0.0144579
903.498	0.0144323
903.576	0.0143255
903.655	0.0141732
903.733	0.0142443
903.811	0.0141397
903.889	0.0141862
903.967	0.0141031
904.045	0.0139773
904.123	0.0139442
904.201	0.0139981
904.280	0.0138871
904.358	0.0139447
904.436	0.0138499
904.514	0.0139772
904.592	0.0138661
904.670	0.0139829
904.748	0.0140944
904.826	0.0141322
904.905	0.0139932
904.983	0.0140011
905.061	0.0141951
905.139	0.0141590
905.217	0.0143248
905.295	0.0143206
905.373	0.0143501
905.451	0.0144689
905.530	0.0145862
905.608	0.0143849
905.686	0.0144286
905.764	0.0145586
905.842	0.0144244
905.920	0.0146683
905.998	0.0145970
906.076	0.0144572
906.155	0.0144527
906.233	0.0145552
906.311	0.0146088
906.389	0.0144917
906.467	0.0144134
906.545	0.0143769
906.623	0.0143162
906.701	0.0143240
906.780	0.0143645
906.858	0.0142381
906.936	0.0143748
907.014	0.0143341
907.092	0.0143530
907.170	0.0142518
907.248	0.0141641
907.326	0.0143123
907.405	0.0143276
907.483	0.0143459
907.561	0.0142650
907.639	0.0142522
907.717	0.0142138
907.795	0.0140801
907.873	0.0140390
907.951	0.0140324
908.030	0.0141351
908.108	0.0141289
908.186	0.0141237
908.264	0.0140648
908.342	0.0141456
908.420	0.0141917
908.498	0.0141805
908.576	0.0142323
908.655	0.0142627
908.733	0.0142809
908.811	0.0142867
908.889	0.0144953
908.967	0.0144202
909.045	0.0143890
909.123	0.0144875
909.201	0.0144949
909.280	0.0145335
909.358	0.0145105
909.436	0.0144515
909.514	0.0143892
909.592	0.0143752
909.670	0.0144414
909.748	0.0143502
909.826	0.0143826
909.905	0.0143569
909.983	0.0144121
910.061	0.0143199
910.139	0.0142893
910.217	0.0143337
910.295	0.0142052
910.373	0.0141678
910.451	0.0142050
910.530	0.0139833
910.608	0.0141677
910.686	0.0140958
910.764	0.0142204
910.842	0.0142464
910.920	0.0141855
910.998	0.0141663
911.076	0.0141650
911.155	0.0143023
911.233	0.0141789
911.311	0.0143376
911.389	0.0143326
911.467	0.0143938
911.545	0.0144524
911.623	0.0143510
911.701	0.0145281
911.780	0.0145133
911.858	0.0144678
911.936	0.0144323
912.014	0.0145676
912.092	0.0145024
912.170	0.0144986
912.248	0.0145523
912.326	0.0145058
912.405	0.0145071
912.483	0.0145135
912.561	0.0143785
912.639	0.0144316
912.717	0.0141817
912.795	0.0141830
912.873	0.0141942
912.951	0.0142331
913.030	0.0142364
913.108	0.0142080
913.186	0.0139906
913.264	0.0141672
913.342	0.0141032
913.420	0.0140607
913.498	0.0142545
913.576	0.0141236
913.655	0.0142717
913.733	0.0143119
913.811	0.0142584
913.889	0.0142663
913.967	0.0142184
914.045	0.0142454
914.123	0.0142739
914.201	0.0141961
914.280	0.0143022
914.358	0.0142711
914.436	0.0143445
914.514	0.0143282
914.592	0.0142932
914.670	0.0142312
914.748	0.0143443
914.826	0.0142525
914.905	0.0144822
914.983	0.0144457
915.061	0.0144167
915.139	0.0145893
915.217	0.0144804
915.295	0.0146111
915.373	0.0145415
915.451	0.0144865
915.530	0.0145386
915.608	0.0146656
915.686	0.0144205
915.764	0.0145117
915.842	0.0143180
915.920	0.0144812
915.998	0.0144672
916.076	0.0142691
916.155	0.0142869
916.233	0.0143784
916.311	0.0141153
916.389	0.0141188
916.467	0.0142542
916.545	0.0141576
916.623	0.0140198
916.701	0.0139391
916.780	0.0139924
916.858	0.0139063
916.936	0.0138129
917.014	0.0138023
917.092	0.0138796
917.170	0.0137725
917.248	0.0139297
917.326	0.0138943
917.405	0.0140711
917.483	0.0141143
917.561	0.0139729
917.639	0.0141842
917.717	0.0141065
917.795	0.0143088
917.873	0.0144180
917.951	0.0143036
918.030	0.0143959
918.108	0.0145477
918.186	0.0143882
918.264	0.0145595
918.342	0.0145879
918.420	0.0145890
918.498	0.0145759
918.576	0.0146647
918.655	0.0145965
918.733	0.0144370
918.811	0.0144625
918.889	0.0145180
918.967	0.0143798
919.045	0.0144085
919.123	0.0142879
919.201	0.0143908
919.280	0.0141753
919.358	0.0142503
919.436	0.0141470
919.514	0.0140166
919.592	0.0142635
919.670	0.0142048
919.748	0.0142697
919.826	0.0143353
919.905	0.0142956
919.983	0.0141731
920.061	0.0142110
920.139	0.0142892
920.217	0.0142171
920.295	0.0141920
920.373	0.0143328
920.451	0.0142317
920.530	0.0142533
920.608	0.0142260
920.686	0.0140948
920.764	0.0141434
920.842	0.0141566
920.920	0.0140718
920.998	0.0141523
921.076	0.0142330
921.155	0.0142635
921.233	0.0142135
921.311	0.0142904
921.389	0.0143079
921.467	0.0140681
921.545	0.0143250
921.623	0.0144778
921.701	0.0143286
921.780	0.0144433
921.858	0.0144321
921.936	0.0141594
922.014	0.0143814
922.092	0.0144659
922.170	0.0143272
922.248	0.0142968
922.326	0.0143569
922.405	0.0142521
922.483	0.0142818
922.561	0.0142486
922.639	0.0141148
922.717	0.0139862
922.795	0.0140528
922.873	0.0140946
922.951	0.0141148
923.030	0.0140137
923.108	0.0140196
923.186	0.0138795
923.264	0.0138034
923.342	0.0138139
923.420	0.0141099
923.498	0.0140943
923.576	0.0139339
923.655	0.0140261
923.733	0.0141709
923.811	0.0141902
923.889	0.0142074
923.967	0.0144152
924.045	0.0142206
924.123	0.0144116
924.201	0.0145143
924.280	0.0146280
924.358	0.0147418
924.436	0.0147610
924.514	0.0147411
924.592	0.0146418
924.670	0.0147299
924.748	0.0147786
924.826	0.0146526
924.905	0.0148064
924.983	0.0148697
925.061	0.0146395
925.139	0.0146032
925.217	0.0145016
925.295	0.0145380
925.373	0.0145158
925.451	0.0143449
925.530	0.0141468
925.608	0.0142917
925.686	0.0140457
925.764	0.0139812
925.842	0.0140459
925.920	0.0140121
925.998	0.0140459
926.076	0.0141119
926.155	0.0140479
926.233	0.0141718
926.311	0.0141074
926.389	0.0141449
926.467	0.0141611
926.545	0.0140677
926.623	0.0141731
926.701	0.0143393
926.780	0.0142822
926.858	0.0142617
926.936	0.0142324
927.014	0.0142587
927.092	0.0143488
927.170	0.0143392
927.248	0.0143593
927.326	0.0142599
927.405	0.0143880
927.483	0.0143380
927.561	0.0144533
927.639	0.0143938
927.717	0.0144022
927.795	0.0143417
927.873	0.0145097
927.951	0.0145304
928.030	0.0145167
928.108	0.0145050
928.186	0.0146572
928.264	0.0145763
928.342	0.0145950
928.420	0.0146407
928.498	0.0146297
928.576	0.0145934
928.655	0.0146468
928.733	0.0145297
928.811	0.0145430
928.889	0.0144561
928.967	0.0144863
929.045	0.0142832
929.123	0.0143346
929.201	0.0142372
929.280	0.0141349
929.358	0.0140118
929.436	0.0141539
929.514	0.0141212
929.592	0.0140831
929.670	0.0139803
929.748	0.0139843
929.826	0.0140697
929.905	0.0139764
929.983	0.0139821
930.061	0.0140504
930.139	0.0140329
930.217	0.0142348
930.295	0.0142413
930.373	0.0142425
930.451	0.0143679
930.530	0.0144364
930.608	0.0143486
930.686	0.0144008
930.764	0.0144903
930.842	0.0144977
930.920	0.0145198
930.998	0.0146216
931.076	0.0146159
931.155	0.0143382
931.233	0.0143425
931.311	0.0146357
931.389	0.0145510
931.467	0.0144704
931.545	0.0144437
931.623	0.0143340
931.701	0.0144729
931.780	0.0144400
931.858	0.0144219
931.936	0.0142250
932.014	0.0142823
932.092	0.0142741
932.170	0.0142251
932.248	0.0141088
932.326	0.0141075
932.405	0.0142299
932.483	0.0142549
932.561	0.0140891
932.639	0.0141454
932.717	0.0142190
932.795	0.0143065
932.873	0.0142699
932.951	0.0142458
933.030	0.0141943
933.108	0.0143889
933.186	0.0143004
933.264	0.0142849
933.342	0.0143722
933.420	0.0143106
933.498	0.0144408
933.576	0.0143013
933.655	0.0142931
933.733	0.0144753
933.811	0.0142412
933.889	0.0143169
933.967	0.0143739
934.045	0.0143393
934.123	0.0143320
934.201	0.0144430
934.280	0.0143713
934.358	0.0142406
934.436	0.0144491
934.514	0.0144349
934.592	0.0143807
934.670	0.0145922
934.748	0.0146102
934.826	0.0144087
934.905	0.0143827
934.983	0.0144087
935.061	0.0143824
935.139	0.0143595
935.217	0.0145329
935.295	0.0142895
935.373	0.0144308
935.451	0.0144553
935.530	0.0143279
935.608	0.0142187
935.686	0.0142084
935.764	0.0142950
935.842	0.0141127
935.920	0.0141822
935.998	0.0140618
936.076	0.0140502
936.155	0.0140195
936.233	0.0141554
936.311	0.0143042
936.389	0.0140931
936.467	0.0140562
936.545	0.0141945
936.623	0.0142928
936.701	0.0142573
936.780	0.0142332
936.858	0.0143106
936.936	0.0143482
937.014	0.0143503
937.092	0.0142699
937.170	0.0143562
937.248	0.0145758
937.326	0.0144807
937.405	0.0144950
937.483	0.0142950
937.561	0.0144412
937.639	0.0146555
937.717	0.0143816
937.795	0.0142617
937.873	0.0142607
937.951	0.0144696
938.030	0.0144383
938.108	0.0144223
938.186	0.0145313
938.264	0.0144187
938.342	0.0142736
938.420	0.0142768
938.498	0.0143411
938.576	0.0143671
938.655	0.0142307
938.733	0.0142875
938.811	0.0142168
938.889	0.0141074
938.967	0.0142224
939.045	0.0142105
939.123	0.0141209
939.201	0.0141659
939.280	0.0141737
939.358	0.0141116
939.436	0.0140744
939.514	0.0141328
939.592	0.0140842
939.670	0.0142519
939.748	0.0143468
939.826	0.0141347
939.905	0.0142066
939.983	0.0142938
940.061	0.0143442
940.139	0.0141576
940.217	0.0141910
940.295	0.0142739
940.373	0.0143581
940.451	0.0142609
940.530	0.0142500
940.608	0.0143170
940.686	0.0142504
940.764	0.0142568
940.842	0.0142511
940.920	0.0142459
940.998	0.0142353
941.076	0.0143701
941.155	0.0142873
941.233	0.0144653
941.311	0.0143631
941.389	0.0142807
941.467	0.0144456
941.545	0.0143757
941.623	0.0145288
941.701	0.0145433
941.780	0.0143802
941.858	0.0143759
941.936	0.0144897
942.014	0.0143879
942.092	0.0143693
942.170	0.0143066
942.248	0.0144231
942.326	0.0142770
942.405	0.0142413
942.483	0.0143323
942.561	0.0143106
942.639	0.0143482
942.717	0.0143372
942.795	0.0142406
942.873	0.0141149
942.951	0.0143587
943.030	0.0142303
943.108	0.0144221
943.186	0.0142522
943.264	0.0142274
943.342	0.0143137
943.420	0.0141964
943.498	0.0142047
943.576	0.0142929
943.655	0.0142739
943.733	0.0142459
943.811	0.0143137
943.889	0.0144111
943.967	0.0143546
944.045	0.0142423
944.123	0.0143459
944.201	0.0143018
944.280	0.0142016
944.358	0.0143064
944.436	0.0143320
944.514	0.0142508
944.592	0.0142991
944.670	0.0143036
944.748	0.0143740
944.826	0.0142533
944.905	0.0142115
944.983	0.0142287
945.061	0.0143400
945.139	0.0142066
945.217	0.0142423
945.295	0.0142960
945.373	0.0143810
945.451	0.0141881
945.530	0.0141685
945.608	0.0142584
945.686	0.0140820
945.764	0.0140170
945.842	0.0143590
945.920	0.0143028
945.998	0.0141813
946.076	0.0141786
946.155	0.0143134
946.233	0.0142919
946.311	0.0142779
946.389	0.0142091
946.467	0.0142858
946.545	0.0142209
946.623	0.0143904
946.701	0.0143278
946.780	0.0144703
946.858	0.0144435
946.936	0.0143477
947.014	0.0144630
947.092	0.0143072
947.170	0.0146048
947.248	0.0145139
947.326	0.0145116
947.405	0.0146605
947.483	0.0145986
947.561	0.0147417
947.639	0.0145850
947.717	0.0146004
947.795	0.0146444
947.873	0.0145714
947.951	0.0146255
948.030	0.0145696
948.108	0.0145576
948.186	0.0145084
948.264	0.0145185
948.342	0.0145828
948.420	0.0144536
948.498	0.0144938
948.576	0.0144178
948.655	0.0144956
948.733	0.0144505
948.811	0.0143102
948.889	0.0144189
948.967	0.0144270
949.045	0.0143608
949.123	0.0141958
949.201	0.0142445
949.280	0.0143504
949.358	0.0142569
949.436	0.0142640
949.514	0.0142918
949.592	0.0140661
949.670	0.0141846
949.748	0.0141924
949.826	0.0143237
949.905	0.0141817
949.983	0.0144053
950.061	0.0142052
950.139	0.0143400
950.217	0.0143635
950.295	0.0142162
950.373	0.0141174
950.451	0.0142874
950.530	0.0143755
950.608	0.0143055
950.686	0.0142201
950.764	0.0143115
950.842	0.0141975
950.920	0.0141622
950.998	0.0142179
951.076	0.0143354
951.155	0.0141974
951.233	0.0141359
951.311	0.0142015
951.389	0.0142468
951.467	0.0141476
951.545	0.0143089
951.623	0.0142931
951.701	0.0140998
951.780	0.0142505
951.858	0.0143399
951.936	0.0143193
952.014	0.0143946
952.092	0.0142504
952.170	0.0143163
952.248	0.0144169
952.326	0.0144612
952.405	0.0144746
952.483	0.0145388
952.561	0.0145543
952.639	0.0144317
952.717	0.0144530
952.795	0.0145473
952.873	0.0144266
952.951	0.0143570
953.030	0.0144579
953.108	0.0143900
953.186	0.0146250
953.264	0.0144617
953.342	0.0144210
953.420	0.0145415
953.498	0.0145722
953.576	0.0146810
953.655	0.0145661
953.733	0.0147116
953.811	0.0146523
953.889	0.0146272
953.967	0.0145625
954.045	0.0146309
954.123	0.0147315
954.201	0.0146880
954.280	0.0145345
954.358	0.0145835
954.436	0.0145222
954.514	0.0145676
954.592	0.0144823
954.670	0.0144027
954.748	0.0143417
954.826	0.0142860
954.905	0.0144446
954.983	0.0143379
955.061	0.0142630
955.139	0.0141866
955.217	0.0141062
955.295	0.0141580
955.373	0.0142325
955.451	0.0142128
955.530	0.0140778
955.608	0.0140996
955.686	0.0141580
955.764	0.0142059
955.842	0.0141412
955.920	0.0143017
955.998	0.0141144
956.076	0.0139891
956.155	0.0141018
956.233	0.0140429
956.311	0.0141858
956.389	0.0140576
956.467	0.0141318
956.545	0.0141706
956.623	0.0139494
956.701	0.0139538
956.780	0.0140686
956.858	0.0140658
956.936	0.0139982
957.014	0.0141063
957.092	0.0141545
957.170	0.0141270
957.248	0.0141304
957.326	0.0141663
957.405	0.0141914
957.483	0.0142008
957.561	0.0141100
957.639	0.0142943
957.717	0.0143334
957.795	0.0140936
957.873	0.0144191
957.951	0.0144092
958.030	0.0142712
958.108	0.0143268
958.186	0.0144549
958.264	0.0143999
958.342	0.0142587
958.420	0.0144126
958.498	0.0144541
958.576	0.0144207
958.655	0.0143407
958.733	0.0144797
958.811	0.0144714
958.889	0.0143705
958.967	0.0143198
959.045	0.0142812
959.123	0.0144814
959.201	0.0143169
959.280	0.0144947
959.358	0.0143468
959.436	0.0142896
959.514	0.0144796
959.592	0.0143964
959.670	0.0143720
959.748	0.0143008
959.826	0.0143755
959.905	0.0144169
