05/20/2022	16:23:12	Ver.	4.1	UNKNOWN
Optical Delay	639.982744	Delta X		0.078125	Sweeps	1	Scan Rate	0/0
Coordinates	Axis 1	NaN	Axis 2	NaN	Axis 3	NaN	Axis 4	NaN	Axis 5	NaN	Axis 6	0.000000
TX Power	0.000000	RX Power	0.000000

639.983	0.0146091
640.061	0.0144077
640.139	0.0144722
640.217	0.0145480
640.295	0.0144134
640.373	0.0143592
640.451	0.0146552
640.530	0.0145261
640.608	0.0143373
640.686	0.0144411
640.764	0.0145740
640.842	0.0144749
640.920	0.0144210
640.998	0.0145663
641.076	0.0145593
641.155	0.0144616
641.233	0.0144651
641.311	0.0146312
641.389	0.0144966
641.467	0.0146478
641.545	0.0145818
641.623	0.0145390
641.701	0.0144888
641.780	0.0145157
641.858	0.0145468
641.936	0.0145200
642.014	0.0145080
642.092	0.0145380
642.170	0.0145221
642.248	0.0146414
642.326	0.0146301
642.405	0.0145833
642.483	0.0144946
642.561	0.0144594
642.639	0.0145911
642.717	0.0146343
642.795	0.0144752
642.873	0.0144790
642.951	0.0145151
643.030	0.0145954
643.108	0.0145406
643.186	0.0146019
643.264	0.0145033
643.342	0.0145649
643.420	0.0146704
643.498	0.0145007
643.576	0.0146696
643.655	0.0145940
643.733	0.0146056
643.811	0.0145640
643.889	0.0144962
643.967	0.0144779
644.045	0.0145277
644.123	0.0145383
644.201	0.0145450
644.280	0.0145477
644.358	0.0144858
644.436	0.0145802
644.514	0.0146053
644.592	0.0146281
644.670	0.0144800
644.748	0.0146076
644.826	0.0145446
644.905	0.0144946
644.983	0.0146049
645.061	0.0145123
645.139	0.0144732
645.217	0.0145067
645.295	0.0144094
645.373	0.0144209
645.451	0.0145817
645.530	0.0144852
645.608	0.0145722
645.686	0.0146042
645.764	0.0145567
645.842	0.0144330
645.920	0.0145659
645.998	0.0144417
646.076	0.0144305
646.155	0.0145710
646.233	0.0145798
646.311	0.0145235
646.389	0.0145667
646.467	0.0144756
646.545	0.0145175
646.623	0.0144975
646.701	0.0145347
646.780	0.0144613
646.858	0.0146258
646.936	0.0144884
647.014	0.0144785
647.092	0.0145432
647.170	0.0144776
647.248	0.0144615
647.326	0.0145751
647.405	0.0147884
647.483	0.0144872
647.561	0.0143954
647.639	0.0144505
647.717	0.0146054
647.795	0.0144718
647.873	0.0144102
647.951	0.0144202
648.030	0.0144582
648.108	0.0145657
648.186	0.0145827
648.264	0.0144580
648.342	0.0143684
648.420	0.0143643
648.498	0.0144608
648.576	0.0144604
648.655	0.0144785
648.733	0.0145222
648.811	0.0145496
648.889	0.0144913
648.967	0.0144559
649.045	0.0143810
649.123	0.0144084
649.201	0.0144527
649.280	0.0144904
649.358	0.0145815
649.436	0.0145703
649.514	0.0145399
649.592	0.0143775
649.670	0.0144028
649.748	0.0145156
649.826	0.0146274
649.905	0.0144495
649.983	0.0144433
650.061	0.0145094
650.139	0.0145328
650.217	0.0144177
650.295	0.0144029
650.373	0.0143501
650.451	0.0146046
650.530	0.0143916
650.608	0.0144845
650.686	0.0144778
650.764	0.0144934
650.842	0.0145862
650.920	0.0145678
650.998	0.0145161
651.076	0.0145250
651.155	0.0143684
651.233	0.0144058
651.311	0.0144351
651.389	0.0145115
651.467	0.0145024
651.545	0.0143815
651.623	0.0144133
651.701	0.0144943
651.780	0.0145454
651.858	0.0145692
651.936	0.0144648
652.014	0.0144220
652.092	0.0144569
652.170	0.0143478
652.248	0.0144543
652.326	0.0143760
652.405	0.0144090
652.483	0.0144057
652.561	0.0144250
652.639	0.0143886
652.717	0.0144573
652.795	0.0144270
652.873	0.0142947
652.951	0.0145513
653.030	0.0145865
653.108	0.0143283
653.186	0.0143473
653.264	0.0145517
653.342	0.0144796
653.420	0.0144630
653.498	0.0144651
653.576	0.0144865
653.655	0.0144163
653.733	0.0145050
653.811	0.0145686
653.889	0.0146838
653.967	0.0144823
654.045	0.0144952
654.123	0.0143941
654.201	0.0144403
654.280	0.0144701
654.358	0.0144287
654.436	0.0143864
654.514	0.0145797
654.592	0.0146481
654.670	0.0143468
654.748	0.0143897
654.826	0.0144637
654.905	0.0145341
654.983	0.0144586
655.061	0.0145353
655.139	0.0145409
655.217	0.0144426
655.295	0.0144050
655.373	0.0145903
655.451	0.0144841
655.530	0.0144827
655.608	0.0145067
655.686	0.0145457
655.764	0.0146016
655.842	0.0146102
655.920	0.0145694
655.998	0.0143858
656.076	0.0144035
656.155	0.0146251
656.233	0.0146317
656.311	0.0145266
656.389	0.0146413
656.467	0.0145490
656.545	0.0144810
656.623	0.0146586
656.701	0.0146624
656.780	0.0143375
656.858	0.0144702
656.936	0.0146387
657.014	0.0144744
657.092	0.0145108
657.170	0.0144833
657.248	0.0145190
657.326	0.0143429
657.405	0.0144059
657.483	0.0145240
657.561	0.0145577
657.639	0.0145846
657.717	0.0146113
657.795	0.0146086
657.873	0.0144660
657.951	0.0147082
658.030	0.0145551
658.108	0.0146008
658.186	0.0146364
658.264	0.0146094
658.342	0.0145460
658.420	0.0146015
658.498	0.0146538
658.576	0.0145547
658.655	0.0144843
658.733	0.0144308
658.811	0.0145487
658.889	0.0146767
658.967	0.0145753
659.045	0.0144394
659.123	0.0145140
659.201	0.0145333
659.280	0.0145714
659.358	0.0145811
659.436	0.0145245
659.514	0.0146169
659.592	0.0146097
659.670	0.0145222
659.748	0.0145882
659.826	0.0146106
659.905	0.0145045
659.983	0.0147083
660.061	0.0145421
660.139	0.0145606
660.217	0.0146239
660.295	0.0146120
660.373	0.0146096
660.451	0.0145380
660.530	0.0146618
660.608	0.0147345
660.686	0.0146066
660.764	0.0146288
660.842	0.0146296
660.920	0.0145378
660.998	0.0145883
661.076	0.0145176
661.155	0.0145801
661.233	0.0146806
661.311	0.0146839
661.389	0.0147366
661.467	0.0145570
661.545	0.0145419
661.623	0.0145306
661.701	0.0144941
661.780	0.0145588
661.858	0.0145637
661.936	0.0145044
662.014	0.0145496
662.092	0.0144671
662.170	0.0144517
662.248	0.0146428
662.326	0.0145950
662.405	0.0146528
662.483	0.0145491
662.561	0.0145898
662.639	0.0145985
662.717	0.0145066
662.795	0.0145678
662.873	0.0146287
662.951	0.0146110
663.030	0.0145057
663.108	0.0145704
663.186	0.0146249
663.264	0.0145454
663.342	0.0145731
663.420	0.0146722
663.498	0.0144953
663.576	0.0146104
663.655	0.0145891
663.733	0.0145460
663.811	0.0147226
663.889	0.0146967
663.967	0.0146545
664.045	0.0147240
664.123	0.0147236
664.201	0.0145496
664.280	0.0145487
664.358	0.0146587
664.436	0.0145695
664.514	0.0145822
664.592	0.0144773
664.670	0.0145383
664.748	0.0144886
664.826	0.0144660
664.905	0.0145906
664.983	0.0144899
665.061	0.0146245
665.139	0.0145231
665.217	0.0144390
665.295	0.0145648
665.373	0.0144150
665.451	0.0143291
665.530	0.0145539
665.608	0.0145334
665.686	0.0146574
665.764	0.0145990
665.842	0.0145538
665.920	0.0146873
665.998	0.0146915
666.076	0.0147065
666.155	0.0146952
666.233	0.0145278
666.311	0.0146808
666.389	0.0147784
666.467	0.0146096
666.545	0.0147130
666.623	0.0145016
666.701	0.0145493
666.780	0.0145155
666.858	0.0144328
666.936	0.0144703
667.014	0.0145025
667.092	0.0144618
667.170	0.0145148
667.248	0.0142270
667.326	0.0144231
667.405	0.0146415
667.483	0.0145856
667.561	0.0144953
667.639	0.0145747
667.717	0.0145672
667.795	0.0145019
667.873	0.0146449
667.951	0.0148141
668.030	0.0147579
668.108	0.0147967
668.186	0.0147885
668.264	0.0148231
668.342	0.0147586
668.420	0.0146890
668.498	0.0147272
668.576	0.0147029
668.655	0.0146912
668.733	0.0146929
668.811	0.0145569
668.889	0.0145182
668.967	0.0145508
669.045	0.0143898
669.123	0.0143671
669.201	0.0144829
669.280	0.0144916
669.358	0.0144343
669.436	0.0143224
669.514	0.0143021
669.592	0.0143914
669.670	0.0143785
669.748	0.0143658
669.826	0.0143864
669.905	0.0143726
669.983	0.0145126
670.061	0.0145444
670.139	0.0145664
670.217	0.0145594
670.295	0.0145091
670.373	0.0143607
670.451	0.0144197
670.530	0.0147281
670.608	0.0145341
670.686	0.0145937
670.764	0.0145402
670.842	0.0146461
670.920	0.0145486
670.998	0.0145190
671.076	0.0144221
671.155	0.0143457
671.233	0.0143623
671.311	0.0144729
671.389	0.0144685
671.467	0.0143523
671.545	0.0143955
671.623	0.0143399
671.701	0.0142726
671.780	0.0143382
671.858	0.0144568
671.936	0.0143717
672.014	0.0142593
672.092	0.0144010
672.170	0.0144278
672.248	0.0144241
672.326	0.0145131
672.405	0.0145718
672.483	0.0144644
672.561	0.0144778
672.639	0.0147195
672.717	0.0146522
672.795	0.0145901
672.873	0.0145903
672.951	0.0145046
673.030	0.0144870
673.108	0.0145930
673.186	0.0145208
673.264	0.0145763
673.342	0.0144872
673.420	0.0144328
673.498	0.0143874
673.576	0.0145158
673.655	0.0144129
673.733	0.0144019
673.811	0.0143754
673.889	0.0143266
673.967	0.0144106
674.045	0.0144002
674.123	0.0143820
674.201	0.0145230
674.280	0.0144517
674.358	0.0145726
674.436	0.0145175
674.514	0.0145861
674.592	0.0145571
674.670	0.0147395
674.748	0.0147105
674.826	0.0148753
674.905	0.0148796
674.983	0.0147243
675.061	0.0147810
675.139	0.0148742
675.217	0.0147536
675.295	0.0147223
675.373	0.0147010
675.451	0.0147525
675.530	0.0145403
675.608	0.0143697
675.686	0.0145321
675.764	0.0144923
675.842	0.0144968
675.920	0.0143105
675.998	0.0144054
676.076	0.0143264
676.155	0.0141941
676.233	0.0143408
676.311	0.0143266
676.389	0.0144397
676.467	0.0143572
676.545	0.0144948
676.623	0.0145444
676.701	0.0144623
676.780	0.0146519
676.858	0.0146367
676.936	0.0147754
677.014	0.0148797
677.092	0.0147730
677.170	0.0147996
677.248	0.0144731
677.326	0.0146519
677.405	0.0146865
677.483	0.0147232
677.561	0.0146334
677.639	0.0145174
677.717	0.0145467
677.795	0.0143837
677.873	0.0145248
677.951	0.0146641
678.030	0.0147776
678.108	0.0146838
678.186	0.0146347
678.264	0.0147323
678.342	0.0147419
678.420	0.0146518
678.498	0.0147002
678.576	0.0146932
678.655	0.0146927
678.733	0.0145525
678.811	0.0144164
678.889	0.0143273
678.967	0.0144221
679.045	0.0140822
679.123	0.0140936
679.201	0.0140758
679.280	0.0141259
679.358	0.0142065
679.436	0.0143021
679.514	0.0144266
679.592	0.0144511
679.670	0.0147208
679.748	0.0147688
679.826	0.0149105
679.905	0.0150754
679.983	0.0152586
680.061	0.0151694
680.139	0.0152615
680.217	0.0151728
680.295	0.0152162
680.373	0.0150501
680.451	0.0148921
680.530	0.0147443
680.608	0.0145856
680.686	0.0143066
680.764	0.0141414
680.842	0.0141002
680.920	0.0141140
680.998	0.0139888
681.076	0.0139637
681.155	0.0140513
681.233	0.0141870
681.311	0.0142685
681.389	0.0142081
681.467	0.0142760
681.545	0.0142825
681.623	0.0143591
681.701	0.0144218
681.780	0.0144116
681.858	0.0146214
681.936	0.0144760
682.014	0.0143913
682.092	0.0144094
682.170	0.0143162
682.248	0.0145162
682.326	0.0143499
682.405	0.0145155
682.483	0.0145581
682.561	0.0146214
682.639	0.0147260
682.717	0.0148682
682.795	0.0149947
682.873	0.0150446
682.951	0.0151407
683.030	0.0151417
683.108	0.0150186
683.186	0.0149046
683.264	0.0150789
683.342	0.0149396
683.420	0.0148702
683.498	0.0148640
683.576	0.0147913
683.655	0.0149468
683.733	0.0147925
683.811	0.0146206
683.889	0.0145157
683.967	0.0146349
684.045	0.0146705
684.123	0.0146674
684.201	0.0145783
684.280	0.0145872
684.358	0.0145945
684.436	0.0145428
684.514	0.0144550
684.592	0.0142979
684.670	0.0141657
684.748	0.0140661
684.826	0.0139465
684.905	0.0138728
684.983	0.0136964
685.061	0.0134387
685.139	0.0135505
685.217	0.0134638
685.295	0.0133885
685.373	0.0135860
685.451	0.0135497
685.530	0.0136231
685.608	0.0138028
685.686	0.0140472
685.764	0.0142572
685.842	0.0144142
685.920	0.0146725
685.998	0.0148068
686.076	0.0149313
686.155	0.0151318
686.233	0.0151634
686.311	0.0153141
686.389	0.0153390
686.467	0.0154646
686.545	0.0156734
686.623	0.0157265
686.701	0.0156942
686.780	0.0157227
686.858	0.0159370
686.936	0.0159108
687.014	0.0158033
687.092	0.0156629
687.170	0.0157492
687.248	0.0155842
687.326	0.0154420
687.405	0.0152391
687.483	0.0150673
687.561	0.0146250
687.639	0.0142511
687.717	0.0140661
687.795	0.0139359
687.873	0.0135166
687.951	0.0133744
688.030	0.0132681
688.108	0.0130813
688.186	0.0131902
688.264	0.0130822
688.342	0.0131014
688.420	0.0133745
688.498	0.0131578
688.576	0.0132648
688.655	0.0135393
688.733	0.0134450
688.811	0.0136382
688.889	0.0135912
688.967	0.0138810
689.045	0.0140183
689.123	0.0143718
689.201	0.0145800
689.280	0.0147957
689.358	0.0150838
689.436	0.0152780
689.514	0.0155038
689.592	0.0157684
689.670	0.0159895
689.748	0.0161181
689.826	0.0162608
689.905	0.0162342
689.983	0.0161752
690.061	0.0158369
690.139	0.0156548
690.217	0.0152638
690.295	0.0148683
690.373	0.0147713
690.451	0.0143005
690.530	0.0141395
690.608	0.0140481
690.686	0.0138192
690.764	0.0136457
690.842	0.0138122
690.920	0.0139108
690.998	0.0139066
691.076	0.0140899
691.155	0.0140098
691.233	0.0140163
691.311	0.0141713
691.389	0.0140971
691.467	0.0140997
691.545	0.0139944
691.623	0.0140444
691.701	0.0140057
691.780	0.0138351
691.858	0.0138370
691.936	0.0138893
692.014	0.0140062
692.092	0.0141419
692.170	0.0141901
692.248	0.0143964
692.326	0.0145502
692.405	0.0147488
692.483	0.0150137
692.561	0.0151094
692.639	0.0153579
692.717	0.0154248
692.795	0.0155442
692.873	0.0156905
692.951	0.0158393
693.030	0.0158333
693.108	0.0158590
693.186	0.0157629
693.264	0.0157566
693.342	0.0158276
693.420	0.0156857
693.498	0.0156465
693.576	0.0155083
693.655	0.0153904
693.733	0.0153140
693.811	0.0151175
693.889	0.0147868
693.967	0.0144453
694.045	0.0142770
694.123	0.0140299
694.201	0.0138842
694.280	0.0137051
694.358	0.0134910
694.436	0.0132937
694.514	0.0132537
694.592	0.0131841
694.670	0.0132092
694.748	0.0133957
694.826	0.0133891
694.905	0.0134591
694.983	0.0135680
695.061	0.0135339
695.139	0.0135806
695.217	0.0134834
695.295	0.0133938
695.373	0.0134538
695.451	0.0134415
695.530	0.0134985
695.608	0.0136894
695.686	0.0138489
695.764	0.0139526
695.842	0.0141479
695.920	0.0144853
695.998	0.0147723
696.076	0.0148813
696.155	0.0152865
696.233	0.0155202
696.311	0.0156529
696.389	0.0157189
696.467	0.0159879
696.545	0.0160614
696.623	0.0161454
696.701	0.0159298
696.780	0.0159373
696.858	0.0160240
696.936	0.0157082
697.014	0.0156709
697.092	0.0155735
697.170	0.0155811
697.248	0.0152419
697.326	0.0150958
697.405	0.0151058
697.483	0.0150040
697.561	0.0148725
697.639	0.0148286
697.717	0.0146895
697.795	0.0146298
697.873	0.0144788
697.951	0.0144202
698.030	0.0145396
698.108	0.0144180
698.186	0.0142120
698.264	0.0141247
698.342	0.0138775
698.420	0.0137916
698.498	0.0136391
698.576	0.0135571
698.655	0.0132005
698.733	0.0132033
698.811	0.0131903
698.889	0.0132260
698.967	0.0131580
699.045	0.0134225
699.123	0.0133782
699.201	0.0136086
699.280	0.0137682
699.358	0.0139212
699.436	0.0140362
699.514	0.0141792
699.592	0.0144155
699.670	0.0144196
699.748	0.0143997
699.826	0.0148467
699.905	0.0148103
699.983	0.0148064
700.061	0.0148161
700.139	0.0150174
700.217	0.0150048
700.295	0.0148788
700.373	0.0150138
700.451	0.0150992
700.530	0.0152096
700.608	0.0152751
700.686	0.0153172
700.764	0.0154093
700.842	0.0154544
700.920	0.0156482
700.998	0.0157356
701.076	0.0156835
701.155	0.0158603
701.233	0.0156077
701.311	0.0156142
701.389	0.0156356
701.467	0.0154137
701.545	0.0153870
701.623	0.0150066
701.701	0.0147716
701.780	0.0146648
701.858	0.0144728
701.936	0.0142632
702.014	0.0140974
702.092	0.0138625
702.170	0.0136954
702.248	0.0135216
702.326	0.0134719
702.405	0.0136324
702.483	0.0136078
702.561	0.0135941
702.639	0.0136272
702.717	0.0136995
702.795	0.0136351
702.873	0.0136095
702.951	0.0137861
703.030	0.0138003
703.108	0.0138136
703.186	0.0138485
703.264	0.0137239
703.342	0.0139085
703.420	0.0138317
703.498	0.0138477
703.576	0.0138390
703.655	0.0140230
703.733	0.0141401
703.811	0.0143554
703.889	0.0145131
703.967	0.0145829
704.045	0.0148675
704.123	0.0150396
704.201	0.0153600
704.280	0.0155427
704.358	0.0155030
704.436	0.0155404
704.514	0.0155622
704.592	0.0154488
704.670	0.0153510
704.748	0.0154078
704.826	0.0151200
704.905	0.0150729
704.983	0.0148102
705.061	0.0146729
705.139	0.0147440
705.217	0.0145295
705.295	0.0143488
705.373	0.0145593
705.451	0.0146038
705.530	0.0145743
705.608	0.0148258
705.686	0.0149593
705.764	0.0148993
705.842	0.0150155
705.920	0.0150806
705.998	0.0150730
706.076	0.0150356
706.155	0.0148672
706.233	0.0148411
706.311	0.0148717
706.389	0.0146449
706.467	0.0145264
706.545	0.0145123
706.623	0.0141847
706.701	0.0140045
706.780	0.0140643
706.858	0.0139994
706.936	0.0139109
707.014	0.0136801
707.092	0.0136050
707.170	0.0136647
707.248	0.0135495
707.326	0.0133492
707.405	0.0132238
707.483	0.0131919
707.561	0.0130623
707.639	0.0129480
707.717	0.0131660
707.795	0.0132486
707.873	0.0134676
707.951	0.0135992
708.030	0.0139324
708.108	0.0142906
708.186	0.0147807
708.264	0.0150629
708.342	0.0154967
708.420	0.0158945
708.498	0.0158573
708.576	0.0160002
708.655	0.0159146
708.733	0.0158952
708.811	0.0157331
708.889	0.0153071
708.967	0.0152174
709.045	0.0148855
709.123	0.0144939
709.201	0.0142279
709.280	0.0142007
709.358	0.0140373
709.436	0.0139314
709.514	0.0139171
709.592	0.0140307
709.670	0.0141130
709.748	0.0142608
709.826	0.0142556
709.905	0.0145261
709.983	0.0146677
710.061	0.0145309
710.139	0.0144747
710.217	0.0145715
710.295	0.0144535
710.373	0.0143671
710.451	0.0143122
710.530	0.0141802
710.608	0.0140639
710.686	0.0141373
710.764	0.0141994
710.842	0.0142286
710.920	0.0144330
710.998	0.0144828
711.076	0.0145910
711.155	0.0148183
711.233	0.0148064
711.311	0.0148700
711.389	0.0150065
711.467	0.0150439
711.545	0.0150683
711.623	0.0150050
711.701	0.0151875
711.780	0.0151912
711.858	0.0152760
711.936	0.0153674
712.014	0.0154132
712.092	0.0156486
712.170	0.0156937
712.248	0.0157023
712.326	0.0157632
712.405	0.0158636
712.483	0.0158324
712.561	0.0158179
712.639	0.0157249
712.717	0.0153172
712.795	0.0152462
712.873	0.0152213
712.951	0.0148033
713.030	0.0145291
713.108	0.0143432
713.186	0.0142394
713.264	0.0139397
713.342	0.0137473
713.420	0.0135036
713.498	0.0133736
713.576	0.0135070
713.655	0.0133575
713.733	0.0133357
713.811	0.0133538
713.889	0.0134709
713.967	0.0135676
714.045	0.0136793
714.123	0.0136365
714.201	0.0136941
714.280	0.0138656
714.358	0.0138847
714.436	0.0139520
714.514	0.0139424
714.592	0.0138400
714.670	0.0138414
714.748	0.0138593
714.826	0.0139418
714.905	0.0138319
714.983	0.0138341
715.061	0.0141064
715.139	0.0141951
715.217	0.0142801
715.295	0.0144150
715.373	0.0145126
715.451	0.0145541
715.530	0.0147710
715.608	0.0149766
715.686	0.0149437
715.764	0.0150332
715.842	0.0150201
715.920	0.0150909
715.998	0.0150151
716.076	0.0151749
716.155	0.0152141
716.233	0.0151219
716.311	0.0153741
716.389	0.0153983
716.467	0.0153109
716.545	0.0154511
716.623	0.0154098
716.701	0.0153945
716.780	0.0156429
716.858	0.0154298
716.936	0.0152538
717.014	0.0153308
717.092	0.0152428
717.170	0.0149870
717.248	0.0149654
717.326	0.0151371
717.405	0.0150134
717.483	0.0150354
717.561	0.0151637
717.639	0.0151985
717.717	0.0150261
717.795	0.0151951
717.873	0.0152208
717.951	0.0152504
718.030	0.0151883
718.108	0.0149415
718.186	0.0148009
718.264	0.0147419
718.342	0.0143841
718.420	0.0141650
718.498	0.0140897
718.576	0.0138865
718.655	0.0135968
718.733	0.0134925
718.811	0.0135001
718.889	0.0134733
718.967	0.0133248
719.045	0.0133628
719.123	0.0134502
719.201	0.0134657
719.280	0.0136565
719.358	0.0136983
719.436	0.0139771
719.514	0.0139324
719.592	0.0141320
719.670	0.0141005
719.748	0.0143116
719.826	0.0144914
719.905	0.0146368
719.983	0.0146816
720.061	0.0147288
720.139	0.0147176
720.217	0.0147296
720.295	0.0147167
720.373	0.0144592
720.451	0.0144362
720.530	0.0142994
720.608	0.0142284
720.686	0.0142009
720.764	0.0141698
720.842	0.0142067
720.920	0.0141642
720.998	0.0145869
721.076	0.0146799
721.155	0.0146597
721.233	0.0147937
721.311	0.0150451
721.389	0.0151885
721.467	0.0152629
721.545	0.0151644
721.623	0.0151981
721.701	0.0151232
721.780	0.0152050
721.858	0.0150885
721.936	0.0149603
722.014	0.0149161
722.092	0.0147764
722.170	0.0148473
722.248	0.0147822
722.326	0.0147183
722.405	0.0146563
722.483	0.0148077
722.561	0.0147865
722.639	0.0147016
722.717	0.0147878
722.795	0.0147611
722.873	0.0146262
722.951	0.0146156
723.030	0.0146205
723.108	0.0145419
723.186	0.0142953
723.264	0.0142702
723.342	0.0143729
723.420	0.0143929
723.498	0.0143060
723.576	0.0142973
723.655	0.0144298
723.733	0.0144977
723.811	0.0145773
723.889	0.0146103
723.967	0.0144569
724.045	0.0146307
724.123	0.0145877
724.201	0.0145524
724.280	0.0143751
724.358	0.0142940
724.436	0.0140961
724.514	0.0139030
724.592	0.0137787
724.670	0.0137293
724.748	0.0137031
724.826	0.0137564
724.905	0.0136633
724.983	0.0137334
725.061	0.0137153
725.139	0.0138793
725.217	0.0139781
725.295	0.0140544
725.373	0.0140524
725.451	0.0141536
725.530	0.0143560
725.608	0.0143111
725.686	0.0143505
725.764	0.0143286
725.842	0.0144768
725.920	0.0145747
725.998	0.0144937
726.076	0.0146624
726.155	0.0148663
726.233	0.0147373
726.311	0.0148374
726.389	0.0149609
726.467	0.0150224
726.545	0.0150014
726.623	0.0149789
726.701	0.0149703
726.780	0.0149315
726.858	0.0149125
726.936	0.0148529
727.014	0.0146771
727.092	0.0146437
727.170	0.0145505
727.248	0.0144494
727.326	0.0144262
727.405	0.0144266
727.483	0.0145657
727.561	0.0145171
727.639	0.0145491
727.717	0.0145251
727.795	0.0144476
727.873	0.0145863
727.951	0.0145727
728.030	0.0146014
728.108	0.0145129
728.186	0.0146124
728.264	0.0145090
728.342	0.0145506
728.420	0.0144156
728.498	0.0144441
728.576	0.0145067
728.655	0.0146960
728.733	0.0145448
728.811	0.0147736
728.889	0.0148163
728.967	0.0148274
729.045	0.0148736
729.123	0.0148920
729.201	0.0148167
729.280	0.0148976
729.358	0.0147777
729.436	0.0145651
729.514	0.0143982
729.592	0.0142520
729.670	0.0141187
729.748	0.0140160
729.826	0.0138762
729.905	0.0138728
729.983	0.0138311
730.061	0.0137475
730.139	0.0136703
730.217	0.0137955
730.295	0.0137907
730.373	0.0138077
730.451	0.0138190
730.530	0.0140582
730.608	0.0140177
730.686	0.0141183
730.764	0.0140411
730.842	0.0142982
730.920	0.0144211
730.998	0.0143345
731.076	0.0144104
731.155	0.0145985
731.233	0.0146562
731.311	0.0146762
731.389	0.0145570
731.467	0.0146978
731.545	0.0146889
731.623	0.0145807
731.701	0.0144685
731.780	0.0144508
731.858	0.0142521
731.936	0.0141843
732.014	0.0141145
732.092	0.0141047
732.170	0.0141833
732.248	0.0141084
732.326	0.0139127
732.405	0.0140379
732.483	0.0142455
732.561	0.0142182
732.639	0.0144731
732.717	0.0146011
732.795	0.0146590
732.873	0.0148420
732.951	0.0150097
733.030	0.0151719
733.108	0.0151257
733.186	0.0152221
733.264	0.0152790
733.342	0.0154617
733.420	0.0152543
733.498	0.0152180
733.576	0.0153883
733.655	0.0152710
733.733	0.0150797
733.811	0.0149048
733.889	0.0148625
733.967	0.0150244
734.045	0.0148158
734.123	0.0147303
734.201	0.0147318
734.280	0.0146595
734.358	0.0145673
734.436	0.0145608
734.514	0.0146113
734.592	0.0145993
734.670	0.0146893
734.748	0.0145272
734.826	0.0145773
734.905	0.0147369
734.983	0.0147897
735.061	0.0148357
735.139	0.0148666
735.217	0.0146132
735.295	0.0146824
735.373	0.0144741
735.451	0.0145715
735.530	0.0145193
735.608	0.0143188
735.686	0.0143512
735.764	0.0142499
735.842	0.0142482
735.920	0.0140314
735.998	0.0140273
736.076	0.0141048
736.155	0.0139108
736.233	0.0140164
736.311	0.0140549
736.389	0.0139797
736.467	0.0140385
736.545	0.0141054
736.623	0.0141308
736.701	0.0139983
736.780	0.0140442
736.858	0.0141975
736.936	0.0141821
737.014	0.0142046
737.092	0.0142809
737.170	0.0141445
737.248	0.0140833
737.326	0.0141591
737.405	0.0141764
737.483	0.0141182
737.561	0.0141987
737.639	0.0139276
737.717	0.0141541
737.795	0.0140620
737.873	0.0141537
737.951	0.0142252
738.030	0.0143729
738.108	0.0143946
738.186	0.0144242
738.264	0.0144540
738.342	0.0145335
738.420	0.0146368
738.498	0.0147226
738.576	0.0147758
738.655	0.0147672
738.733	0.0147970
738.811	0.0148148
738.889	0.0148109
738.967	0.0149315
739.045	0.0147706
739.123	0.0148977
739.201	0.0149827
739.280	0.0147781
739.358	0.0148592
739.436	0.0148340
739.514	0.0149860
739.592	0.0149298
739.670	0.0148987
739.748	0.0149018
739.826	0.0149136
739.905	0.0149491
739.983	0.0148703
740.061	0.0147941
740.139	0.0149112
740.217	0.0149195
740.295	0.0149117
740.373	0.0149773
740.451	0.0149522
740.530	0.0150842
740.608	0.0152975
740.686	0.0153120
740.764	0.0154240
740.842	0.0153538
740.920	0.0156660
740.998	0.0156277
741.076	0.0155821
741.155	0.0155407
741.233	0.0155816
741.311	0.0152967
741.389	0.0152434
741.467	0.0151882
741.545	0.0151985
741.623	0.0150750
741.701	0.0146273
741.780	0.0144734
741.858	0.0145222
741.936	0.0141679
742.014	0.0140734
742.092	0.0141087
742.170	0.0139928
742.248	0.0139043
742.326	0.0138443
742.405	0.0138380
742.483	0.0138567
742.561	0.0138607
742.639	0.0138209
742.717	0.0138129
742.795	0.0138255
742.873	0.0138930
742.951	0.0138647
743.030	0.0140042
743.108	0.0140726
743.186	0.0139998
743.264	0.0139558
743.342	0.0141515
743.420	0.0139867
743.498	0.0141373
743.576	0.0140850
743.655	0.0141907
743.733	0.0142058
743.811	0.0144223
743.889	0.0144861
743.967	0.0144357
744.045	0.0144102
744.123	0.0143831
744.201	0.0144598
744.280	0.0144429
744.358	0.0145445
744.436	0.0144514
744.514	0.0146072
744.592	0.0145158
744.670	0.0145642
744.748	0.0145749
744.826	0.0146602
744.905	0.0146209
744.983	0.0147856
745.061	0.0147246
745.139	0.0148512
745.217	0.0148363
745.295	0.0147087
745.373	0.0147149
745.451	0.0148215
745.530	0.0147626
745.608	0.0147588
745.686	0.0144752
745.764	0.0144831
745.842	0.0146645
745.920	0.0146158
745.998	0.0142722
746.076	0.0145430
746.155	0.0144512
746.233	0.0144368
746.311	0.0144206
746.389	0.0143484
746.467	0.0145193
746.545	0.0144675
746.623	0.0144006
746.701	0.0146323
746.780	0.0145192
746.858	0.0146565
746.936	0.0147905
747.014	0.0146444
747.092	0.0148479
747.170	0.0148861
747.248	0.0149019
747.326	0.0148757
747.405	0.0151653
747.483	0.0150603
747.561	0.0149493
747.639	0.0151179
747.717	0.0149819
747.795	0.0149609
747.873	0.0148549
747.951	0.0148995
748.030	0.0146883
748.108	0.0146358
748.186	0.0145365
748.264	0.0144156
748.342	0.0145244
748.420	0.0144338
748.498	0.0145810
748.576	0.0144805
748.655	0.0146519
748.733	0.0146022
748.811	0.0145773
748.889	0.0147327
748.967	0.0147536
749.045	0.0147473
749.123	0.0148896
749.201	0.0148097
749.280	0.0148091
749.358	0.0148537
749.436	0.0148387
749.514	0.0146404
749.592	0.0145795
749.670	0.0147201
749.748	0.0145598
749.826	0.0142040
749.905	0.0140856
749.983	0.0141311
750.061	0.0142199
750.139	0.0140349
750.217	0.0138737
750.295	0.0138446
750.373	0.0137443
750.451	0.0138133
750.530	0.0138957
750.608	0.0137424
750.686	0.0136047
750.764	0.0136267
750.842	0.0136222
750.920	0.0136431
750.998	0.0137252
751.076	0.0137193
751.155	0.0137655
751.233	0.0138265
751.311	0.0138012
751.389	0.0139964
751.467	0.0139366
751.545	0.0138166
751.623	0.0138512
751.701	0.0139769
751.780	0.0140646
751.858	0.0141831
751.936	0.0141372
752.014	0.0143587
752.092	0.0143217
752.170	0.0142876
752.248	0.0144099
752.326	0.0144778
752.405	0.0147006
752.483	0.0148053
752.561	0.0149088
752.639	0.0148788
752.717	0.0150150
752.795	0.0149771
752.873	0.0151551
752.951	0.0151845
753.030	0.0151435
753.108	0.0152477
753.186	0.0151105
753.264	0.0150868
753.342	0.0151117
753.420	0.0151515
753.498	0.0150605
753.576	0.0149181
753.655	0.0148447
753.733	0.0148483
753.811	0.0146421
753.889	0.0147238
753.967	0.0146741
754.045	0.0146370
754.123	0.0145287
754.201	0.0145541
754.280	0.0144720
754.358	0.0145934
754.436	0.0146118
754.514	0.0145747
754.592	0.0145819
754.670	0.0145518
754.748	0.0146853
754.826	0.0147124
754.905	0.0148888
754.983	0.0147507
755.061	0.0148492
755.139	0.0149091
755.217	0.0148629
755.295	0.0148871
755.373	0.0148222
755.451	0.0148383
755.530	0.0148013
755.608	0.0147411
755.686	0.0145718
755.764	0.0144521
755.842	0.0144383
755.920	0.0143325
755.998	0.0141518
756.076	0.0142527
756.155	0.0141779
756.233	0.0140022
756.311	0.0141539
756.389	0.0140941
756.467	0.0140807
756.545	0.0141608
756.623	0.0141205
756.701	0.0141797
756.780	0.0143308
756.858	0.0143096
756.936	0.0143782
757.014	0.0144908
757.092	0.0145522
757.170	0.0146127
757.248	0.0145259
757.326	0.0147009
757.405	0.0147650
757.483	0.0147587
757.561	0.0149390
757.639	0.0147675
757.717	0.0146320
757.795	0.0147529
757.873	0.0146806
757.951	0.0146104
758.030	0.0145190
758.108	0.0143305
758.186	0.0142255
758.264	0.0140796
758.342	0.0140671
758.420	0.0141709
758.498	0.0140495
758.576	0.0140417
758.655	0.0141782
758.733	0.0141036
758.811	0.0141708
758.889	0.0142982
758.967	0.0143578
759.045	0.0143648
759.123	0.0143361
759.201	0.0146119
759.280	0.0147070
759.358	0.0145425
759.436	0.0146466
759.514	0.0146664
759.592	0.0146835
759.670	0.0148308
759.748	0.0146915
759.826	0.0146575
759.905	0.0146455
759.983	0.0146372
760.061	0.0146796
760.139	0.0144878
760.217	0.0146375
760.295	0.0145435
760.373	0.0145311
760.451	0.0146688
760.530	0.0146469
760.608	0.0146180
760.686	0.0147594
760.764	0.0147475
760.842	0.0148563
760.920	0.0148461
760.998	0.0146359
761.076	0.0147887
761.155	0.0148345
761.233	0.0147347
761.311	0.0147531
761.389	0.0146671
761.467	0.0146615
761.545	0.0146126
761.623	0.0144534
761.701	0.0144077
761.780	0.0143574
761.858	0.0144271
761.936	0.0145325
762.014	0.0145022
762.092	0.0145092
762.170	0.0144756
762.248	0.0146338
762.326	0.0146229
762.405	0.0145406
762.483	0.0146425
762.561	0.0147820
762.639	0.0147258
762.717	0.0148354
762.795	0.0148086
762.873	0.0148204
762.951	0.0149039
763.030	0.0149755
763.108	0.0149449
763.186	0.0149564
763.264	0.0148205
763.342	0.0148468
763.420	0.0148247
763.498	0.0147862
763.576	0.0147233
763.655	0.0146740
763.733	0.0145313
763.811	0.0145277
763.889	0.0144794
763.967	0.0142817
764.045	0.0142482
764.123	0.0143512
764.201	0.0144573
764.280	0.0142052
764.358	0.0142499
764.436	0.0143132
764.514	0.0143772
764.592	0.0143817
764.670	0.0143650
764.748	0.0144418
764.826	0.0144104
764.905	0.0144569
764.983	0.0144913
765.061	0.0145215
765.139	0.0146363
765.217	0.0146410
765.295	0.0146457
765.373	0.0147881
765.451	0.0149355
765.530	0.0147521
765.608	0.0147797
765.686	0.0147060
765.764	0.0148126
765.842	0.0147078
765.920	0.0147190
765.998	0.0147207
766.076	0.0144015
766.155	0.0144086
766.233	0.0143868
766.311	0.0141032
766.389	0.0140766
766.467	0.0138283
766.545	0.0138364
766.623	0.0137553
766.701	0.0137848
766.780	0.0137445
766.858	0.0138209
766.936	0.0139433
767.014	0.0141277
767.092	0.0140376
767.170	0.0142195
767.248	0.0142975
767.326	0.0144502
767.405	0.0146820
767.483	0.0145398
767.561	0.0145490
767.639	0.0147498
767.717	0.0147645
767.795	0.0147815
767.873	0.0147784
767.951	0.0148100
768.030	0.0146418
768.108	0.0147031
768.186	0.0146291
768.264	0.0146537
768.342	0.0145930
768.420	0.0146062
768.498	0.0146027
768.576	0.0144978
768.655	0.0145955
768.733	0.0148246
768.811	0.0147418
768.889	0.0146091
768.967	0.0146149
769.045	0.0149005
769.123	0.0149395
769.201	0.0147637
769.280	0.0147243
769.358	0.0146030
769.436	0.0146554
769.514	0.0146687
769.592	0.0146269
769.670	0.0144697
769.748	0.0144473
769.826	0.0145479
769.905	0.0144993
769.983	0.0145186
770.061	0.0146353
770.139	0.0144057
770.217	0.0145151
770.295	0.0144681
770.373	0.0144927
770.451	0.0144984
770.530	0.0144769
770.608	0.0144686
770.686	0.0144323
770.764	0.0145057
770.842	0.0145345
770.920	0.0144733
770.998	0.0146090
771.076	0.0144712
771.155	0.0145590
771.233	0.0145498
771.311	0.0144202
771.389	0.0145324
771.467	0.0144164
771.545	0.0145250
771.623	0.0146213
771.701	0.0146223
771.780	0.0145773
771.858	0.0146195
771.936	0.0145525
772.014	0.0145715
772.092	0.0145074
772.170	0.0145901
772.248	0.0145002
772.326	0.0145020
772.405	0.0143658
772.483	0.0144244
772.561	0.0145131
772.639	0.0144899
772.717	0.0144408
772.795	0.0143016
772.873	0.0144745
772.951	0.0144327
773.030	0.0143211
773.108	0.0143834
773.186	0.0144500
773.264	0.0144848
773.342	0.0143185
773.420	0.0144419
773.498	0.0144460
773.576	0.0144663
773.655	0.0145865
773.733	0.0145656
773.811	0.0144568
773.889	0.0144643
773.967	0.0145766
774.045	0.0146514
774.123	0.0144128
774.201	0.0142825
774.280	0.0143760
774.358	0.0143190
774.436	0.0140710
774.514	0.0140560
774.592	0.0141396
774.670	0.0141396
774.748	0.0140301
774.826	0.0140977
774.905	0.0140990
774.983	0.0140602
775.061	0.0142490
775.139	0.0144249
775.217	0.0143446
775.295	0.0145427
775.373	0.0146361
775.451	0.0147376
775.530	0.0146786
775.608	0.0148188
775.686	0.0147539
775.764	0.0150373
775.842	0.0150608
775.920	0.0150466
775.998	0.0149965
776.076	0.0151069
776.155	0.0150005
776.233	0.0149494
776.311	0.0149211
776.389	0.0149340
776.467	0.0148763
776.545	0.0147468
776.623	0.0147380
776.701	0.0148628
776.780	0.0146536
776.858	0.0146582
776.936	0.0147073
777.014	0.0146983
777.092	0.0147966
777.170	0.0147450
777.248	0.0148272
777.326	0.0148759
777.405	0.0147797
777.483	0.0149368
777.561	0.0147437
777.639	0.0146521
777.717	0.0145964
777.795	0.0145937
777.873	0.0147644
777.951	0.0147061
778.030	0.0146088
778.108	0.0145724
778.186	0.0145236
778.264	0.0143998
778.342	0.0145823
778.420	0.0144506
778.498	0.0145077
778.576	0.0144776
778.655	0.0142787
778.733	0.0143956
778.811	0.0143526
778.889	0.0142374
778.967	0.0143391
779.045	0.0144968
779.123	0.0144878
779.201	0.0144904
779.280	0.0145397
779.358	0.0146692
779.436	0.0145577
779.514	0.0144672
779.592	0.0146181
779.670	0.0147334
779.748	0.0146801
779.826	0.0147461
779.905	0.0147124
779.983	0.0147213
780.061	0.0147559
780.139	0.0148418
780.217	0.0147740
780.295	0.0148784
780.373	0.0147204
780.451	0.0147119
780.530	0.0147015
780.608	0.0146851
780.686	0.0146361
780.764	0.0145115
780.842	0.0146445
780.920	0.0144886
780.998	0.0145231
781.076	0.0145591
781.155	0.0144196
781.233	0.0144196
781.311	0.0144221
781.389	0.0142459
781.467	0.0143621
781.545	0.0143047
781.623	0.0143494
781.701	0.0143780
781.780	0.0142908
781.858	0.0143047
781.936	0.0142851
782.014	0.0144287
782.092	0.0143508
782.170	0.0143388
782.248	0.0144154
782.326	0.0145274
782.405	0.0145023
782.483	0.0144489
782.561	0.0144218
782.639	0.0144419
782.717	0.0144469
782.795	0.0144569
782.873	0.0145367
782.951	0.0144855
783.030	0.0144691
783.108	0.0144549
783.186	0.0146222
783.264	0.0146164
783.342	0.0146706
783.420	0.0147650
783.498	0.0147167
783.576	0.0146454
783.655	0.0146603
783.733	0.0148854
783.811	0.0147686
783.889	0.0148985
783.967	0.0147581
784.045	0.0147147
784.123	0.0147169
784.201	0.0145628
784.280	0.0145784
784.358	0.0145834
784.436	0.0145768
784.514	0.0144917
784.592	0.0144766
784.670	0.0144892
784.748	0.0145277
784.826	0.0142664
784.905	0.0142856
784.983	0.0143584
785.061	0.0143835
785.139	0.0143601
785.217	0.0144837
785.295	0.0145780
785.373	0.0146201
785.451	0.0146201
785.530	0.0145953
785.608	0.0144613
785.686	0.0146210
785.764	0.0145068
785.842	0.0146808
785.920	0.0146307
785.998	0.0146112
786.076	0.0145131
786.155	0.0146758
786.233	0.0144522
786.311	0.0145231
786.389	0.0145459
786.467	0.0143922
786.545	0.0143724
786.623	0.0143132
786.701	0.0143539
786.780	0.0143272
786.858	0.0142696
786.936	0.0143344
787.014	0.0142913
787.092	0.0143964
787.170	0.0142328
787.248	0.0143267
787.326	0.0144025
787.405	0.0143433
787.483	0.0144537
787.561	0.0143837
787.639	0.0143732
787.717	0.0144475
787.795	0.0146120
787.873	0.0145380
787.951	0.0145114
788.030	0.0145058
788.108	0.0144819
788.186	0.0145963
788.264	0.0145042
788.342	0.0146271
788.420	0.0146068
788.498	0.0145675
788.576	0.0145608
788.655	0.0146381
788.733	0.0144463
788.811	0.0146290
788.889	0.0145428
788.967	0.0146103
789.045	0.0145034
789.123	0.0144721
789.201	0.0143818
789.280	0.0144493
789.358	0.0143162
789.436	0.0144175
789.514	0.0143996
789.592	0.0142492
789.670	0.0142961
789.748	0.0143925
789.826	0.0144808
789.905	0.0144390
789.983	0.0143681
790.061	0.0143868
790.139	0.0143761
790.217	0.0144002
790.295	0.0145368
790.373	0.0145641
790.451	0.0145383
790.530	0.0146342
790.608	0.0145212
790.686	0.0145445
790.764	0.0145367
790.842	0.0145805
790.920	0.0145210
790.998	0.0146147
791.076	0.0144984
791.155	0.0146103
791.233	0.0144662
791.311	0.0145427
791.389	0.0143919
791.467	0.0143325
791.545	0.0142577
791.623	0.0143507
791.701	0.0143136
791.780	0.0144038
791.858	0.0144994
791.936	0.0144446
792.014	0.0143405
792.092	0.0145422
792.170	0.0145661
792.248	0.0144759
792.326	0.0145990
792.405	0.0146030
792.483	0.0145653
792.561	0.0146080
792.639	0.0145293
792.717	0.0146691
792.795	0.0147230
792.873	0.0146866
792.951	0.0145913
793.030	0.0144550
793.108	0.0147454
793.186	0.0145958
793.264	0.0145871
793.342	0.0146166
793.420	0.0145684
793.498	0.0144791
793.576	0.0146091
793.655	0.0146410
793.733	0.0145768
793.811	0.0147237
793.889	0.0146610
793.967	0.0146340
794.045	0.0147607
794.123	0.0146436
794.201	0.0145854
794.280	0.0146175
794.358	0.0145655
794.436	0.0145576
794.514	0.0146427
794.592	0.0144884
794.670	0.0145507
794.748	0.0144383
794.826	0.0142625
794.905	0.0143259
794.983	0.0142081
795.061	0.0142472
795.139	0.0142989
795.217	0.0140723
795.295	0.0140647
795.373	0.0142377
795.451	0.0142231
795.530	0.0143085
795.608	0.0142990
795.686	0.0143932
795.764	0.0144034
795.842	0.0145953
795.920	0.0145869
795.998	0.0146658
796.076	0.0145812
796.155	0.0147960
796.233	0.0147613
796.311	0.0148061
796.389	0.0148676
796.467	0.0147718
796.545	0.0147688
796.623	0.0147347
796.701	0.0148652
796.780	0.0149769
796.858	0.0148931
796.936	0.0148116
797.014	0.0149142
797.092	0.0149215
797.170	0.0147777
797.248	0.0147405
797.326	0.0147468
797.405	0.0146033
797.483	0.0147648
797.561	0.0146677
797.639	0.0145795
797.717	0.0144795
797.795	0.0144746
797.873	0.0143797
797.951	0.0144550
798.030	0.0144003
798.108	0.0141508
798.186	0.0142795
798.264	0.0142657
798.342	0.0143287
798.420	0.0144328
798.498	0.0142289
798.576	0.0142442
798.655	0.0144935
798.733	0.0145340
798.811	0.0145718
798.889	0.0147093
798.967	0.0146980
799.045	0.0147448
799.123	0.0148437
799.201	0.0148065
799.280	0.0148290
799.358	0.0148888
799.436	0.0146384
799.514	0.0147426
799.592	0.0146585
799.670	0.0146455
799.748	0.0146359
799.826	0.0144505
799.905	0.0143333
799.983	0.0143015
800.061	0.0143886
800.139	0.0144352
800.217	0.0144565
800.295	0.0143996
800.373	0.0145174
800.451	0.0144567
800.530	0.0144293
800.608	0.0144812
800.686	0.0145819
800.764	0.0147019
800.842	0.0146291
800.920	0.0146738
800.998	0.0145804
801.076	0.0146270
801.155	0.0148060
801.233	0.0147890
801.311	0.0145885
801.389	0.0146307
801.467	0.0145509
801.545	0.0145361
801.623	0.0145853
801.701	0.0144784
801.780	0.0144649
801.858	0.0145563
801.936	0.0146914
802.014	0.0145977
802.092	0.0145778
802.170	0.0147482
802.248	0.0147107
802.326	0.0149937
802.405	0.0146894
802.483	0.0148238
802.561	0.0147516
802.639	0.0147599
802.717	0.0146049
802.795	0.0148532
802.873	0.0146466
802.951	0.0145551
803.030	0.0146005
803.108	0.0145806
803.186	0.0144450
803.264	0.0144002
803.342	0.0142989
803.420	0.0142563
803.498	0.0143247
803.576	0.0141842
803.655	0.0143819
803.733	0.0143624
803.811	0.0143167
803.889	0.0141549
803.967	0.0142510
804.045	0.0143282
804.123	0.0144310
804.201	0.0145079
804.280	0.0144905
804.358	0.0145267
804.436	0.0144430
804.514	0.0145011
804.592	0.0146005
804.670	0.0145824
804.748	0.0144526
804.826	0.0146495
804.905	0.0146568
804.983	0.0145926
805.061	0.0145937
805.139	0.0147520
805.217	0.0144852
805.295	0.0145965
805.373	0.0146178
805.451	0.0145108
805.530	0.0145130
805.608	0.0143118
805.686	0.0144328
805.764	0.0144329
805.842	0.0142844
805.920	0.0142289
805.998	0.0141832
806.076	0.0141798
806.155	0.0141593
806.233	0.0141641
806.311	0.0141086
806.389	0.0142018
806.467	0.0142503
806.545	0.0143552
806.623	0.0143063
806.701	0.0141109
806.780	0.0143517
806.858	0.0145138
806.936	0.0145523
807.014	0.0145425
807.092	0.0147076
807.170	0.0146227
807.248	0.0148225
807.326	0.0148817
807.405	0.0148544
807.483	0.0148850
807.561	0.0148177
807.639	0.0146964
807.717	0.0145958
807.795	0.0148034
807.873	0.0148000
807.951	0.0146808
808.030	0.0144930
808.108	0.0145570
808.186	0.0145770
808.264	0.0145621
808.342	0.0144407
808.420	0.0144792
808.498	0.0144581
808.576	0.0145198
808.655	0.0144617
808.733	0.0146449
808.811	0.0148357
808.889	0.0145135
808.967	0.0146103
809.045	0.0146649
809.123	0.0146340
809.201	0.0146562
809.280	0.0146650
809.358	0.0147446
809.436	0.0147088
809.514	0.0146825
809.592	0.0144903
809.670	0.0145576
809.748	0.0144298
809.826	0.0146059
809.905	0.0145376
809.983	0.0144577
810.061	0.0144966
810.139	0.0143092
810.217	0.0145515
810.295	0.0145159
810.373	0.0143315
810.451	0.0145513
810.530	0.0147536
810.608	0.0145850
810.686	0.0145496
810.764	0.0146180
810.842	0.0146259
810.920	0.0147494
810.998	0.0146111
811.076	0.0146351
811.155	0.0146845
811.233	0.0147257
811.311	0.0146029
811.389	0.0144477
811.467	0.0145639
811.545	0.0145200
811.623	0.0147026
811.701	0.0146132
811.780	0.0145226
811.858	0.0144801
811.936	0.0143259
812.014	0.0145163
812.092	0.0144628
812.170	0.0144548
812.248	0.0145403
812.326	0.0144908
812.405	0.0145631
812.483	0.0145248
812.561	0.0145782
812.639	0.0145839
812.717	0.0147606
812.795	0.0146651
812.873	0.0145625
812.951	0.0145920
813.030	0.0146549
813.108	0.0146912
813.186	0.0147292
813.264	0.0148483
813.342	0.0146644
813.420	0.0146523
813.498	0.0146546
813.576	0.0146844
813.655	0.0145751
813.733	0.0145906
813.811	0.0145092
813.889	0.0144160
813.967	0.0143515
814.045	0.0143992
814.123	0.0143472
814.201	0.0143354
814.280	0.0144221
814.358	0.0142233
814.436	0.0142404
814.514	0.0143820
814.592	0.0142420
814.670	0.0142802
814.748	0.0141359
814.826	0.0141967
814.905	0.0143896
814.983	0.0143060
815.061	0.0141261
815.139	0.0142662
815.217	0.0144654
815.295	0.0144134
815.373	0.0144021
815.451	0.0144355
815.530	0.0144565
815.608	0.0145525
815.686	0.0146270
815.764	0.0145376
815.842	0.0146261
815.920	0.0146117
815.998	0.0147131
816.076	0.0145749
816.155	0.0145010
816.233	0.0143121
816.311	0.0143342
816.389	0.0144515
816.467	0.0143375
816.545	0.0144296
816.623	0.0143468
816.701	0.0144554
816.780	0.0144228
816.858	0.0144177
816.936	0.0143343
817.014	0.0142860
817.092	0.0143707
817.170	0.0144039
817.248	0.0143897
817.326	0.0143929
817.405	0.0145716
817.483	0.0144012
817.561	0.0146062
817.639	0.0146506
817.717	0.0148076
817.795	0.0147757
817.873	0.0147182
817.951	0.0147607
818.030	0.0146793
818.108	0.0147629
818.186	0.0148158
818.264	0.0147198
818.342	0.0147689
818.420	0.0146326
818.498	0.0146468
818.576	0.0145949
818.655	0.0145484
818.733	0.0146375
818.811	0.0147443
818.889	0.0146107
818.967	0.0144922
819.045	0.0147226
819.123	0.0147372
819.201	0.0147211
819.280	0.0147299
819.358	0.0146946
819.436	0.0146674
819.514	0.0147176
819.592	0.0145526
819.670	0.0146569
819.748	0.0146607
819.826	0.0144706
819.905	0.0143615
819.983	0.0145214
820.061	0.0144234
820.139	0.0143946
820.217	0.0143488
820.295	0.0141228
820.373	0.0142757
820.451	0.0141868
820.530	0.0141868
820.608	0.0140578
820.686	0.0143492
820.764	0.0142715
820.842	0.0143137
820.920	0.0142744
820.998	0.0143202
821.076	0.0143542
821.155	0.0143245
821.233	0.0143134
821.311	0.0144344
821.389	0.0143227
821.467	0.0143586
821.545	0.0143885
821.623	0.0145677
821.701	0.0144844
821.780	0.0144444
821.858	0.0145942
821.936	0.0143521
822.014	0.0143285
822.092	0.0143803
822.170	0.0145578
822.248	0.0143690
822.326	0.0144647
822.405	0.0143382
822.483	0.0145171
822.561	0.0144821
822.639	0.0143658
822.717	0.0145335
822.795	0.0144392
822.873	0.0144455
822.951	0.0144318
823.030	0.0145058
823.108	0.0146284
823.186	0.0145990
823.264	0.0145997
823.342	0.0145639
823.420	0.0146151
823.498	0.0144616
823.576	0.0147372
823.655	0.0145757
823.733	0.0146143
823.811	0.0148758
823.889	0.0148115
823.967	0.0147582
824.045	0.0147374
824.123	0.0147285
824.201	0.0147912
824.280	0.0148106
824.358	0.0147229
824.436	0.0147852
824.514	0.0147527
824.592	0.0145708
824.670	0.0145059
824.748	0.0146271
824.826	0.0144515
824.905	0.0144160
824.983	0.0145625
825.061	0.0143986
825.139	0.0144974
825.217	0.0144161
825.295	0.0142552
825.373	0.0143257
825.451	0.0143678
825.530	0.0142661
825.608	0.0143576
825.686	0.0143827
825.764	0.0143930
825.842	0.0144806
825.920	0.0145659
825.998	0.0143824
826.076	0.0145509
826.155	0.0146534
826.233	0.0145365
826.311	0.0145606
826.389	0.0146418
826.467	0.0145679
826.545	0.0144806
826.623	0.0144850
826.701	0.0143652
826.780	0.0144649
826.858	0.0143836
826.936	0.0144302
827.014	0.0144714
827.092	0.0144464
827.170	0.0143706
827.248	0.0144066
827.326	0.0145092
827.405	0.0144854
827.483	0.0144046
827.561	0.0144201
827.639	0.0144214
827.717	0.0145630
827.795	0.0143173
827.873	0.0144586
827.951	0.0145336
828.030	0.0144328
828.108	0.0145422
828.186	0.0143612
828.264	0.0142754
828.342	0.0142448
828.420	0.0142323
828.498	0.0142543
828.576	0.0143744
828.655	0.0142979
828.733	0.0143494
828.811	0.0143189
828.889	0.0143970
828.967	0.0143682
829.045	0.0142410
829.123	0.0143793
829.201	0.0144421
829.280	0.0144282
829.358	0.0144942
829.436	0.0145461
829.514	0.0144877
829.592	0.0144987
829.670	0.0144537
829.748	0.0145979
829.826	0.0146163
829.905	0.0145138
829.983	0.0146458
830.061	0.0144244
830.139	0.0144592
830.217	0.0146932
830.295	0.0147743
830.373	0.0146298
830.451	0.0145885
830.530	0.0145130
830.608	0.0146284
830.686	0.0146706
830.764	0.0145935
830.842	0.0144527
830.920	0.0145842
830.998	0.0146192
831.076	0.0146188
831.155	0.0145345
831.233	0.0145724
831.311	0.0147005
831.389	0.0146305
831.467	0.0144514
831.545	0.0143259
831.623	0.0143804
831.701	0.0145621
831.780	0.0145338
831.858	0.0143685
831.936	0.0143510
832.014	0.0145695
832.092	0.0144701
832.170	0.0146405
832.248	0.0146391
832.326	0.0147146
832.405	0.0146396
832.483	0.0145528
832.561	0.0147271
832.639	0.0147974
832.717	0.0147807
832.795	0.0146542
832.873	0.0147449
832.951	0.0147237
833.030	0.0145848
833.108	0.0147169
833.186	0.0146280
833.264	0.0145656
833.342	0.0146245
833.420	0.0145501
833.498	0.0144957
833.576	0.0144801
833.655	0.0143925
833.733	0.0143583
833.811	0.0144088
833.889	0.0144267
833.967	0.0144189
834.045	0.0144775
834.123	0.0145462
834.201	0.0145683
834.280	0.0144984
834.358	0.0146480
834.436	0.0146365
834.514	0.0146399
834.592	0.0146267
834.670	0.0146838
834.748	0.0146850
834.826	0.0147092
834.905	0.0147340
834.983	0.0146508
835.061	0.0146596
835.139	0.0146232
835.217	0.0147060
835.295	0.0145347
835.373	0.0145652
835.451	0.0145349
835.530	0.0144923
835.608	0.0145370
835.686	0.0144450
835.764	0.0144498
835.842	0.0144616
835.920	0.0144473
835.998	0.0144277
836.076	0.0145154
836.155	0.0145183
836.233	0.0145513
836.311	0.0144786
836.389	0.0145161
836.467	0.0144647
836.545	0.0144151
836.623	0.0144210
836.701	0.0144090
836.780	0.0144366
836.858	0.0144669
836.936	0.0144608
837.014	0.0144753
837.092	0.0143939
837.170	0.0143156
837.248	0.0143542
837.326	0.0142910
837.405	0.0143208
837.483	0.0143541
837.561	0.0143572
837.639	0.0142695
837.717	0.0145208
837.795	0.0144547
837.873	0.0145380
837.951	0.0145782
838.030	0.0145181
838.108	0.0144312
838.186	0.0145980
838.264	0.0145259
838.342	0.0145519
838.420	0.0145566
838.498	0.0145264
838.576	0.0145751
838.655	0.0146291
838.733	0.0146644
838.811	0.0147116
838.889	0.0147259
838.967	0.0145055
839.045	0.0146218
839.123	0.0148096
839.201	0.0147080
839.280	0.0146162
839.358	0.0147376
839.436	0.0147489
839.514	0.0146094
839.592	0.0144643
839.670	0.0144650
839.748	0.0145755
839.826	0.0144855
839.905	0.0144342
839.983	0.0145105
840.061	0.0144663
840.139	0.0144920
840.217	0.0145483
840.295	0.0144533
840.373	0.0143462
840.451	0.0145812
840.530	0.0144764
840.608	0.0145598
840.686	0.0147016
840.764	0.0145488
840.842	0.0145862
840.920	0.0145883
840.998	0.0146229
841.076	0.0148883
841.155	0.0147174
841.233	0.0146144
841.311	0.0148218
841.389	0.0148849
841.467	0.0147347
841.545	0.0146329
841.623	0.0146541
841.701	0.0145934
841.780	0.0145093
841.858	0.0145288
841.936	0.0145050
842.014	0.0144855
842.092	0.0144339
842.170	0.0144867
842.248	0.0145263
842.326	0.0145605
842.405	0.0145089
842.483	0.0144682
842.561	0.0145346
842.639	0.0145325
842.717	0.0144603
842.795	0.0145284
842.873	0.0145098
842.951	0.0144933
843.030	0.0146248
843.108	0.0145637
843.186	0.0146646
843.264	0.0146152
843.342	0.0146229
843.420	0.0145920
843.498	0.0144492
843.576	0.0144936
843.655	0.0145171
843.733	0.0144652
843.811	0.0144419
843.889	0.0144874
843.967	0.0144662
844.045	0.0144693
844.123	0.0144907
844.201	0.0144228
844.280	0.0144757
844.358	0.0144309
844.436	0.0144349
844.514	0.0143332
844.592	0.0144746
844.670	0.0144000
844.748	0.0144621
844.826	0.0142965
844.905	0.0144366
844.983	0.0142429
845.061	0.0143095
845.139	0.0142963
845.217	0.0143003
845.295	0.0144040
845.373	0.0142286
845.451	0.0142813
845.530	0.0142822
845.608	0.0142170
845.686	0.0143625
845.764	0.0142902
845.842	0.0143662
845.920	0.0143150
845.998	0.0142415
846.076	0.0143286
846.155	0.0143290
846.233	0.0145035
846.311	0.0144410
846.389	0.0144435
846.467	0.0144019
846.545	0.0146513
846.623	0.0145753
846.701	0.0146400
846.780	0.0145947
846.858	0.0145616
846.936	0.0143736
847.014	0.0145731
847.092	0.0145601
847.170	0.0145403
847.248	0.0145903
847.326	0.0145363
847.405	0.0146771
847.483	0.0146417
847.561	0.0146876
847.639	0.0145210
847.717	0.0146591
847.795	0.0144849
847.873	0.0145451
847.951	0.0145809
848.030	0.0143967
848.108	0.0144850
848.186	0.0143993
848.264	0.0144328
848.342	0.0143829
848.420	0.0143619
848.498	0.0143445
848.576	0.0143884
848.655	0.0142954
848.733	0.0143977
848.811	0.0143656
848.889	0.0142908
848.967	0.0143655
849.045	0.0143414
849.123	0.0143960
849.201	0.0144718
849.280	0.0145534
849.358	0.0144853
849.436	0.0146564
849.514	0.0145450
849.592	0.0147070
849.670	0.0145798
849.748	0.0145927
849.826	0.0146050
849.905	0.0146252
849.983	0.0145146
850.061	0.0145184
850.139	0.0144782
850.217	0.0144526
850.295	0.0144202
850.373	0.0144588
850.451	0.0144487
850.530	0.0145862
850.608	0.0143325
850.686	0.0143118
850.764	0.0142822
850.842	0.0144601
850.920	0.0144704
850.998	0.0142964
851.076	0.0143826
851.155	0.0144828
851.233	0.0143750
851.311	0.0144745
851.389	0.0144547
851.467	0.0144324
851.545	0.0145061
851.623	0.0143084
851.701	0.0144877
851.780	0.0145437
851.858	0.0145573
851.936	0.0145073
852.014	0.0146056
852.092	0.0146144
852.170	0.0145061
852.248	0.0145193
852.326	0.0144865
852.405	0.0144437
852.483	0.0145412
852.561	0.0144305
852.639	0.0144191
852.717	0.0144944
852.795	0.0146022
852.873	0.0144568
852.951	0.0143556
853.030	0.0145195
853.108	0.0145940
853.186	0.0146015
853.264	0.0146548
853.342	0.0146527
853.420	0.0146899
853.498	0.0147050
853.576	0.0146581
853.655	0.0147087
853.733	0.0146616
853.811	0.0146305
853.889	0.0145987
853.967	0.0145362
854.045	0.0145828
854.123	0.0145856
854.201	0.0145227
854.280	0.0146810
854.358	0.0145078
854.436	0.0145580
854.514	0.0146165
854.592	0.0146223
854.670	0.0144244
854.748	0.0146062
854.826	0.0146911
854.905	0.0146675
854.983	0.0146117
855.061	0.0146627
855.139	0.0146719
855.217	0.0146989
855.295	0.0146552
855.373	0.0146674
855.451	0.0147060
855.530	0.0147301
855.608	0.0147346
855.686	0.0146786
855.764	0.0146150
855.842	0.0146653
855.920	0.0147308
855.998	0.0147104
856.076	0.0145966
856.155	0.0145206
856.233	0.0145438
856.311	0.0145145
856.389	0.0147160
856.467	0.0145065
856.545	0.0146223
856.623	0.0144242
856.701	0.0143734
856.780	0.0143697
856.858	0.0144226
856.936	0.0144080
857.014	0.0143487
857.092	0.0143648
857.170	0.0143693
857.248	0.0144057
857.326	0.0145073
857.405	0.0145174
857.483	0.0145598
857.561	0.0144236
857.639	0.0145864
857.717	0.0145492
857.795	0.0146821
857.873	0.0146904
857.951	0.0146645
858.030	0.0146038
858.108	0.0146734
858.186	0.0147491
858.264	0.0145583
858.342	0.0145451
858.420	0.0146429
858.498	0.0146611
858.576	0.0145759
858.655	0.0144939
858.733	0.0145508
858.811	0.0144829
858.889	0.0144590
858.967	0.0144551
859.045	0.0144501
859.123	0.0144007
859.201	0.0145423
859.280	0.0145097
859.358	0.0143700
859.436	0.0144090
859.514	0.0143256
859.592	0.0145567
859.670	0.0145060
859.748	0.0144675
859.826	0.0145380
859.905	0.0144793
859.983	0.0144618
860.061	0.0146027
860.139	0.0146218
860.217	0.0146310
860.295	0.0147461
860.373	0.0147300
860.451	0.0146696
860.530	0.0147646
860.608	0.0146172
860.686	0.0145607
860.764	0.0145934
860.842	0.0144263
860.920	0.0145805
860.998	0.0145688
861.076	0.0144772
861.155	0.0144659
861.233	0.0144357
861.311	0.0144091
861.389	0.0144196
861.467	0.0144784
861.545	0.0144073
861.623	0.0144854
861.701	0.0144792
861.780	0.0147081
861.858	0.0144861
861.936	0.0143217
862.014	0.0145689
862.092	0.0145728
862.170	0.0144637
862.248	0.0144444
862.326	0.0144143
862.405	0.0144407
862.483	0.0143689
862.561	0.0143387
862.639	0.0142424
862.717	0.0143142
862.795	0.0143463
862.873	0.0144405
862.951	0.0144260
863.030	0.0143921
863.108	0.0144888
863.186	0.0144759
863.264	0.0144898
863.342	0.0144700
863.420	0.0145628
863.498	0.0146407
863.576	0.0145958
863.655	0.0146964
863.733	0.0145918
863.811	0.0145240
863.889	0.0146925
863.967	0.0145648
864.045	0.0147092
864.123	0.0147086
864.201	0.0146822
864.280	0.0147498
864.358	0.0145901
864.436	0.0145678
864.514	0.0146764
864.592	0.0145570
864.670	0.0146288
864.748	0.0146062
864.826	0.0146564
864.905	0.0144449
864.983	0.0146166
865.061	0.0145877
865.139	0.0144700
865.217	0.0145164
865.295	0.0145449
865.373	0.0146267
865.451	0.0145438
865.530	0.0145066
865.608	0.0144168
865.686	0.0146107
865.764	0.0145575
865.842	0.0144523
865.920	0.0145859
865.998	0.0145871
866.076	0.0144421
866.155	0.0144421
866.233	0.0145085
866.311	0.0145392
866.389	0.0146091
866.467	0.0144990
866.545	0.0145470
866.623	0.0146270
866.701	0.0144977
866.780	0.0146779
866.858	0.0145512
866.936	0.0144544
867.014	0.0144090
867.092	0.0143845
867.170	0.0145632
867.248	0.0144640
867.326	0.0143963
867.405	0.0143461
867.483	0.0143410
867.561	0.0143288
867.639	0.0142326
867.717	0.0143311
867.795	0.0143839
867.873	0.0144209
867.951	0.0143441
868.030	0.0143433
868.108	0.0143159
868.186	0.0144091
868.264	0.0144154
868.342	0.0145569
868.420	0.0147059
868.498	0.0145406
868.576	0.0146564
868.655	0.0146971
868.733	0.0146140
868.811	0.0145267
868.889	0.0145097
868.967	0.0145409
869.045	0.0146369
869.123	0.0145997
869.201	0.0145604
869.280	0.0145065
869.358	0.0144774
869.436	0.0145113
869.514	0.0144589
869.592	0.0144773
869.670	0.0142636
869.748	0.0144865
869.826	0.0145113
869.905	0.0144788
869.983	0.0144041
870.061	0.0145202
870.139	0.0145441
870.217	0.0144868
870.295	0.0144797
870.373	0.0145611
870.451	0.0144778
870.530	0.0144821
870.608	0.0144409
870.686	0.0144556
870.764	0.0144513
870.842	0.0143900
870.920	0.0144249
870.998	0.0144729
871.076	0.0144424
871.155	0.0145020
871.233	0.0144553
871.311	0.0144730
871.389	0.0145341
871.467	0.0144128
871.545	0.0146101
871.623	0.0145187
871.701	0.0146563
871.780	0.0146663
871.858	0.0145475
871.936	0.0146724
872.014	0.0146786
872.092	0.0146367
872.170	0.0146677
872.248	0.0145443
872.326	0.0145299
872.405	0.0147195
872.483	0.0146058
872.561	0.0144165
872.639	0.0146059
872.717	0.0146412
872.795	0.0144996
872.873	0.0146061
872.951	0.0145139
873.030	0.0147832
873.108	0.0147668
873.186	0.0147079
873.264	0.0146186
873.342	0.0146359
873.420	0.0146529
873.498	0.0147937
873.576	0.0146055
873.655	0.0145099
873.733	0.0147466
873.811	0.0145228
873.889	0.0145404
873.967	0.0144167
874.045	0.0143806
874.123	0.0145407
874.201	0.0144125
874.280	0.0143959
874.358	0.0143125
874.436	0.0144805
874.514	0.0145559
874.592	0.0145586
874.670	0.0145206
874.748	0.0146144
874.826	0.0145637
874.905	0.0145264
874.983	0.0145322
875.061	0.0145029
875.139	0.0147175
875.217	0.0145483
875.295	0.0145981
875.373	0.0145478
875.451	0.0144804
875.530	0.0145254
875.608	0.0145488
875.686	0.0146156
875.764	0.0147102
875.842	0.0146231
875.920	0.0145419
875.998	0.0145358
876.076	0.0144496
876.155	0.0145518
876.233	0.0145928
876.311	0.0145346
876.389	0.0144318
876.467	0.0144530
876.545	0.0145965
876.623	0.0144568
876.701	0.0143633
876.780	0.0144631
876.858	0.0143779
876.936	0.0144135
877.014	0.0145098
877.092	0.0146591
877.170	0.0145764
877.248	0.0145117
877.326	0.0147404
877.405	0.0147894
877.483	0.0146428
877.561	0.0147007
877.639	0.0147435
877.717	0.0147161
877.795	0.0148305
877.873	0.0147431
877.951	0.0146908
878.030	0.0147355
878.108	0.0145886
878.186	0.0146210
878.264	0.0146922
878.342	0.0146517
878.420	0.0146244
878.498	0.0144412
878.576	0.0145854
878.655	0.0146141
878.733	0.0145046
878.811	0.0146234
878.889	0.0147340
878.967	0.0145633
879.045	0.0146525
879.123	0.0145876
879.201	0.0145831
879.280	0.0144662
879.358	0.0144405
879.436	0.0144195
879.514	0.0143909
879.592	0.0144023
879.670	0.0143792
879.748	0.0143200
879.826	0.0144135
879.905	0.0145327
879.983	0.0144158
880.061	0.0143414
880.139	0.0143007
880.217	0.0143955
880.295	0.0144422
880.373	0.0147661
880.451	0.0146188
880.530	0.0145624
880.608	0.0145134
880.686	0.0146507
880.764	0.0145947
880.842	0.0146143
880.920	0.0147993
880.998	0.0146545
881.076	0.0145364
881.155	0.0145830
881.233	0.0147238
881.311	0.0146462
881.389	0.0146902
881.467	0.0145885
881.545	0.0146827
881.623	0.0144086
881.701	0.0145325
881.780	0.0145718
881.858	0.0144734
881.936	0.0144337
882.014	0.0144297
882.092	0.0144240
882.170	0.0143221
882.248	0.0143375
882.326	0.0144100
882.405	0.0143331
882.483	0.0143431
882.561	0.0143964
882.639	0.0144118
882.717	0.0144044
882.795	0.0144436
882.873	0.0144578
882.951	0.0145091
883.030	0.0145212
883.108	0.0144643
883.186	0.0145374
883.264	0.0146592
883.342	0.0146678
883.420	0.0146516
883.498	0.0146741
883.576	0.0145675
883.655	0.0145685
883.733	0.0146098
883.811	0.0145730
883.889	0.0146939
883.967	0.0147318
884.045	0.0146391
884.123	0.0147115
884.201	0.0147273
884.280	0.0145679
884.358	0.0146743
884.436	0.0146888
884.514	0.0147794
884.592	0.0147515
884.670	0.0145071
884.748	0.0144350
884.826	0.0143875
884.905	0.0146339
884.983	0.0145536
885.061	0.0144645
885.139	0.0144335
885.217	0.0145123
885.295	0.0143262
885.373	0.0144859
885.451	0.0146190
885.530	0.0144767
885.608	0.0144490
885.686	0.0143030
885.764	0.0145565
885.842	0.0144820
885.920	0.0144678
885.998	0.0145277
886.076	0.0146178
886.155	0.0144054
886.233	0.0146587
886.311	0.0146354
886.389	0.0143929
886.467	0.0145149
886.545	0.0145606
886.623	0.0145527
886.701	0.0145847
886.780	0.0145579
886.858	0.0145378
886.936	0.0144924
887.014	0.0144743
887.092	0.0144016
887.170	0.0145966
887.248	0.0144714
887.326	0.0146166
887.405	0.0147302
887.483	0.0146114
887.561	0.0146832
887.639	0.0146278
887.717	0.0146507
887.795	0.0146256
887.873	0.0147708
887.951	0.0147636
888.030	0.0146478
888.108	0.0147808
888.186	0.0146288
888.264	0.0145501
888.342	0.0146519
888.420	0.0147115
888.498	0.0146760
888.576	0.0146291
888.655	0.0145089
888.733	0.0145454
888.811	0.0146236
888.889	0.0146492
888.967	0.0143930
889.045	0.0144312
889.123	0.0145412
889.201	0.0145494
889.280	0.0143411
889.358	0.0144879
889.436	0.0144636
889.514	0.0144871
889.592	0.0145883
889.670	0.0144141
889.748	0.0145248
889.826	0.0143546
889.905	0.0145461
889.983	0.0145735
890.061	0.0144777
890.139	0.0144513
890.217	0.0144702
890.295	0.0145142
890.373	0.0144342
890.451	0.0144459
890.530	0.0144630
890.608	0.0143789
890.686	0.0144349
890.764	0.0144955
890.842	0.0144003
890.920	0.0144264
890.998	0.0145036
891.076	0.0145174
891.155	0.0143691
891.233	0.0144882
891.311	0.0145921
891.389	0.0145276
891.467	0.0144572
891.545	0.0144398
891.623	0.0143981
891.701	0.0143883
891.780	0.0144939
891.858	0.0145283
891.936	0.0144753
892.014	0.0143959
892.092	0.0144630
892.170	0.0145727
892.248	0.0145349
892.326	0.0144251
892.405	0.0144918
892.483	0.0146858
892.561	0.0145448
892.639	0.0145402
892.717	0.0146114
892.795	0.0144642
892.873	0.0144319
892.951	0.0146027
893.030	0.0144666
893.108	0.0143546
893.186	0.0143359
893.264	0.0145412
893.342	0.0143237
893.420	0.0143674
893.498	0.0145292
893.576	0.0142117
893.655	0.0145587
893.733	0.0144308
893.811	0.0144169
893.889	0.0146247
893.967	0.0145846
894.045	0.0145789
894.123	0.0146195
894.201	0.0145985
894.280	0.0146547
894.358	0.0147247
894.436	0.0147881
894.514	0.0146271
894.592	0.0147324
894.670	0.0148759
894.748	0.0145699
894.826	0.0147348
894.905	0.0145201
894.983	0.0145971
895.061	0.0146830
895.139	0.0145477
895.217	0.0144299
895.295	0.0144833
895.373	0.0145927
895.451	0.0145495
895.530	0.0146049
895.608	0.0145643
895.686	0.0145013
895.764	0.0145319
895.842	0.0146419
895.920	0.0146098
895.998	0.0146955
896.076	0.0146342
896.155	0.0147475
896.233	0.0145451
896.311	0.0144310
896.389	0.0145607
896.467	0.0146131
896.545	0.0144473
896.623	0.0144248
896.701	0.0144871
896.780	0.0145681
896.858	0.0143517
896.936	0.0144034
897.014	0.0144550
897.092	0.0143215
897.170	0.0145766
897.248	0.0145170
897.326	0.0144678
897.405	0.0145665
897.483	0.0146120
897.561	0.0145521
897.639	0.0145941
897.717	0.0147303
897.795	0.0146965
897.873	0.0146890
897.951	0.0147650
898.030	0.0147349
898.108	0.0147362
898.186	0.0146295
898.264	0.0145753
898.342	0.0145592
898.420	0.0144442
898.498	0.0145789
898.576	0.0147202
898.655	0.0146349
898.733	0.0144960
898.811	0.0145632
898.889	0.0146994
898.967	0.0146302
899.045	0.0146391
899.123	0.0146815
899.201	0.0146317
899.280	0.0145352
899.358	0.0146003
899.436	0.0147258
899.514	0.0145480
899.592	0.0146564
899.670	0.0147054
899.748	0.0146249
899.826	0.0147888
899.905	0.0147339
899.983	0.0147745
900.061	0.0148233
900.139	0.0146391
900.217	0.0148313
900.295	0.0147610
900.373	0.0148086
900.451	0.0147399
900.530	0.0146899
900.608	0.0146136
900.686	0.0146372
900.764	0.0145543
900.842	0.0145816
900.920	0.0146242
900.998	0.0146329
901.076	0.0146840
901.155	0.0145382
901.233	0.0146539
901.311	0.0147832
901.389	0.0147082
901.467	0.0146539
901.545	0.0147624
901.623	0.0146815
901.701	0.0146877
901.780	0.0146268
901.858	0.0146403
901.936	0.0146312
902.014	0.0145200
902.092	0.0146646
902.170	0.0145958
902.248	0.0144855
902.326	0.0144205
902.405	0.0144624
902.483	0.0144435
902.561	0.0144724
902.639	0.0146128
902.717	0.0146043
902.795	0.0146449
902.873	0.0146243
902.951	0.0146771
903.030	0.0147243
903.108	0.0148049
903.186	0.0146252
903.264	0.0148026
903.342	0.0147102
903.420	0.0146819
903.498	0.0146635
903.576	0.0148145
903.655	0.0146478
903.733	0.0146036
903.811	0.0145486
903.889	0.0145904
903.967	0.0145441
904.045	0.0145013
904.123	0.0145739
904.201	0.0145342
904.280	0.0145634
904.358	0.0144711
904.436	0.0145467
904.514	0.0143839
904.592	0.0145265
904.670	0.0144117
904.748	0.0145235
904.826	0.0144327
904.905	0.0143772
904.983	0.0142589
905.061	0.0144102
905.139	0.0142735
905.217	0.0141935
905.295	0.0143310
905.373	0.0143245
905.451	0.0144772
905.530	0.0143549
905.608	0.0145214
905.686	0.0144379
905.764	0.0143871
905.842	0.0145290
905.920	0.0144237
905.998	0.0145257
906.076	0.0145264
906.155	0.0146088
906.233	0.0145481
906.311	0.0143844
906.389	0.0143786
906.467	0.0144451
906.545	0.0145957
906.623	0.0143591
906.701	0.0143070
906.780	0.0144319
906.858	0.0144774
906.936	0.0143987
907.014	0.0145414
907.092	0.0144034
907.170	0.0144726
907.248	0.0146053
907.326	0.0143807
907.405	0.0145675
907.483	0.0145770
907.561	0.0144531
907.639	0.0145296
907.717	0.0144578
907.795	0.0144448
907.873	0.0144823
907.951	0.0145931
908.030	0.0144837
908.108	0.0144193
908.186	0.0144760
908.264	0.0144754
908.342	0.0143728
908.420	0.0144302
908.498	0.0145612
908.576	0.0144984
908.655	0.0145361
908.733	0.0144473
908.811	0.0145106
908.889	0.0146352
908.967	0.0144270
909.045	0.0146352
909.123	0.0148275
909.201	0.0145304
909.280	0.0146184
909.358	0.0145762
909.436	0.0147009
909.514	0.0146415
909.592	0.0146346
909.670	0.0146519
909.748	0.0146429
909.826	0.0145828
909.905	0.0145081
909.983	0.0145981
910.061	0.0145056
910.139	0.0144433
910.217	0.0145548
910.295	0.0144988
910.373	0.0145319
910.451	0.0144505
910.530	0.0144270
910.608	0.0143855
910.686	0.0143364
910.764	0.0144311
910.842	0.0145591
910.920	0.0144980
910.998	0.0144014
911.076	0.0146144
911.155	0.0144958
911.233	0.0144579
911.311	0.0146069
911.389	0.0146756
911.467	0.0146243
911.545	0.0147018
911.623	0.0146018
911.701	0.0145827
911.780	0.0145969
911.858	0.0145760
911.936	0.0145736
912.014	0.0145531
912.092	0.0144881
912.170	0.0143480
912.248	0.0145412
912.326	0.0144896
912.405	0.0143730
912.483	0.0144760
912.561	0.0144186
912.639	0.0145017
912.717	0.0144704
912.795	0.0143826
912.873	0.0143320
912.951	0.0143941
913.030	0.0145164
913.108	0.0145360
913.186	0.0145090
913.264	0.0144758
913.342	0.0143378
913.420	0.0144849
913.498	0.0145721
913.576	0.0145395
913.655	0.0144852
913.733	0.0144079
913.811	0.0142847
913.889	0.0144153
913.967	0.0145272
914.045	0.0143338
914.123	0.0144548
914.201	0.0145558
914.280	0.0144671
914.358	0.0143793
914.436	0.0144521
914.514	0.0145829
914.592	0.0145694
914.670	0.0145255
914.748	0.0145710
914.826	0.0146170
914.905	0.0146206
914.983	0.0146773
915.061	0.0146112
915.139	0.0145425
915.217	0.0145627
915.295	0.0147028
915.373	0.0146581
915.451	0.0144324
915.530	0.0145849
915.608	0.0145927
915.686	0.0144819
915.764	0.0144740
915.842	0.0144923
915.920	0.0144309
915.998	0.0144484
916.076	0.0145410
916.155	0.0144016
916.233	0.0144019
916.311	0.0145759
916.389	0.0145704
916.467	0.0144408
916.545	0.0145532
916.623	0.0145023
916.701	0.0145674
916.780	0.0144956
916.858	0.0145411
916.936	0.0146263
917.014	0.0145807
917.092	0.0145309
917.170	0.0146260
917.248	0.0146526
917.326	0.0145447
917.405	0.0145602
917.483	0.0146532
917.561	0.0144820
917.639	0.0144097
917.717	0.0145133
917.795	0.0145723
917.873	0.0145705
917.951	0.0144337
918.030	0.0143976
918.108	0.0145804
918.186	0.0146584
918.264	0.0146345
918.342	0.0145376
918.420	0.0145467
918.498	0.0144896
918.576	0.0145692
918.655	0.0145432
918.733	0.0146130
918.811	0.0143696
918.889	0.0145045
918.967	0.0144392
919.045	0.0145302
919.123	0.0145223
919.201	0.0144306
919.280	0.0143287
919.358	0.0145065
919.436	0.0146259
919.514	0.0146158
919.592	0.0145107
919.670	0.0144059
919.748	0.0144569
919.826	0.0146234
919.905	0.0145006
919.983	0.0143963
920.061	0.0145547
920.139	0.0145468
920.217	0.0145733
920.295	0.0145489
920.373	0.0145636
920.451	0.0144823
920.530	0.0147199
920.608	0.0147685
920.686	0.0145943
920.764	0.0144751
920.842	0.0147177
920.920	0.0146363
920.998	0.0146672
921.076	0.0146812
921.155	0.0147273
921.233	0.0146828
921.311	0.0147129
921.389	0.0146636
921.467	0.0146517
921.545	0.0145441
921.623	0.0147021
921.701	0.0144470
921.780	0.0144910
921.858	0.0146129
921.936	0.0145744
922.014	0.0146180
922.092	0.0146207
922.170	0.0145262
922.248	0.0144830
922.326	0.0145354
922.405	0.0145734
922.483	0.0145022
922.561	0.0145074
922.639	0.0144946
922.717	0.0143884
922.795	0.0145478
922.873	0.0145442
922.951	0.0144173
923.030	0.0143661
923.108	0.0144563
923.186	0.0144677
923.264	0.0144280
923.342	0.0145171
923.420	0.0144073
923.498	0.0144572
923.576	0.0143710
923.655	0.0145544
923.733	0.0144651
923.811	0.0144740
923.889	0.0145506
923.967	0.0143512
924.045	0.0143151
924.123	0.0146272
924.201	0.0144553
924.280	0.0143610
924.358	0.0142912
924.436	0.0144595
924.514	0.0143736
924.592	0.0144363
924.670	0.0145224
924.748	0.0144971
924.826	0.0144801
924.905	0.0144585
924.983	0.0145573
925.061	0.0144997
925.139	0.0146371
925.217	0.0146405
925.295	0.0146616
925.373	0.0146719
925.451	0.0146024
925.530	0.0144642
925.608	0.0146084
925.686	0.0146230
925.764	0.0145351
925.842	0.0145136
925.920	0.0146928
925.998	0.0146758
926.076	0.0145347
926.155	0.0147351
926.233	0.0145092
926.311	0.0147199
926.389	0.0145024
926.467	0.0146442
926.545	0.0146794
926.623	0.0145766
926.701	0.0146236
926.780	0.0147077
926.858	0.0144457
926.936	0.0145192
927.014	0.0145299
927.092	0.0144273
927.170	0.0144432
927.248	0.0145462
927.326	0.0145387
927.405	0.0143559
927.483	0.0144437
927.561	0.0144216
927.639	0.0142990
927.717	0.0142852
927.795	0.0142976
927.873	0.0143575
927.951	0.0144445
928.030	0.0143773
928.108	0.0145026
928.186	0.0144160
928.264	0.0143984
928.342	0.0144441
928.420	0.0143424
928.498	0.0144362
928.576	0.0144670
928.655	0.0146036
928.733	0.0143623
928.811	0.0145298
928.889	0.0145184
928.967	0.0145188
929.045	0.0145108
929.123	0.0144946
929.201	0.0144408
929.280	0.0143141
929.358	0.0143457
929.436	0.0144756
929.514	0.0145538
929.592	0.0143465
929.670	0.0143504
929.748	0.0144263
929.826	0.0144410
929.905	0.0143447
929.983	0.0144232
930.061	0.0144778
930.139	0.0144350
930.217	0.0143747
930.295	0.0144996
930.373	0.0144760
930.451	0.0144708
930.530	0.0145848
930.608	0.0144725
930.686	0.0144151
930.764	0.0144725
930.842	0.0143999
930.920	0.0144168
930.998	0.0145145
931.076	0.0145584
931.155	0.0145351
931.233	0.0146696
931.311	0.0144991
931.389	0.0145336
931.467	0.0145446
931.545	0.0145806
931.623	0.0145214
931.701	0.0144989
931.780	0.0145860
931.858	0.0146706
931.936	0.0147514
932.014	0.0146995
932.092	0.0147041
932.170	0.0146503
932.248	0.0147489
932.326	0.0147307
932.405	0.0147049
932.483	0.0147069
932.561	0.0147476
932.639	0.0146978
932.717	0.0148060
932.795	0.0147102
932.873	0.0147002
932.951	0.0148350
933.030	0.0147050
933.108	0.0147016
933.186	0.0146308
933.264	0.0146613
933.342	0.0146345
933.420	0.0146543
933.498	0.0149342
933.576	0.0147555
933.655	0.0146366
933.733	0.0145701
933.811	0.0146741
933.889	0.0144791
933.967	0.0146100
934.045	0.0146477
934.123	0.0145336
934.201	0.0146361
934.280	0.0145873
934.358	0.0145965
934.436	0.0147063
934.514	0.0147408
934.592	0.0146592
934.670	0.0146905
934.748	0.0145688
934.826	0.0146728
934.905	0.0145808
934.983	0.0147068
935.061	0.0146515
935.139	0.0146259
935.217	0.0146159
935.295	0.0146405
935.373	0.0143937
935.451	0.0144479
935.530	0.0144491
935.608	0.0145683
935.686	0.0144553
935.764	0.0144780
935.842	0.0145182
935.920	0.0145371
935.998	0.0144583
936.076	0.0145789
936.155	0.0145316
936.233	0.0144918
936.311	0.0145198
936.389	0.0144797
936.467	0.0144469
936.545	0.0145236
936.623	0.0145579
936.701	0.0145929
936.780	0.0145240
936.858	0.0145602
936.936	0.0145844
937.014	0.0146452
937.092	0.0146114
937.170	0.0145683
937.248	0.0145569
937.326	0.0146852
937.405	0.0146045
937.483	0.0145669
937.561	0.0145930
937.639	0.0146075
937.717	0.0145599
937.795	0.0144956
937.873	0.0146256
937.951	0.0145611
938.030	0.0145607
938.108	0.0144966
938.186	0.0144460
938.264	0.0144147
938.342	0.0143471
938.420	0.0144398
938.498	0.0144991
938.576	0.0143663
938.655	0.0143076
938.733	0.0144769
938.811	0.0144459
938.889	0.0145049
938.967	0.0146287
939.045	0.0145695
939.123	0.0143761
939.201	0.0146517
939.280	0.0145628
939.358	0.0145424
939.436	0.0145705
939.514	0.0147117
939.592	0.0145139
939.670	0.0146131
939.748	0.0146307
939.826	0.0145216
939.905	0.0144025
939.983	0.0144212
940.061	0.0144435
940.139	0.0145899
940.217	0.0146248
940.295	0.0145302
940.373	0.0146351
940.451	0.0146176
940.530	0.0146710
940.608	0.0145766
940.686	0.0145077
940.764	0.0143852
940.842	0.0144805
940.920	0.0145799
940.998	0.0144839
941.076	0.0144113
941.155	0.0144967
941.233	0.0145017
941.311	0.0145306
941.389	0.0144867
941.467	0.0144604
941.545	0.0144232
941.623	0.0143626
941.701	0.0144149
941.780	0.0145352
941.858	0.0144291
941.936	0.0144638
942.014	0.0144167
942.092	0.0145802
942.170	0.0145596
942.248	0.0144526
942.326	0.0145260
942.405	0.0145750
942.483	0.0145281
942.561	0.0144054
942.639	0.0145312
942.717	0.0146725
942.795	0.0144384
942.873	0.0145557
942.951	0.0144775
943.030	0.0145610
943.108	0.0145572
943.186	0.0145134
943.264	0.0144997
943.342	0.0145419
943.420	0.0145415
943.498	0.0146083
943.576	0.0145670
943.655	0.0146899
943.733	0.0146579
943.811	0.0145544
943.889	0.0145320
943.967	0.0145688
944.045	0.0145464
944.123	0.0145335
944.201	0.0144791
944.280	0.0145554
944.358	0.0144943
944.436	0.0144550
944.514	0.0144482
944.592	0.0144104
944.670	0.0143528
944.748	0.0144741
944.826	0.0145996
944.905	0.0145007
944.983	0.0144184
945.061	0.0144083
945.139	0.0145055
945.217	0.0144617
945.295	0.0144258
945.373	0.0144557
945.451	0.0144496
945.530	0.0143741
945.608	0.0144337
945.686	0.0145691
945.764	0.0143778
945.842	0.0144115
945.920	0.0145387
945.998	0.0144624
946.076	0.0144132
946.155	0.0144834
946.233	0.0144921
946.311	0.0143251
946.389	0.0145163
946.467	0.0145152
946.545	0.0144401
946.623	0.0144126
946.701	0.0144115
946.780	0.0145086
946.858	0.0143462
946.936	0.0143682
947.014	0.0143468
947.092	0.0144521
947.170	0.0145156
947.248	0.0144569
947.326	0.0144006
947.405	0.0145098
947.483	0.0144879
947.561	0.0143985
947.639	0.0144518
947.717	0.0146027
947.795	0.0146127
947.873	0.0146486
947.951	0.0145199
948.030	0.0145512
948.108	0.0145995
948.186	0.0145807
948.264	0.0145735
948.342	0.0145699
948.420	0.0145956
948.498	0.0145792
948.576	0.0146229
948.655	0.0144757
948.733	0.0145612
948.811	0.0144985
948.889	0.0145581
948.967	0.0144889
949.045	0.0145483
949.123	0.0144091
949.201	0.0144250
949.280	0.0144721
949.358	0.0145220
949.436	0.0144144
949.514	0.0144002
949.592	0.0145089
949.670	0.0144449
949.748	0.0144669
949.826	0.0144212
949.905	0.0145079
949.983	0.0144613
950.061	0.0145129
950.139	0.0144594
950.217	0.0145202
950.295	0.0145829
950.373	0.0145373
950.451	0.0146400
950.530	0.0145676
950.608	0.0145799
950.686	0.0145811
950.764	0.0145760
950.842	0.0144305
950.920	0.0145846
950.998	0.0145376
951.076	0.0145458
951.155	0.0144164
951.233	0.0145367
951.311	0.0146871
951.389	0.0143849
951.467	0.0144516
951.545	0.0145889
951.623	0.0143692
951.701	0.0144558
951.780	0.0144276
951.858	0.0145195
951.936	0.0146268
952.014	0.0144322
952.092	0.0145088
952.170	0.0144173
952.248	0.0145989
952.326	0.0146288
952.405	0.0144753
952.483	0.0146300
952.561	0.0146735
952.639	0.0145331
952.717	0.0144791
952.795	0.0144420
952.873	0.0147057
952.951	0.0146251
953.030	0.0145649
953.108	0.0145500
953.186	0.0145769
953.264	0.0145290
953.342	0.0143402
953.420	0.0145134
953.498	0.0144319
953.576	0.0143563
953.655	0.0144290
953.733	0.0144895
953.811	0.0143948
953.889	0.0144760
953.967	0.0146078
954.045	0.0144866
954.123	0.0144609
954.201	0.0146725
954.280	0.0146267
954.358	0.0145573
954.436	0.0145998
954.514	0.0144774
954.592	0.0145039
954.670	0.0145607
954.748	0.0146063
954.826	0.0145627
954.905	0.0144321
954.983	0.0146350
955.061	0.0146912
955.139	0.0145330
955.217	0.0146938
955.295	0.0147108
955.373	0.0146878
955.451	0.0146712
955.530	0.0146033
955.608	0.0146516
955.686	0.0146445
955.764	0.0146242
955.842	0.0146765
955.920	0.0146935
955.998	0.0148175
956.076	0.0147082
956.155	0.0147296
956.233	0.0147042
956.311	0.0149523
956.389	0.0148228
956.467	0.0146609
956.545	0.0148357
956.623	0.0145602
956.701	0.0147449
956.780	0.0147103
956.858	0.0146954
956.936	0.0147597
957.014	0.0147110
957.092	0.0145798
957.170	0.0146389
957.248	0.0147011
957.326	0.0146432
957.405	0.0144759
957.483	0.0144416
957.561	0.0145063
957.639	0.0145210
957.717	0.0145644
957.795	0.0145203
957.873	0.0145708
957.951	0.0145251
958.030	0.0144698
958.108	0.0145193
958.186	0.0144905
958.264	0.0146193
958.342	0.0146218
958.420	0.0145020
958.498	0.0146993
958.576	0.0147199
958.655	0.0144814
958.733	0.0145159
958.811	0.0146276
958.889	0.0145161
958.967	0.0146152
959.045	0.0145387
959.123	0.0145317
959.201	0.0146434
959.280	0.0146035
959.358	0.0144583
959.436	0.0145531
959.514	0.0144619
959.592	0.0145547
959.670	0.0144995
959.748	0.0144737
959.826	0.0144512
959.905	0.0144616
