05/20/2022	16:26:17	Ver.	4.1	UNKNOWN
Optical Delay	639.982744	Delta X		0.078125	Sweeps	1	Scan Rate	0/0
Coordinates	Axis 1	NaN	Axis 2	NaN	Axis 3	NaN	Axis 4	NaN	Axis 5	NaN	Axis 6	0.000000
TX Power	0.000000	RX Power	0.000000

639.983	0.0148372
640.061	0.0148290
640.139	0.0149026
640.217	0.0148787
640.295	0.0149209
640.373	0.0150207
640.451	0.0149107
640.530	0.0149058
640.608	0.0148957
640.686	0.0150277
640.764	0.0149557
640.842	0.0148784
640.920	0.0149512
640.998	0.0149649
641.076	0.0150241
641.155	0.0150626
641.233	0.0148517
641.311	0.0149581
641.389	0.0149734
641.467	0.0148715
641.545	0.0150541
641.623	0.0150452
641.701	0.0149641
641.780	0.0149073
641.858	0.0149982
641.936	0.0150021
642.014	0.0148936
642.092	0.0148681
642.170	0.0149077
642.248	0.0148458
642.326	0.0149288
642.405	0.0149734
642.483	0.0148033
642.561	0.0148882
642.639	0.0149129
642.717	0.0149237
642.795	0.0149791
642.873	0.0148690
642.951	0.0147504
643.030	0.0148998
643.108	0.0149222
643.186	0.0148322
643.264	0.0148835
643.342	0.0149803
643.420	0.0147867
643.498	0.0147174
643.576	0.0148838
643.655	0.0149860
643.733	0.0148730
643.811	0.0148927
643.889	0.0149255
643.967	0.0148062
644.045	0.0148390
644.123	0.0148119
644.201	0.0149007
644.280	0.0147954
644.358	0.0148277
644.436	0.0149658
644.514	0.0149053
644.592	0.0149216
644.670	0.0148748
644.748	0.0148801
644.826	0.0148830
644.905	0.0148867
644.983	0.0148834
645.061	0.0148737
645.139	0.0147758
645.217	0.0149326
645.295	0.0149313
645.373	0.0148434
645.451	0.0149199
645.530	0.0149220
645.608	0.0148300
645.686	0.0149420
645.764	0.0149306
645.842	0.0147296
645.920	0.0149029
645.998	0.0149606
646.076	0.0148566
646.155	0.0147266
646.233	0.0148547
646.311	0.0148903
646.389	0.0148993
646.467	0.0149207
646.545	0.0148988
646.623	0.0148631
646.701	0.0148904
646.780	0.0149026
646.858	0.0148096
646.936	0.0148425
647.014	0.0147578
647.092	0.0148630
647.170	0.0149599
647.248	0.0149688
647.326	0.0148380
647.405	0.0148067
647.483	0.0148589
647.561	0.0148515
647.639	0.0147391
647.717	0.0148604
647.795	0.0148591
647.873	0.0148455
647.951	0.0149809
648.030	0.0147707
648.108	0.0148054
648.186	0.0149309
648.264	0.0149657
648.342	0.0149799
648.420	0.0147903
648.498	0.0148459
648.576	0.0149481
648.655	0.0149608
648.733	0.0149353
648.811	0.0149534
648.889	0.0150401
648.967	0.0146764
649.045	0.0148393
649.123	0.0148706
649.201	0.0149359
649.280	0.0148609
649.358	0.0148140
649.436	0.0146570
649.514	0.0147398
649.592	0.0147979
649.670	0.0146870
649.748	0.0146860
649.826	0.0148512
649.905	0.0148710
649.983	0.0147643
650.061	0.0148997
650.139	0.0147753
650.217	0.0146594
650.295	0.0147887
650.373	0.0147469
650.451	0.0148344
650.530	0.0148872
650.608	0.0147081
650.686	0.0148418
650.764	0.0148146
650.842	0.0148299
650.920	0.0147400
650.998	0.0146944
651.076	0.0148882
651.155	0.0148701
651.233	0.0148569
651.311	0.0148671
651.389	0.0149300
651.467	0.0149394
651.545	0.0148652
651.623	0.0147987
651.701	0.0149034
651.780	0.0148085
651.858	0.0149317
651.936	0.0149995
652.014	0.0148953
652.092	0.0147256
652.170	0.0148511
652.248	0.0148301
652.326	0.0148525
652.405	0.0148025
652.483	0.0149249
652.561	0.0148945
652.639	0.0147637
652.717	0.0148325
652.795	0.0148764
652.873	0.0149224
652.951	0.0148855
653.030	0.0148447
653.108	0.0148104
653.186	0.0147809
653.264	0.0149548
653.342	0.0149327
653.420	0.0149190
653.498	0.0149080
653.576	0.0147713
653.655	0.0147820
653.733	0.0149135
653.811	0.0148589
653.889	0.0148806
653.967	0.0147859
654.045	0.0149264
654.123	0.0149342
654.201	0.0149720
654.280	0.0148093
654.358	0.0147742
654.436	0.0149511
654.514	0.0148481
654.592	0.0148535
654.670	0.0148611
654.748	0.0147342
654.826	0.0148159
654.905	0.0148578
654.983	0.0147715
655.061	0.0147209
655.139	0.0147382
655.217	0.0148852
655.295	0.0148340
655.373	0.0148071
655.451	0.0148144
655.530	0.0148101
655.608	0.0148734
655.686	0.0149377
655.764	0.0148141
655.842	0.0148355
655.920	0.0146425
655.998	0.0149577
656.076	0.0148823
656.155	0.0147656
656.233	0.0148892
656.311	0.0150040
656.389	0.0148656
656.467	0.0148050
656.545	0.0149076
656.623	0.0150307
656.701	0.0150431
656.780	0.0150578
656.858	0.0149944
656.936	0.0150233
657.014	0.0149751
657.092	0.0148723
657.170	0.0148452
657.248	0.0148790
657.326	0.0149672
657.405	0.0148167
657.483	0.0147670
657.561	0.0147238
657.639	0.0147441
657.717	0.0148196
657.795	0.0147533
657.873	0.0147543
657.951	0.0147292
658.030	0.0150520
658.108	0.0148347
658.186	0.0148751
658.264	0.0149660
658.342	0.0150349
658.420	0.0148515
658.498	0.0149390
658.576	0.0150484
658.655	0.0151845
658.733	0.0149162
658.811	0.0150245
658.889	0.0151013
658.967	0.0149900
659.045	0.0149923
659.123	0.0149417
659.201	0.0149577
659.280	0.0150068
659.358	0.0149829
659.436	0.0148037
659.514	0.0147276
659.592	0.0147844
659.670	0.0148576
659.748	0.0148602
659.826	0.0147495
659.905	0.0147399
659.983	0.0147325
660.061	0.0147988
660.139	0.0148936
660.217	0.0148663
660.295	0.0148170
660.373	0.0147524
660.451	0.0147026
660.530	0.0148991
660.608	0.0148003
660.686	0.0147876
660.764	0.0148368
660.842	0.0148093
660.920	0.0148311
660.998	0.0149344
661.076	0.0149773
661.155	0.0148604
661.233	0.0150729
661.311	0.0149583
661.389	0.0149147
661.467	0.0149683
661.545	0.0150996
661.623	0.0148771
661.701	0.0147640
661.780	0.0148892
661.858	0.0148447
661.936	0.0147238
662.014	0.0147811
662.092	0.0148055
662.170	0.0146997
662.248	0.0146701
662.326	0.0146807
662.405	0.0148950
662.483	0.0148022
662.561	0.0146295
662.639	0.0148569
662.717	0.0148093
662.795	0.0149063
662.873	0.0149211
662.951	0.0147817
663.030	0.0149748
663.108	0.0149788
663.186	0.0150052
663.264	0.0150906
663.342	0.0150658
663.420	0.0148613
663.498	0.0150153
663.576	0.0150996
663.655	0.0151134
663.733	0.0152156
663.811	0.0151028
663.889	0.0150017
663.967	0.0147473
664.045	0.0149677
664.123	0.0148884
664.201	0.0148544
664.280	0.0148375
664.358	0.0149061
664.436	0.0148404
664.514	0.0147899
664.592	0.0148127
664.670	0.0148045
664.748	0.0149654
664.826	0.0149416
664.905	0.0149582
664.983	0.0149046
665.061	0.0149006
665.139	0.0148815
665.217	0.0149249
665.295	0.0150467
665.373	0.0148363
665.451	0.0150787
665.530	0.0151215
665.608	0.0151460
665.686	0.0152114
665.764	0.0150001
665.842	0.0149710
665.920	0.0149648
665.998	0.0149491
666.076	0.0148981
666.155	0.0147223
666.233	0.0148257
666.311	0.0149153
666.389	0.0148113
666.467	0.0148225
666.545	0.0148634
666.623	0.0148421
666.701	0.0147871
666.780	0.0147720
666.858	0.0147729
666.936	0.0150038
667.014	0.0149853
667.092	0.0149023
667.170	0.0149690
667.248	0.0150715
667.326	0.0149754
667.405	0.0149122
667.483	0.0151172
667.561	0.0149487
667.639	0.0148989
667.717	0.0149936
667.795	0.0150475
667.873	0.0149799
667.951	0.0148724
668.030	0.0148188
668.108	0.0148654
668.186	0.0148648
668.264	0.0148236
668.342	0.0147791
668.420	0.0147862
668.498	0.0146989
668.576	0.0147248
668.655	0.0148457
668.733	0.0148316
668.811	0.0148055
668.889	0.0146867
668.967	0.0148396
669.045	0.0147726
669.123	0.0147057
669.201	0.0147279
669.280	0.0147836
669.358	0.0146849
669.436	0.0147412
669.514	0.0146932
669.592	0.0148090
669.670	0.0147936
669.748	0.0147083
669.826	0.0147067
669.905	0.0147704
669.983	0.0147778
670.061	0.0147680
670.139	0.0147255
670.217	0.0148605
670.295	0.0148831
670.373	0.0147403
670.451	0.0148072
670.530	0.0147713
670.608	0.0147561
670.686	0.0147586
670.764	0.0147461
670.842	0.0147762
670.920	0.0146964
670.998	0.0147237
671.076	0.0147289
671.155	0.0147889
671.233	0.0147326
671.311	0.0146696
671.389	0.0146622
671.467	0.0147479
671.545	0.0147190
671.623	0.0146078
671.701	0.0146754
671.780	0.0147145
671.858	0.0146432
671.936	0.0146109
672.014	0.0147820
672.092	0.0147513
672.170	0.0146433
672.248	0.0147572
672.326	0.0147486
672.405	0.0146736
672.483	0.0147900
672.561	0.0146937
672.639	0.0146577
672.717	0.0147015
672.795	0.0146902
672.873	0.0147017
672.951	0.0146841
673.030	0.0148067
673.108	0.0148611
673.186	0.0148487
673.264	0.0147982
673.342	0.0146947
673.420	0.0147571
673.498	0.0145557
673.576	0.0148424
673.655	0.0148317
673.733	0.0147778
673.811	0.0148185
673.889	0.0148227
673.967	0.0147141
674.045	0.0147545
674.123	0.0148239
674.201	0.0147646
674.280	0.0148359
674.358	0.0148189
674.436	0.0148044
674.514	0.0148254
674.592	0.0150039
674.670	0.0148351
674.748	0.0148769
674.826	0.0149799
674.905	0.0149349
674.983	0.0150093
675.061	0.0149510
675.139	0.0149610
675.217	0.0149245
675.295	0.0149454
675.373	0.0149553
675.451	0.0149186
675.530	0.0147608
675.608	0.0150299
675.686	0.0150119
675.764	0.0148479
675.842	0.0148692
675.920	0.0150954
675.998	0.0150825
676.076	0.0149218
676.155	0.0149175
676.233	0.0148677
676.311	0.0148620
676.389	0.0148498
676.467	0.0149197
676.545	0.0148321
676.623	0.0147630
676.701	0.0146829
676.780	0.0147329
676.858	0.0147251
676.936	0.0147908
677.014	0.0146231
677.092	0.0147321
677.170	0.0147368
677.248	0.0148038
677.326	0.0148445
677.405	0.0148589
677.483	0.0149751
677.561	0.0149380
677.639	0.0151758
677.717	0.0153594
677.795	0.0153668
677.873	0.0154308
677.951	0.0152215
678.030	0.0153397
678.108	0.0154311
678.186	0.0154471
678.264	0.0152420
678.342	0.0152399
678.420	0.0150480
678.498	0.0148813
678.576	0.0148029
678.655	0.0147137
678.733	0.0146075
678.811	0.0144350
678.889	0.0144366
678.967	0.0142642
679.045	0.0140703
679.123	0.0141596
679.201	0.0143149
679.280	0.0142610
679.358	0.0143775
679.436	0.0144152
679.514	0.0144929
679.592	0.0147307
679.670	0.0148985
679.748	0.0149683
679.826	0.0152012
679.905	0.0152654
679.983	0.0151572
680.061	0.0153145
680.139	0.0153862
680.217	0.0153427
680.295	0.0155420
680.373	0.0153927
680.451	0.0155364
680.530	0.0154387
680.608	0.0154485
680.686	0.0152252
680.764	0.0151846
680.842	0.0152642
680.920	0.0151130
680.998	0.0151573
681.076	0.0150578
681.155	0.0150262
681.233	0.0148311
681.311	0.0147506
681.389	0.0147340
681.467	0.0147404
681.545	0.0145680
681.623	0.0145545
681.701	0.0144118
681.780	0.0143484
681.858	0.0143126
681.936	0.0144384
682.014	0.0143938
682.092	0.0144222
682.170	0.0143937
682.248	0.0144630
682.326	0.0146749
682.405	0.0148019
682.483	0.0148479
682.561	0.0148799
682.639	0.0148145
682.717	0.0150453
682.795	0.0150476
682.873	0.0148986
682.951	0.0148873
683.030	0.0150710
683.108	0.0149548
683.186	0.0150336
683.264	0.0148934
683.342	0.0148823
683.420	0.0148849
683.498	0.0148618
683.576	0.0147963
683.655	0.0148674
683.733	0.0149336
683.811	0.0148580
683.889	0.0148645
683.967	0.0151208
684.045	0.0151425
684.123	0.0151167
684.201	0.0149114
684.280	0.0150420
684.358	0.0151873
684.436	0.0152547
684.514	0.0152021
684.592	0.0151103
684.670	0.0151563
684.748	0.0150623
684.826	0.0150626
684.905	0.0152758
684.983	0.0151887
685.061	0.0152111
685.139	0.0151932
685.217	0.0153005
685.295	0.0153218
685.373	0.0151505
685.451	0.0153429
685.530	0.0152647
685.608	0.0152502
685.686	0.0154558
685.764	0.0153397
685.842	0.0153405
685.920	0.0153002
685.998	0.0152431
686.076	0.0151305
686.155	0.0150027
686.233	0.0147234
686.311	0.0146227
686.389	0.0142852
686.467	0.0141627
686.545	0.0139010
686.623	0.0137916
686.701	0.0136599
686.780	0.0133624
686.858	0.0133856
686.936	0.0130524
687.014	0.0131107
687.092	0.0131400
687.170	0.0131188
687.248	0.0131709
687.326	0.0129767
687.405	0.0134071
687.483	0.0138144
687.561	0.0138335
687.639	0.0141140
687.717	0.0143063
687.795	0.0148345
687.873	0.0150222
687.951	0.0153893
688.030	0.0157738
688.108	0.0159685
688.186	0.0163123
688.264	0.0164576
688.342	0.0166251
688.420	0.0167432
688.498	0.0168268
688.576	0.0170422
688.655	0.0171225
688.733	0.0169664
688.811	0.0168018
688.889	0.0168610
688.967	0.0165459
689.045	0.0163383
689.123	0.0161191
689.201	0.0159298
689.280	0.0159144
689.358	0.0154280
689.436	0.0152010
689.514	0.0147740
689.592	0.0145309
689.670	0.0143439
689.748	0.0139498
689.826	0.0137656
689.905	0.0136365
689.983	0.0132629
690.061	0.0131311
690.139	0.0130570
690.217	0.0129983
690.295	0.0128822
690.373	0.0129162
690.451	0.0129734
690.530	0.0130302
690.608	0.0131705
690.686	0.0133257
690.764	0.0134027
690.842	0.0134425
690.920	0.0138399
690.998	0.0140511
691.076	0.0140075
691.155	0.0141947
691.233	0.0144654
691.311	0.0145771
691.389	0.0146043
691.467	0.0149149
691.545	0.0149866
691.623	0.0152792
691.701	0.0151994
691.780	0.0155163
691.858	0.0157368
691.936	0.0157858
692.014	0.0161282
692.092	0.0162281
692.170	0.0164953
692.248	0.0165206
692.326	0.0165583
692.405	0.0165170
692.483	0.0165752
692.561	0.0164948
692.639	0.0162914
692.717	0.0159422
692.795	0.0156940
692.873	0.0155979
692.951	0.0152105
693.030	0.0149622
693.108	0.0145718
693.186	0.0142719
693.264	0.0139729
693.342	0.0137930
693.420	0.0136559
693.498	0.0136475
693.576	0.0133923
693.655	0.0135010
693.733	0.0137054
693.811	0.0137703
693.889	0.0137297
693.967	0.0139330
694.045	0.0140855
694.123	0.0142658
694.201	0.0144005
694.280	0.0144885
694.358	0.0145121
694.436	0.0146271
694.514	0.0144865
694.592	0.0141997
694.670	0.0141354
694.748	0.0140954
694.826	0.0138918
694.905	0.0139789
694.983	0.0139234
695.061	0.0138631
695.139	0.0138809
695.217	0.0139980
695.295	0.0141128
695.373	0.0143029
695.451	0.0145252
695.530	0.0148524
695.608	0.0151310
695.686	0.0154122
695.764	0.0156141
695.842	0.0160805
695.920	0.0162873
695.998	0.0164124
696.076	0.0164922
696.155	0.0165694
696.233	0.0167365
696.311	0.0166787
696.389	0.0165516
696.467	0.0164537
696.545	0.0164909
696.623	0.0163129
696.701	0.0161774
696.780	0.0157437
696.858	0.0157007
696.936	0.0154373
697.014	0.0151404
697.092	0.0148179
697.170	0.0146112
697.248	0.0144640
697.326	0.0140991
697.405	0.0141087
697.483	0.0138379
697.561	0.0134712
697.639	0.0133440
697.717	0.0132858
697.795	0.0130768
697.873	0.0128307
697.951	0.0129463
698.030	0.0129140
698.108	0.0127785
698.186	0.0129099
698.264	0.0130312
698.342	0.0131041
698.420	0.0130811
698.498	0.0132570
698.576	0.0135541
698.655	0.0136233
698.733	0.0137506
698.811	0.0141178
698.889	0.0143832
698.967	0.0146709
699.045	0.0150593
699.123	0.0153371
699.201	0.0156412
699.280	0.0159683
699.358	0.0162728
699.436	0.0163960
699.514	0.0166315
699.592	0.0166472
699.670	0.0168306
699.748	0.0167958
699.826	0.0166951
699.905	0.0165012
699.983	0.0165593
700.061	0.0164894
700.139	0.0163613
700.217	0.0162463
700.295	0.0160432
700.373	0.0158562
700.451	0.0157223
700.530	0.0156850
700.608	0.0156725
700.686	0.0153941
700.764	0.0155347
700.842	0.0153578
700.920	0.0152242
700.998	0.0152293
701.076	0.0150771
701.155	0.0150567
701.233	0.0148772
701.311	0.0146316
701.389	0.0144321
701.467	0.0143484
701.545	0.0141183
701.623	0.0139321
701.701	0.0135923
701.780	0.0135194
701.858	0.0133816
701.936	0.0133003
702.014	0.0134209
702.092	0.0133467
702.170	0.0134473
702.248	0.0133601
702.326	0.0136186
702.405	0.0137113
702.483	0.0138722
702.561	0.0137399
702.639	0.0139513
702.717	0.0141680
702.795	0.0141759
702.873	0.0142030
702.951	0.0142048
703.030	0.0143530
703.108	0.0143983
703.186	0.0144869
703.264	0.0144422
703.342	0.0145462
703.420	0.0147213
703.498	0.0149895
703.576	0.0150628
703.655	0.0152488
703.733	0.0153764
703.811	0.0153999
703.889	0.0156808
703.967	0.0155167
704.045	0.0156329
704.123	0.0155891
704.201	0.0157086
704.280	0.0157211
704.358	0.0156563
704.436	0.0157704
704.514	0.0156782
704.592	0.0157627
704.670	0.0159632
704.748	0.0159196
704.826	0.0158823
704.905	0.0160963
704.983	0.0163917
705.061	0.0162044
705.139	0.0161014
705.217	0.0161140
705.295	0.0159295
705.373	0.0158030
705.451	0.0155493
705.530	0.0153861
705.608	0.0151458
705.686	0.0149430
705.764	0.0146886
705.842	0.0143478
705.920	0.0142390
705.998	0.0139956
706.076	0.0136844
706.155	0.0138271
706.233	0.0137157
706.311	0.0135031
706.389	0.0136084
706.467	0.0136628
706.545	0.0136028
706.623	0.0137314
706.701	0.0138118
706.780	0.0140955
706.858	0.0142104
706.936	0.0143889
707.014	0.0145525
707.092	0.0148254
707.170	0.0150519
707.248	0.0154253
707.326	0.0155463
707.405	0.0156769
707.483	0.0157119
707.561	0.0157718
707.639	0.0156895
707.717	0.0158694
707.795	0.0157325
707.873	0.0156487
707.951	0.0155186
708.030	0.0154279
708.108	0.0152725
708.186	0.0152021
708.264	0.0150867
708.342	0.0149773
708.420	0.0147935
708.498	0.0146560
708.576	0.0145414
708.655	0.0144354
708.733	0.0144023
708.811	0.0141855
708.889	0.0141553
708.967	0.0141130
709.045	0.0140235
709.123	0.0141356
709.201	0.0141670
709.280	0.0141829
709.358	0.0143987
709.436	0.0145642
709.514	0.0146597
709.592	0.0148080
709.670	0.0150743
709.748	0.0153078
709.826	0.0154984
709.905	0.0155813
709.983	0.0157617
710.061	0.0158918
710.139	0.0156669
710.217	0.0159063
710.295	0.0159711
710.373	0.0158710
710.451	0.0157939
710.530	0.0157375
710.608	0.0156719
710.686	0.0155298
710.764	0.0154385
710.842	0.0152755
710.920	0.0151170
710.998	0.0149922
711.076	0.0148283
711.155	0.0147182
711.233	0.0145219
711.311	0.0143334
711.389	0.0141322
711.467	0.0140867
711.545	0.0138715
711.623	0.0139080
711.701	0.0138763
711.780	0.0139143
711.858	0.0137785
711.936	0.0140456
712.014	0.0140821
712.092	0.0141811
712.170	0.0142014
712.248	0.0143500
712.326	0.0143945
712.405	0.0144135
712.483	0.0144318
712.561	0.0143250
712.639	0.0142651
712.717	0.0141723
712.795	0.0142024
712.873	0.0141756
712.951	0.0143473
713.030	0.0142859
713.108	0.0142342
713.186	0.0143436
713.264	0.0145168
713.342	0.0146580
713.420	0.0148342
713.498	0.0150849
713.576	0.0152426
713.655	0.0153131
713.733	0.0153278
713.811	0.0155473
713.889	0.0155090
713.967	0.0155252
714.045	0.0153402
714.123	0.0151824
714.201	0.0150861
714.280	0.0149982
714.358	0.0149168
714.436	0.0149271
714.514	0.0148434
714.592	0.0148109
714.670	0.0145827
714.748	0.0146651
714.826	0.0149238
714.905	0.0150804
714.983	0.0150158
715.061	0.0152124
715.139	0.0154046
715.217	0.0155419
715.295	0.0155806
715.373	0.0155416
715.451	0.0156087
715.530	0.0156271
715.608	0.0155285
715.686	0.0155981
715.764	0.0155714
715.842	0.0153007
715.920	0.0152635
715.998	0.0151863
716.076	0.0151377
716.155	0.0148881
716.233	0.0147278
716.311	0.0146686
716.389	0.0144749
716.467	0.0143704
716.545	0.0142695
716.623	0.0140916
716.701	0.0139003
716.780	0.0140170
716.858	0.0138753
716.936	0.0138068
717.014	0.0138084
717.092	0.0139107
717.170	0.0138626
717.248	0.0139486
717.326	0.0137747
717.405	0.0140168
717.483	0.0141616
717.561	0.0143855
717.639	0.0143929
717.717	0.0145889
717.795	0.0147902
717.873	0.0148038
717.951	0.0151355
718.030	0.0150755
718.108	0.0150758
718.186	0.0151731
718.264	0.0150946
718.342	0.0151371
718.420	0.0147423
718.498	0.0147058
718.576	0.0148255
718.655	0.0148141
718.733	0.0147871
718.811	0.0148226
718.889	0.0147426
718.967	0.0147905
719.045	0.0149317
719.123	0.0151016
719.201	0.0150436
719.280	0.0151627
719.358	0.0151775
719.436	0.0152148
719.514	0.0151788
719.592	0.0153086
719.670	0.0153564
719.748	0.0154260
719.826	0.0153778
719.905	0.0154836
719.983	0.0155396
720.061	0.0156229
720.139	0.0154334
720.217	0.0154884
720.295	0.0154971
720.373	0.0154713
720.451	0.0154282
720.530	0.0151413
720.608	0.0151186
720.686	0.0149216
720.764	0.0149280
720.842	0.0146552
720.920	0.0145607
720.998	0.0144046
721.076	0.0144688
721.155	0.0144603
721.233	0.0144399
721.311	0.0144858
721.389	0.0145728
721.467	0.0146799
721.545	0.0146781
721.623	0.0150522
721.701	0.0149354
721.780	0.0150359
721.858	0.0150108
721.936	0.0150980
722.014	0.0151700
722.092	0.0153036
722.170	0.0151144
722.248	0.0150124
722.326	0.0149732
722.405	0.0150224
722.483	0.0148788
722.561	0.0148547
722.639	0.0147525
722.717	0.0146469
722.795	0.0146223
722.873	0.0146375
722.951	0.0147849
723.030	0.0148370
723.108	0.0147854
723.186	0.0149657
723.264	0.0151328
723.342	0.0151261
723.420	0.0152260
723.498	0.0153377
723.576	0.0154436
723.655	0.0152399
723.733	0.0154343
723.811	0.0155322
723.889	0.0153751
723.967	0.0152598
724.045	0.0151644
724.123	0.0149969
724.201	0.0149757
724.280	0.0149049
724.358	0.0149469
724.436	0.0147633
724.514	0.0147111
724.592	0.0146736
724.670	0.0145949
724.748	0.0144725
724.826	0.0146659
724.905	0.0145203
724.983	0.0143863
725.061	0.0143264
725.139	0.0144117
725.217	0.0144079
725.295	0.0141608
725.373	0.0143144
725.451	0.0142476
725.530	0.0143242
725.608	0.0143531
725.686	0.0144371
725.764	0.0146028
725.842	0.0147868
725.920	0.0147569
725.998	0.0148779
726.076	0.0149353
726.155	0.0151002
726.233	0.0150193
726.311	0.0151431
726.389	0.0149587
726.467	0.0150584
726.545	0.0150121
726.623	0.0149732
726.701	0.0148628
726.780	0.0147744
726.858	0.0148449
726.936	0.0147679
727.014	0.0148161
727.092	0.0147799
727.170	0.0147750
727.248	0.0148595
727.326	0.0148415
727.405	0.0149663
727.483	0.0150187
727.561	0.0151640
727.639	0.0152039
727.717	0.0152980
727.795	0.0153604
727.873	0.0156271
727.951	0.0154787
728.030	0.0154201
728.108	0.0155528
728.186	0.0156090
728.264	0.0156255
728.342	0.0154636
728.420	0.0154543
728.498	0.0155237
728.576	0.0154002
728.655	0.0153419
728.733	0.0153239
728.811	0.0152711
728.889	0.0153446
728.967	0.0152112
729.045	0.0151835
729.123	0.0150811
729.201	0.0151287
729.280	0.0150558
729.358	0.0148753
729.436	0.0147553
729.514	0.0147321
729.592	0.0145955
729.670	0.0145635
729.748	0.0144529
729.826	0.0142285
729.905	0.0143530
729.983	0.0142329
730.061	0.0142056
730.139	0.0140162
730.217	0.0140492
730.295	0.0142432
730.373	0.0140978
730.451	0.0143314
730.530	0.0142539
730.608	0.0143535
730.686	0.0145555
730.764	0.0145514
730.842	0.0145784
730.920	0.0146696
730.998	0.0146360
731.076	0.0146878
731.155	0.0147671
731.233	0.0145688
731.311	0.0147241
731.389	0.0146310
731.467	0.0145273
731.545	0.0147161
731.623	0.0146474
731.701	0.0146443
731.780	0.0145117
731.858	0.0147811
731.936	0.0145666
732.014	0.0147131
732.092	0.0148769
732.170	0.0148020
732.248	0.0149706
732.326	0.0151015
732.405	0.0151285
732.483	0.0151968
732.561	0.0153399
732.639	0.0154382
732.717	0.0155981
732.795	0.0153954
732.873	0.0155203
732.951	0.0156959
733.030	0.0155370
733.108	0.0156152
733.186	0.0155730
733.264	0.0155025
733.342	0.0153664
733.420	0.0152832
733.498	0.0151954
733.576	0.0150556
733.655	0.0151263
733.733	0.0148531
733.811	0.0149754
733.889	0.0147766
733.967	0.0146474
734.045	0.0145429
734.123	0.0143535
734.201	0.0146034
734.280	0.0144349
734.358	0.0144406
734.436	0.0143923
734.514	0.0143478
734.592	0.0143885
734.670	0.0145856
734.748	0.0145135
734.826	0.0144519
734.905	0.0146040
734.983	0.0147285
735.061	0.0146249
735.139	0.0146072
735.217	0.0147421
735.295	0.0147008
735.373	0.0146983
735.451	0.0148344
735.530	0.0147852
735.608	0.0148498
735.686	0.0147010
735.764	0.0148222
735.842	0.0148528
735.920	0.0149093
735.998	0.0146542
736.076	0.0148141
736.155	0.0148802
736.233	0.0148923
736.311	0.0148725
736.389	0.0149101
736.467	0.0148870
736.545	0.0149073
736.623	0.0151043
736.701	0.0151147
736.780	0.0151354
736.858	0.0151950
736.936	0.0151347
737.014	0.0152135
737.092	0.0151626
737.170	0.0151064
737.248	0.0151488
737.326	0.0151285
737.405	0.0151035
737.483	0.0151208
737.561	0.0149867
737.639	0.0150757
737.717	0.0152425
737.795	0.0152293
737.873	0.0150476
737.951	0.0150679
738.030	0.0151577
738.108	0.0151151
738.186	0.0151111
738.264	0.0150622
738.342	0.0150967
738.420	0.0150456
738.498	0.0150426
738.576	0.0148351
738.655	0.0148026
738.733	0.0147147
738.811	0.0148717
738.889	0.0146920
738.967	0.0146397
739.045	0.0145682
739.123	0.0145379
739.201	0.0144674
739.280	0.0143937
739.358	0.0143082
739.436	0.0143974
739.514	0.0144159
739.592	0.0144767
739.670	0.0144093
739.748	0.0144689
739.826	0.0145360
739.905	0.0144032
739.983	0.0145324
740.061	0.0146412
740.139	0.0147916
740.217	0.0147121
740.295	0.0147099
740.373	0.0148927
740.451	0.0149393
740.530	0.0148758
740.608	0.0151231
740.686	0.0150358
740.764	0.0151594
740.842	0.0152337
740.920	0.0152062
740.998	0.0151599
741.076	0.0150965
741.155	0.0152690
741.233	0.0151186
741.311	0.0151926
741.389	0.0152952
741.467	0.0152597
741.545	0.0151311
741.623	0.0151237
741.701	0.0149803
741.780	0.0152538
741.858	0.0150938
741.936	0.0150694
742.014	0.0150304
742.092	0.0150636
742.170	0.0150363
742.248	0.0148430
742.326	0.0148387
742.405	0.0149254
742.483	0.0149269
742.561	0.0149410
742.639	0.0150594
742.717	0.0151068
742.795	0.0149535
742.873	0.0150592
742.951	0.0151882
743.030	0.0150389
743.108	0.0152140
743.186	0.0151479
743.264	0.0150243
743.342	0.0150756
743.420	0.0148902
743.498	0.0148034
743.576	0.0148903
743.655	0.0147456
743.733	0.0146632
743.811	0.0146564
743.889	0.0146574
743.967	0.0146406
744.045	0.0146085
744.123	0.0144868
744.201	0.0145235
744.280	0.0146287
744.358	0.0147585
744.436	0.0147091
744.514	0.0147817
744.592	0.0147043
744.670	0.0148630
744.748	0.0149157
744.826	0.0148456
744.905	0.0148871
744.983	0.0148881
745.061	0.0148669
745.139	0.0148660
745.217	0.0149854
745.295	0.0149149
745.373	0.0148910
745.451	0.0148938
745.530	0.0149104
745.608	0.0149381
745.686	0.0150399
745.764	0.0147986
745.842	0.0149042
745.920	0.0148633
745.998	0.0149298
746.076	0.0148220
746.155	0.0149849
746.233	0.0148151
746.311	0.0149549
746.389	0.0149090
746.467	0.0150842
746.545	0.0149891
746.623	0.0150814
746.701	0.0150488
746.780	0.0149783
746.858	0.0151282
746.936	0.0150659
747.014	0.0149038
747.092	0.0149242
747.170	0.0148075
747.248	0.0148845
747.326	0.0147121
747.405	0.0147518
747.483	0.0146335
747.561	0.0146671
747.639	0.0147666
747.717	0.0148074
747.795	0.0148769
747.873	0.0149210
747.951	0.0147489
748.030	0.0148442
748.108	0.0149628
748.186	0.0147144
748.264	0.0150826
748.342	0.0150441
748.420	0.0150111
748.498	0.0150377
748.576	0.0149901
748.655	0.0149531
748.733	0.0150566
748.811	0.0149174
748.889	0.0149596
748.967	0.0148853
749.045	0.0147311
749.123	0.0146823
749.201	0.0144883
749.280	0.0144300
749.358	0.0144950
749.436	0.0142841
749.514	0.0141604
749.592	0.0140685
749.670	0.0140844
749.748	0.0141689
749.826	0.0141702
749.905	0.0140929
749.983	0.0143102
750.061	0.0143098
750.139	0.0145519
750.217	0.0146606
750.295	0.0146564
750.373	0.0146795
750.451	0.0149039
750.530	0.0150700
750.608	0.0150300
750.686	0.0151443
750.764	0.0150718
750.842	0.0152381
750.920	0.0152796
750.998	0.0150125
751.076	0.0150550
751.155	0.0150291
751.233	0.0148785
751.311	0.0148733
751.389	0.0147926
751.467	0.0147932
751.545	0.0147293
751.623	0.0146809
751.701	0.0145883
751.780	0.0146448
751.858	0.0147021
751.936	0.0145129
752.014	0.0146387
752.092	0.0146262
752.170	0.0145947
752.248	0.0146220
752.326	0.0147013
752.405	0.0148789
752.483	0.0149602
752.561	0.0148971
752.639	0.0148403
752.717	0.0150715
752.795	0.0151407
752.873	0.0150695
752.951	0.0148524
753.030	0.0149825
753.108	0.0151536
753.186	0.0149683
753.264	0.0150540
753.342	0.0149480
753.420	0.0148479
753.498	0.0149481
753.576	0.0149003
753.655	0.0149673
753.733	0.0147675
753.811	0.0147829
753.889	0.0147163
753.967	0.0147720
754.045	0.0147361
754.123	0.0147937
754.201	0.0146922
754.280	0.0147491
754.358	0.0145139
754.436	0.0145977
754.514	0.0146688
754.592	0.0147654
754.670	0.0146043
754.748	0.0148058
754.826	0.0146766
754.905	0.0148305
754.983	0.0147263
755.061	0.0147574
755.139	0.0147963
755.217	0.0148455
755.295	0.0148107
755.373	0.0148953
755.451	0.0148972
755.530	0.0147884
755.608	0.0147083
755.686	0.0148940
755.764	0.0147814
755.842	0.0147665
755.920	0.0147495
755.998	0.0146303
756.076	0.0147113
756.155	0.0147549
756.233	0.0146948
756.311	0.0147044
756.389	0.0146658
756.467	0.0146114
756.545	0.0148590
756.623	0.0148354
756.701	0.0146329
756.780	0.0147926
756.858	0.0148228
756.936	0.0148950
757.014	0.0148318
757.092	0.0148705
757.170	0.0148266
757.248	0.0148186
757.326	0.0147393
757.405	0.0147157
757.483	0.0148687
757.561	0.0148940
757.639	0.0149039
757.717	0.0149091
757.795	0.0149546
757.873	0.0148541
757.951	0.0149420
758.030	0.0148505
758.108	0.0149921
758.186	0.0149953
758.264	0.0150137
758.342	0.0149253
758.420	0.0148720
758.498	0.0149753
758.576	0.0150454
758.655	0.0148763
758.733	0.0147131
758.811	0.0149748
758.889	0.0148864
758.967	0.0148118
759.045	0.0148293
759.123	0.0147337
759.201	0.0147670
759.280	0.0148358
759.358	0.0147282
759.436	0.0146587
759.514	0.0145683
759.592	0.0146260
759.670	0.0146194
759.748	0.0148415
759.826	0.0146607
759.905	0.0147830
759.983	0.0147813
760.061	0.0148360
760.139	0.0147694
760.217	0.0148686
760.295	0.0149309
760.373	0.0150927
760.451	0.0149667
760.530	0.0150757
760.608	0.0149899
760.686	0.0150311
760.764	0.0151727
760.842	0.0151189
760.920	0.0151859
760.998	0.0151563
761.076	0.0151516
761.155	0.0152023
761.233	0.0151565
761.311	0.0152132
761.389	0.0152082
761.467	0.0152022
761.545	0.0151698
761.623	0.0151058
761.701	0.0150876
761.780	0.0150260
761.858	0.0149886
761.936	0.0148874
762.014	0.0147117
762.092	0.0146935
762.170	0.0144853
762.248	0.0145700
762.326	0.0145730
762.405	0.0143153
762.483	0.0142648
762.561	0.0142966
762.639	0.0145252
762.717	0.0145654
762.795	0.0144547
762.873	0.0144773
762.951	0.0146208
763.030	0.0148888
763.108	0.0148004
763.186	0.0148651
763.264	0.0148548
763.342	0.0150647
763.420	0.0149918
763.498	0.0149705
763.576	0.0151181
763.655	0.0151171
763.733	0.0151800
763.811	0.0150208
763.889	0.0149248
763.967	0.0149180
764.045	0.0149705
764.123	0.0147784
764.201	0.0146894
764.280	0.0147346
764.358	0.0147846
764.436	0.0147707
764.514	0.0147662
764.592	0.0149000
764.670	0.0149304
764.748	0.0148685
764.826	0.0149477
764.905	0.0148048
764.983	0.0148451
765.061	0.0149957
765.139	0.0149847
765.217	0.0150394
765.295	0.0149393
765.373	0.0149335
765.451	0.0149953
765.530	0.0148962
765.608	0.0147963
765.686	0.0149619
765.764	0.0148477
765.842	0.0147919
765.920	0.0149051
765.998	0.0146906
766.076	0.0148582
766.155	0.0149535
766.233	0.0148986
766.311	0.0147661
766.389	0.0148254
766.467	0.0148566
766.545	0.0148943
766.623	0.0148412
766.701	0.0149319
766.780	0.0150188
766.858	0.0148930
766.936	0.0149014
767.014	0.0150833
767.092	0.0149617
767.170	0.0149447
767.248	0.0149159
767.326	0.0149277
767.405	0.0147759
767.483	0.0148478
767.561	0.0150323
767.639	0.0150549
767.717	0.0149913
767.795	0.0150590
767.873	0.0150236
767.951	0.0149690
768.030	0.0150564
768.108	0.0151522
768.186	0.0151537
768.264	0.0151598
768.342	0.0151613
768.420	0.0150906
768.498	0.0152690
768.576	0.0150504
768.655	0.0150697
768.733	0.0150656
768.811	0.0150251
768.889	0.0151569
768.967	0.0149825
769.045	0.0150842
769.123	0.0148730
769.201	0.0150359
769.280	0.0148518
769.358	0.0147084
769.436	0.0149652
769.514	0.0148433
769.592	0.0148152
769.670	0.0147439
769.748	0.0148970
769.826	0.0146203
769.905	0.0144800
769.983	0.0145650
770.061	0.0145187
770.139	0.0145720
770.217	0.0143621
770.295	0.0146509
770.373	0.0145910
770.451	0.0146683
770.530	0.0145644
770.608	0.0144855
770.686	0.0145957
770.764	0.0146395
770.842	0.0146279
770.920	0.0147192
770.998	0.0148452
771.076	0.0147326
771.155	0.0147225
771.233	0.0147845
771.311	0.0146754
771.389	0.0147858
771.467	0.0147887
771.545	0.0148080
771.623	0.0148849
771.701	0.0148559
771.780	0.0147060
771.858	0.0148256
771.936	0.0146820
772.014	0.0146635
772.092	0.0147684
772.170	0.0147487
772.248	0.0147540
772.326	0.0147199
772.405	0.0147611
772.483	0.0146974
772.561	0.0147719
772.639	0.0149489
772.717	0.0147540
772.795	0.0147074
772.873	0.0147682
772.951	0.0148088
773.030	0.0147863
773.108	0.0147065
773.186	0.0150523
773.264	0.0149101
773.342	0.0149142
773.420	0.0149932
773.498	0.0147450
773.576	0.0148376
773.655	0.0147944
773.733	0.0147429
773.811	0.0148590
773.889	0.0149773
773.967	0.0148659
774.045	0.0149240
774.123	0.0148383
774.201	0.0150098
774.280	0.0149701
774.358	0.0149458
774.436	0.0149545
774.514	0.0148849
774.592	0.0150533
774.670	0.0150066
774.748	0.0149231
774.826	0.0150391
774.905	0.0149416
774.983	0.0149823
775.061	0.0148814
775.139	0.0149332
775.217	0.0149445
775.295	0.0148486
775.373	0.0150207
775.451	0.0149576
775.530	0.0149139
775.608	0.0147935
775.686	0.0149577
775.764	0.0148946
775.842	0.0150243
775.920	0.0151420
775.998	0.0149879
776.076	0.0150097
776.155	0.0150579
776.233	0.0150808
776.311	0.0151430
776.389	0.0150362
776.467	0.0151547
776.545	0.0150996
776.623	0.0150560
776.701	0.0152386
776.780	0.0150610
776.858	0.0149760
776.936	0.0149809
777.014	0.0149110
777.092	0.0148975
777.170	0.0150700
777.248	0.0148919
777.326	0.0149037
777.405	0.0147837
777.483	0.0146837
777.561	0.0147798
777.639	0.0147940
777.717	0.0146686
777.795	0.0146775
777.873	0.0147746
777.951	0.0147730
778.030	0.0146668
778.108	0.0145799
778.186	0.0146012
778.264	0.0146313
778.342	0.0147155
778.420	0.0147048
778.498	0.0147162
778.576	0.0147248
778.655	0.0146735
778.733	0.0148363
778.811	0.0148161
778.889	0.0146053
778.967	0.0146487
779.045	0.0146950
779.123	0.0148138
779.201	0.0145620
779.280	0.0147639
779.358	0.0146431
779.436	0.0144244
779.514	0.0146996
779.592	0.0146580
779.670	0.0144855
779.748	0.0145722
779.826	0.0147486
779.905	0.0146227
779.983	0.0144945
780.061	0.0145408
780.139	0.0145362
780.217	0.0146389
780.295	0.0145561
780.373	0.0146223
780.451	0.0147002
780.530	0.0146226
780.608	0.0146991
780.686	0.0145918
780.764	0.0147710
780.842	0.0148552
780.920	0.0148386
780.998	0.0147276
781.076	0.0147631
781.155	0.0148126
781.233	0.0147745
781.311	0.0149125
781.389	0.0149334
781.467	0.0148665
781.545	0.0149227
781.623	0.0148962
781.701	0.0148223
781.780	0.0148454
781.858	0.0149010
781.936	0.0149233
782.014	0.0148413
782.092	0.0148505
782.170	0.0147928
782.248	0.0149827
782.326	0.0148866
782.405	0.0148725
782.483	0.0148949
782.561	0.0149256
782.639	0.0148618
782.717	0.0149078
782.795	0.0148529
782.873	0.0149918
782.951	0.0149759
783.030	0.0149415
783.108	0.0148299
783.186	0.0148713
783.264	0.0148096
783.342	0.0149370
783.420	0.0148102
783.498	0.0147007
783.576	0.0148145
783.655	0.0147501
783.733	0.0148186
783.811	0.0148589
783.889	0.0147048
783.967	0.0146716
784.045	0.0147174
784.123	0.0147829
784.201	0.0147861
784.280	0.0149332
784.358	0.0149772
784.436	0.0149804
784.514	0.0150504
784.592	0.0150549
784.670	0.0151331
784.748	0.0151263
784.826	0.0153007
784.905	0.0151797
784.983	0.0151168
785.061	0.0150189
785.139	0.0151693
785.217	0.0151193
785.295	0.0150518
785.373	0.0150311
785.451	0.0149590
785.530	0.0148936
785.608	0.0148629
785.686	0.0147586
785.764	0.0147526
785.842	0.0148428
785.920	0.0145628
785.998	0.0146602
786.076	0.0148138
786.155	0.0147165
786.233	0.0147969
786.311	0.0147372
786.389	0.0146576
786.467	0.0145551
786.545	0.0146185
786.623	0.0148123
786.701	0.0146291
786.780	0.0145570
786.858	0.0146627
786.936	0.0146640
787.014	0.0146867
787.092	0.0148145
787.170	0.0147192
787.248	0.0145991
787.326	0.0147544
787.405	0.0145886
787.483	0.0144678
787.561	0.0146005
787.639	0.0145840
787.717	0.0146558
787.795	0.0146339
787.873	0.0147012
787.951	0.0146535
788.030	0.0146114
788.108	0.0146832
788.186	0.0147820
788.264	0.0148949
788.342	0.0149197
788.420	0.0148721
788.498	0.0150188
788.576	0.0150304
788.655	0.0150092
788.733	0.0149915
788.811	0.0148993
788.889	0.0149963
788.967	0.0151154
789.045	0.0150716
789.123	0.0151758
789.201	0.0149886
789.280	0.0151314
789.358	0.0150141
789.436	0.0150099
789.514	0.0150069
789.592	0.0150678
789.670	0.0149744
789.748	0.0147949
789.826	0.0149216
789.905	0.0147753
789.983	0.0148647
790.061	0.0148195
790.139	0.0146363
790.217	0.0146911
790.295	0.0147095
790.373	0.0147209
790.451	0.0147445
790.530	0.0146539
790.608	0.0146109
790.686	0.0146886
790.764	0.0145801
790.842	0.0147179
790.920	0.0147263
790.998	0.0147947
791.076	0.0147632
791.155	0.0147098
791.233	0.0147546
791.311	0.0148226
791.389	0.0148566
791.467	0.0147261
791.545	0.0149144
791.623	0.0148266
791.701	0.0148072
791.780	0.0148450
791.858	0.0148642
791.936	0.0148144
792.014	0.0147597
792.092	0.0147221
792.170	0.0149796
792.248	0.0149844
792.326	0.0148879
792.405	0.0148077
792.483	0.0149754
792.561	0.0150158
792.639	0.0151683
792.717	0.0150115
792.795	0.0150354
792.873	0.0149901
792.951	0.0150623
793.030	0.0150674
793.108	0.0150141
793.186	0.0151234
793.264	0.0150473
793.342	0.0148588
793.420	0.0148785
793.498	0.0149121
793.576	0.0148063
793.655	0.0146300
793.733	0.0145449
793.811	0.0146181
793.889	0.0145215
793.967	0.0143641
794.045	0.0145554
794.123	0.0143626
794.201	0.0145126
794.280	0.0144404
794.358	0.0143787
794.436	0.0144326
794.514	0.0144937
794.592	0.0144483
794.670	0.0145351
794.748	0.0144814
794.826	0.0147137
794.905	0.0145252
794.983	0.0144807
795.061	0.0146865
795.139	0.0147372
795.217	0.0146963
795.295	0.0146542
795.373	0.0147164
795.451	0.0147672
795.530	0.0148338
795.608	0.0148461
795.686	0.0149842
795.764	0.0150506
795.842	0.0150809
795.920	0.0149069
795.998	0.0148609
796.076	0.0149186
796.155	0.0149049
796.233	0.0150764
796.311	0.0151088
796.389	0.0149312
796.467	0.0150234
796.545	0.0151353
796.623	0.0149116
796.701	0.0149440
796.780	0.0151511
796.858	0.0152053
796.936	0.0151520
797.014	0.0151572
797.092	0.0150948
797.170	0.0150871
797.248	0.0151064
797.326	0.0151320
797.405	0.0151903
797.483	0.0151919
797.561	0.0151264
797.639	0.0150158
797.717	0.0149986
797.795	0.0149957
797.873	0.0149556
797.951	0.0150202
798.030	0.0149922
798.108	0.0148089
798.186	0.0149904
798.264	0.0147914
798.342	0.0147317
798.420	0.0147756
798.498	0.0147828
798.576	0.0147335
798.655	0.0147633
798.733	0.0146297
798.811	0.0146813
798.889	0.0146829
798.967	0.0148421
799.045	0.0147954
799.123	0.0147981
799.201	0.0149400
799.280	0.0147372
799.358	0.0147204
799.436	0.0148684
799.514	0.0148895
799.592	0.0148550
799.670	0.0148787
799.748	0.0148895
799.826	0.0150133
799.905	0.0148866
799.983	0.0149695
800.061	0.0148195
800.139	0.0148936
800.217	0.0149883
800.295	0.0150016
800.373	0.0148885
800.451	0.0148389
800.530	0.0150863
800.608	0.0150220
800.686	0.0150519
800.764	0.0149637
800.842	0.0148690
800.920	0.0149069
800.998	0.0151476
801.076	0.0151021
801.155	0.0150854
801.233	0.0151877
801.311	0.0151031
801.389	0.0150888
801.467	0.0150925
801.545	0.0151158
801.623	0.0150967
801.701	0.0150648
801.780	0.0149940
801.858	0.0149148
801.936	0.0147855
802.014	0.0148391
802.092	0.0148544
802.170	0.0149421
802.248	0.0148882
802.326	0.0148741
802.405	0.0147505
802.483	0.0147688
802.561	0.0147990
802.639	0.0148132
802.717	0.0149682
802.795	0.0147821
802.873	0.0148007
802.951	0.0146661
803.030	0.0149278
803.108	0.0148679
803.186	0.0147957
803.264	0.0147908
803.342	0.0147945
803.420	0.0147137
803.498	0.0148141
803.576	0.0148925
803.655	0.0148553
803.733	0.0149446
803.811	0.0148511
803.889	0.0147936
803.967	0.0148912
804.045	0.0149072
804.123	0.0147844
804.201	0.0147678
804.280	0.0148674
804.358	0.0147897
804.436	0.0148744
804.514	0.0148610
804.592	0.0150871
804.670	0.0149553
804.748	0.0147806
804.826	0.0147871
804.905	0.0148228
804.983	0.0147254
805.061	0.0148466
805.139	0.0148287
805.217	0.0147294
805.295	0.0147110
805.373	0.0146996
805.451	0.0147295
805.530	0.0148141
805.608	0.0148197
805.686	0.0148651
805.764	0.0148000
805.842	0.0148672
805.920	0.0147095
805.998	0.0149468
806.076	0.0149400
806.155	0.0149156
806.233	0.0149023
806.311	0.0147818
806.389	0.0150606
806.467	0.0149752
806.545	0.0149368
806.623	0.0149442
806.701	0.0148506
806.780	0.0149086
806.858	0.0149616
806.936	0.0148872
807.014	0.0149001
807.092	0.0148790
807.170	0.0147906
807.248	0.0147158
807.326	0.0147552
807.405	0.0147726
807.483	0.0148692
807.561	0.0148217
807.639	0.0147639
807.717	0.0147340
807.795	0.0147552
807.873	0.0147056
807.951	0.0148138
808.030	0.0147345
808.108	0.0146983
808.186	0.0146910
808.264	0.0147617
808.342	0.0147308
808.420	0.0147179
808.498	0.0147302
808.576	0.0147608
808.655	0.0146910
808.733	0.0147491
808.811	0.0147668
808.889	0.0146064
808.967	0.0146766
809.045	0.0147193
809.123	0.0148207
809.201	0.0147980
809.280	0.0148416
809.358	0.0148961
809.436	0.0147917
809.514	0.0147984
809.592	0.0148262
809.670	0.0147923
809.748	0.0149550
809.826	0.0148042
809.905	0.0147158
809.983	0.0146948
810.061	0.0147643
810.139	0.0148910
810.217	0.0147715
810.295	0.0146032
810.373	0.0147793
810.451	0.0149419
810.530	0.0146825
810.608	0.0146664
810.686	0.0148217
810.764	0.0148244
810.842	0.0148108
810.920	0.0147947
810.998	0.0148499
811.076	0.0147546
811.155	0.0148725
811.233	0.0149300
811.311	0.0150151
811.389	0.0148351
811.467	0.0148226
811.545	0.0149789
811.623	0.0147941
811.701	0.0149083
811.780	0.0148913
811.858	0.0148892
811.936	0.0147869
812.014	0.0149149
812.092	0.0147056
812.170	0.0147822
812.248	0.0148217
812.326	0.0146284
812.405	0.0147171
812.483	0.0147874
812.561	0.0148088
812.639	0.0146545
812.717	0.0146646
812.795	0.0148289
812.873	0.0147012
812.951	0.0147665
813.030	0.0147197
813.108	0.0146619
813.186	0.0147865
813.264	0.0147539
813.342	0.0147319
813.420	0.0146182
813.498	0.0147337
813.576	0.0145520
813.655	0.0146289
813.733	0.0146656
813.811	0.0147482
813.889	0.0146917
813.967	0.0146454
814.045	0.0148405
814.123	0.0147963
814.201	0.0147771
814.280	0.0148568
814.358	0.0149102
814.436	0.0148703
814.514	0.0147515
814.592	0.0148273
814.670	0.0148125
814.748	0.0147733
814.826	0.0148899
814.905	0.0148817
814.983	0.0147067
815.061	0.0148440
815.139	0.0148550
815.217	0.0147331
815.295	0.0147928
815.373	0.0147411
815.451	0.0147778
815.530	0.0147848
815.608	0.0148074
815.686	0.0147636
815.764	0.0148216
815.842	0.0149105
815.920	0.0149222
815.998	0.0147322
816.076	0.0148622
816.155	0.0150239
816.233	0.0150318
816.311	0.0149288
816.389	0.0150419
816.467	0.0150143
816.545	0.0149522
816.623	0.0149586
816.701	0.0148668
816.780	0.0149817
816.858	0.0150401
816.936	0.0149017
817.014	0.0149449
817.092	0.0149169
817.170	0.0148508
817.248	0.0148705
817.326	0.0149313
817.405	0.0148279
817.483	0.0149909
817.561	0.0149228
817.639	0.0149069
817.717	0.0149886
817.795	0.0148213
817.873	0.0149419
817.951	0.0150658
818.030	0.0148810
818.108	0.0149166
818.186	0.0150680
818.264	0.0149671
818.342	0.0151396
818.420	0.0149735
818.498	0.0150124
818.576	0.0149477
818.655	0.0148463
818.733	0.0149548
818.811	0.0150616
818.889	0.0151017
818.967	0.0151463
819.045	0.0150014
819.123	0.0150218
819.201	0.0149895
819.280	0.0151853
819.358	0.0151002
819.436	0.0150240
819.514	0.0150293
819.592	0.0151048
819.670	0.0151579
819.748	0.0151877
819.826	0.0150062
819.905	0.0148650
819.983	0.0150541
820.061	0.0149460
820.139	0.0149202
820.217	0.0148815
820.295	0.0149288
820.373	0.0149728
820.451	0.0149431
820.530	0.0149564
820.608	0.0149136
820.686	0.0148229
820.764	0.0149714
820.842	0.0150249
820.920	0.0149343
820.998	0.0149349
821.076	0.0149429
821.155	0.0150484
821.233	0.0150072
821.311	0.0149919
821.389	0.0150118
821.467	0.0149557
821.545	0.0149149
821.623	0.0149424
821.701	0.0148674
821.780	0.0150025
821.858	0.0147855
821.936	0.0147422
822.014	0.0149664
822.092	0.0149139
822.170	0.0149419
822.248	0.0148950
822.326	0.0150283
822.405	0.0148767
822.483	0.0149261
822.561	0.0148244
822.639	0.0147704
822.717	0.0150378
822.795	0.0149900
822.873	0.0150298
822.951	0.0150170
823.030	0.0148999
823.108	0.0149386
823.186	0.0148142
823.264	0.0147993
823.342	0.0147644
823.420	0.0147768
823.498	0.0149790
823.576	0.0147847
823.655	0.0148238
823.733	0.0149335
823.811	0.0148569
823.889	0.0148240
823.967	0.0148682
824.045	0.0149306
824.123	0.0149820
824.201	0.0149902
824.280	0.0148984
824.358	0.0150018
824.436	0.0147498
824.514	0.0147578
824.592	0.0148853
824.670	0.0149874
824.748	0.0148607
824.826	0.0148204
824.905	0.0147586
824.983	0.0147906
825.061	0.0148543
825.139	0.0147473
825.217	0.0148832
825.295	0.0148172
825.373	0.0147276
825.451	0.0148222
825.530	0.0149564
825.608	0.0147115
825.686	0.0146733
825.764	0.0147531
825.842	0.0145614
825.920	0.0147330
825.998	0.0147534
826.076	0.0147595
826.155	0.0147336
826.233	0.0148000
826.311	0.0149358
826.389	0.0148615
826.467	0.0148035
826.545	0.0148272
826.623	0.0147716
826.701	0.0148363
826.780	0.0149016
826.858	0.0148428
826.936	0.0148073
827.014	0.0148569
827.092	0.0148434
827.170	0.0148409
827.248	0.0146906
827.326	0.0148392
827.405	0.0148828
827.483	0.0146855
827.561	0.0148841
827.639	0.0148523
827.717	0.0147723
827.795	0.0146891
827.873	0.0147034
827.951	0.0147912
828.030	0.0147607
828.108	0.0147468
828.186	0.0147594
828.264	0.0147233
828.342	0.0145819
828.420	0.0146384
828.498	0.0147600
828.576	0.0147506
828.655	0.0146664
828.733	0.0147668
828.811	0.0147692
828.889	0.0146700
828.967	0.0148624
829.045	0.0147758
829.123	0.0149578
829.201	0.0149527
829.280	0.0149265
829.358	0.0151615
829.436	0.0148579
829.514	0.0150141
829.592	0.0149026
829.670	0.0151095
829.748	0.0150280
829.826	0.0150507
829.905	0.0150800
829.983	0.0151079
830.061	0.0149632
830.139	0.0150089
830.217	0.0149660
830.295	0.0149609
830.373	0.0149780
830.451	0.0149998
830.530	0.0149171
830.608	0.0149666
830.686	0.0149406
830.764	0.0149500
830.842	0.0148773
830.920	0.0149118
830.998	0.0148200
831.076	0.0148120
831.155	0.0149998
831.233	0.0149083
831.311	0.0149798
831.389	0.0148456
831.467	0.0150341
831.545	0.0147958
831.623	0.0149263
831.701	0.0147722
831.780	0.0148436
831.858	0.0147383
831.936	0.0149315
832.014	0.0148486
832.092	0.0148317
832.170	0.0147658
832.248	0.0149378
832.326	0.0148298
832.405	0.0148599
832.483	0.0148827
832.561	0.0148270
832.639	0.0148066
832.717	0.0148201
832.795	0.0147900
832.873	0.0147831
832.951	0.0148132
833.030	0.0146722
833.108	0.0147945
833.186	0.0147575
833.264	0.0146606
833.342	0.0147247
833.420	0.0147826
833.498	0.0148979
833.576	0.0148035
833.655	0.0148980
833.733	0.0148479
833.811	0.0147072
833.889	0.0146960
833.967	0.0146919
834.045	0.0147155
834.123	0.0147765
834.201	0.0147878
834.280	0.0147411
834.358	0.0149203
834.436	0.0149035
834.514	0.0147915
834.592	0.0148763
834.670	0.0147999
834.748	0.0147776
834.826	0.0148016
834.905	0.0149232
834.983	0.0148672
835.061	0.0148650
835.139	0.0148388
835.217	0.0149171
835.295	0.0148130
835.373	0.0149023
835.451	0.0148563
835.530	0.0148479
835.608	0.0147741
835.686	0.0148248
835.764	0.0147659
835.842	0.0147549
835.920	0.0148165
835.998	0.0147572
836.076	0.0147421
836.155	0.0146645
836.233	0.0147967
836.311	0.0148602
836.389	0.0148222
836.467	0.0148059
836.545	0.0147008
836.623	0.0148548
836.701	0.0147808
836.780	0.0148180
836.858	0.0148727
836.936	0.0148477
837.014	0.0147773
837.092	0.0147258
837.170	0.0148544
837.248	0.0150568
837.326	0.0150233
837.405	0.0150028
837.483	0.0150515
837.561	0.0150902
837.639	0.0150074
837.717	0.0149841
837.795	0.0149545
837.873	0.0151354
837.951	0.0151124
838.030	0.0149559
838.108	0.0151305
838.186	0.0150870
838.264	0.0150494
838.342	0.0151139
838.420	0.0150287
838.498	0.0152775
838.576	0.0149963
838.655	0.0149370
838.733	0.0150085
838.811	0.0150168
838.889	0.0150748
838.967	0.0150668
839.045	0.0150558
839.123	0.0150859
839.201	0.0150097
839.280	0.0150168
839.358	0.0149651
839.436	0.0149906
839.514	0.0150517
839.592	0.0149745
839.670	0.0148690
839.748	0.0150368
839.826	0.0149628
839.905	0.0149115
839.983	0.0148928
840.061	0.0149589
840.139	0.0149857
840.217	0.0148586
840.295	0.0147762
840.373	0.0148074
840.451	0.0147983
840.530	0.0149341
840.608	0.0149062
840.686	0.0148476
840.764	0.0148071
840.842	0.0148302
840.920	0.0148599
840.998	0.0147771
841.076	0.0148402
841.155	0.0148778
841.233	0.0148586
841.311	0.0148446
841.389	0.0147379
841.467	0.0147416
841.545	0.0148458
841.623	0.0146927
841.701	0.0148051
841.780	0.0148383
841.858	0.0149532
841.936	0.0147839
842.014	0.0148345
842.092	0.0148684
842.170	0.0149335
842.248	0.0149101
842.326	0.0149786
842.405	0.0147951
842.483	0.0149357
842.561	0.0150047
842.639	0.0148018
842.717	0.0148739
842.795	0.0149960
842.873	0.0149332
842.951	0.0148220
843.030	0.0148734
843.108	0.0149088
843.186	0.0149052
843.264	0.0147660
843.342	0.0150275
843.420	0.0149616
843.498	0.0149432
843.576	0.0149369
843.655	0.0149557
843.733	0.0149780
843.811	0.0148512
843.889	0.0150468
843.967	0.0149076
844.045	0.0150060
844.123	0.0150172
844.201	0.0149260
844.280	0.0149539
844.358	0.0150041
844.436	0.0149495
844.514	0.0149503
844.592	0.0150346
844.670	0.0149054
844.748	0.0149192
844.826	0.0150790
844.905	0.0148977
844.983	0.0148661
845.061	0.0149920
845.139	0.0149777
845.217	0.0149329
845.295	0.0150146
845.373	0.0150368
845.451	0.0148765
845.530	0.0149187
845.608	0.0148970
845.686	0.0149251
845.764	0.0149079
845.842	0.0148299
845.920	0.0149042
845.998	0.0148425
846.076	0.0148932
846.155	0.0148518
846.233	0.0149476
846.311	0.0148728
846.389	0.0149313
846.467	0.0148967
846.545	0.0147130
846.623	0.0148156
846.701	0.0147586
846.780	0.0148282
846.858	0.0148774
846.936	0.0147167
847.014	0.0148698
847.092	0.0148299
847.170	0.0148360
847.248	0.0147552
847.326	0.0147910
847.405	0.0148041
847.483	0.0147038
847.561	0.0146749
847.639	0.0148508
847.717	0.0147942
847.795	0.0145993
847.873	0.0148158
847.951	0.0147975
848.030	0.0149200
848.108	0.0148138
848.186	0.0148283
848.264	0.0148809
848.342	0.0147546
848.420	0.0147224
848.498	0.0146492
848.576	0.0149100
848.655	0.0147347
848.733	0.0146882
848.811	0.0147838
848.889	0.0147145
848.967	0.0148624
849.045	0.0148195
849.123	0.0148351
849.201	0.0147188
849.280	0.0147717
849.358	0.0147256
849.436	0.0147864
849.514	0.0148079
849.592	0.0147987
849.670	0.0147846
849.748	0.0148431
849.826	0.0147426
849.905	0.0148383
849.983	0.0149112
850.061	0.0148426
850.139	0.0147995
850.217	0.0147337
850.295	0.0149199
850.373	0.0148659
850.451	0.0147269
850.530	0.0147829
850.608	0.0146765
850.686	0.0147720
850.764	0.0148920
850.842	0.0146985
850.920	0.0147999
850.998	0.0148063
851.076	0.0145836
851.155	0.0146843
851.233	0.0147374
851.311	0.0147353
851.389	0.0146480
851.467	0.0147162
851.545	0.0148957
851.623	0.0147360
851.701	0.0146741
851.780	0.0147343
851.858	0.0148806
851.936	0.0148274
852.014	0.0147599
852.092	0.0148843
852.170	0.0149470
852.248	0.0149356
852.326	0.0148688
852.405	0.0148019
852.483	0.0147860
852.561	0.0148692
852.639	0.0149728
852.717	0.0149009
852.795	0.0148434
852.873	0.0149290
852.951	0.0147645
853.030	0.0150089
853.108	0.0149310
853.186	0.0147649
853.264	0.0147357
853.342	0.0148670
853.420	0.0148563
853.498	0.0148116
853.576	0.0148555
853.655	0.0149803
853.733	0.0148211
853.811	0.0147229
853.889	0.0148545
853.967	0.0148450
854.045	0.0148833
854.123	0.0148832
854.201	0.0148436
854.280	0.0149436
854.358	0.0149351
854.436	0.0149453
854.514	0.0148051
854.592	0.0148801
854.670	0.0147221
854.748	0.0148181
854.826	0.0148943
854.905	0.0147675
854.983	0.0149054
855.061	0.0149798
855.139	0.0148240
855.217	0.0147109
855.295	0.0148021
855.373	0.0147289
855.451	0.0146809
855.530	0.0145833
855.608	0.0146106
855.686	0.0145330
855.764	0.0145663
855.842	0.0146215
855.920	0.0146414
855.998	0.0145499
856.076	0.0145010
856.155	0.0145124
856.233	0.0146483
856.311	0.0148540
856.389	0.0146794
856.467	0.0146027
856.545	0.0145526
856.623	0.0147411
856.701	0.0147343
856.780	0.0146196
856.858	0.0147587
856.936	0.0148610
857.014	0.0145954
857.092	0.0146965
857.170	0.0147457
857.248	0.0147660
857.326	0.0147823
857.405	0.0148606
857.483	0.0147739
857.561	0.0147887
857.639	0.0148056
857.717	0.0146812
857.795	0.0146880
857.873	0.0146601
857.951	0.0147153
858.030	0.0146573
858.108	0.0146847
858.186	0.0147847
858.264	0.0148605
858.342	0.0148142
858.420	0.0147498
858.498	0.0147111
858.576	0.0149638
858.655	0.0148476
858.733	0.0148378
858.811	0.0146535
858.889	0.0148052
858.967	0.0149260
859.045	0.0149512
859.123	0.0148972
859.201	0.0148732
859.280	0.0149974
859.358	0.0149037
859.436	0.0148524
859.514	0.0149167
859.592	0.0150031
859.670	0.0147958
859.748	0.0148870
859.826	0.0146869
859.905	0.0147620
859.983	0.0149444
860.061	0.0149220
860.139	0.0147804
860.217	0.0149474
860.295	0.0147895
860.373	0.0147410
860.451	0.0148881
860.530	0.0149829
860.608	0.0149123
860.686	0.0148849
860.764	0.0147211
860.842	0.0149822
860.920	0.0150137
860.998	0.0149644
861.076	0.0149258
861.155	0.0150300
861.233	0.0148888
861.311	0.0150352
861.389	0.0149931
861.467	0.0149342
861.545	0.0149628
861.623	0.0149645
861.701	0.0150529
861.780	0.0148834
861.858	0.0149738
861.936	0.0149786
862.014	0.0149038
862.092	0.0149206
862.170	0.0151498
862.248	0.0150385
862.326	0.0149849
862.405	0.0149191
862.483	0.0148991
862.561	0.0148750
862.639	0.0148719
862.717	0.0149766
862.795	0.0149165
862.873	0.0148392
862.951	0.0148856
863.030	0.0148729
863.108	0.0149632
863.186	0.0148399
863.264	0.0149014
863.342	0.0148286
863.420	0.0149256
863.498	0.0149835
863.576	0.0149885
863.655	0.0149439
863.733	0.0148964
863.811	0.0149670
863.889	0.0149339
863.967	0.0148769
864.045	0.0149369
864.123	0.0150262
864.201	0.0147952
864.280	0.0150407
864.358	0.0150394
864.436	0.0150233
864.514	0.0149760
864.592	0.0148087
864.670	0.0148308
864.748	0.0150088
864.826	0.0150050
864.905	0.0151372
864.983	0.0148876
865.061	0.0151339
865.139	0.0150583
865.217	0.0150593
865.295	0.0149635
865.373	0.0148946
865.451	0.0150138
865.530	0.0148734
865.608	0.0149174
865.686	0.0149484
865.764	0.0148885
865.842	0.0149920
865.920	0.0150188
865.998	0.0150068
866.076	0.0149759
866.155	0.0149392
866.233	0.0148712
866.311	0.0150563
866.389	0.0150604
866.467	0.0150217
866.545	0.0149900
866.623	0.0149118
866.701	0.0149259
866.780	0.0150794
866.858	0.0150967
866.936	0.0149932
867.014	0.0149350
867.092	0.0149361
867.170	0.0150420
867.248	0.0150371
867.326	0.0150724
867.405	0.0150356
867.483	0.0149382
867.561	0.0148320
867.639	0.0148902
867.717	0.0149409
867.795	0.0149414
867.873	0.0149518
867.951	0.0148006
868.030	0.0148618
868.108	0.0148186
868.186	0.0147903
868.264	0.0147015
868.342	0.0148082
868.420	0.0148115
868.498	0.0148723
868.576	0.0146390
868.655	0.0147390
868.733	0.0148206
868.811	0.0147256
868.889	0.0148151
868.967	0.0147110
869.045	0.0146780
869.123	0.0147316
869.201	0.0148091
869.280	0.0148338
869.358	0.0146613
869.436	0.0147065
869.514	0.0147079
869.592	0.0147694
869.670	0.0147592
869.748	0.0147802
869.826	0.0147021
869.905	0.0146568
869.983	0.0146848
870.061	0.0146904
870.139	0.0147820
870.217	0.0148042
870.295	0.0146291
870.373	0.0146417
870.451	0.0146365
870.530	0.0147218
870.608	0.0146931
870.686	0.0146632
870.764	0.0147336
870.842	0.0147188
870.920	0.0146741
870.998	0.0147071
871.076	0.0148129
871.155	0.0148170
871.233	0.0149644
871.311	0.0148632
871.389	0.0148647
871.467	0.0147487
871.545	0.0149487
871.623	0.0148911
871.701	0.0147942
871.780	0.0147827
871.858	0.0147973
871.936	0.0147910
872.014	0.0147417
872.092	0.0147850
872.170	0.0148219
872.248	0.0146835
872.326	0.0147031
872.405	0.0147285
872.483	0.0147321
872.561	0.0148293
872.639	0.0148565
872.717	0.0148531
872.795	0.0147531
872.873	0.0145226
872.951	0.0147668
873.030	0.0148865
873.108	0.0147781
873.186	0.0147124
873.264	0.0146726
873.342	0.0147632
873.420	0.0148339
873.498	0.0148108
873.576	0.0147661
873.655	0.0149165
873.733	0.0147505
873.811	0.0148732
873.889	0.0148556
873.967	0.0147799
874.045	0.0147937
874.123	0.0147900
874.201	0.0147936
874.280	0.0148685
874.358	0.0149221
874.436	0.0148947
874.514	0.0148770
874.592	0.0149909
874.670	0.0150542
874.748	0.0149148
874.826	0.0148016
874.905	0.0148135
874.983	0.0148880
875.061	0.0149015
875.139	0.0149183
875.217	0.0148964
875.295	0.0147327
875.373	0.0148991
875.451	0.0149258
875.530	0.0149089
875.608	0.0147882
875.686	0.0149641
875.764	0.0149083
875.842	0.0149958
875.920	0.0149423
875.998	0.0149735
876.076	0.0149953
876.155	0.0151231
876.233	0.0150161
876.311	0.0149221
876.389	0.0148671
876.467	0.0149660
876.545	0.0148790
876.623	0.0149209
876.701	0.0148431
876.780	0.0148076
876.858	0.0149018
876.936	0.0148391
877.014	0.0148321
877.092	0.0148045
877.170	0.0147118
877.248	0.0149323
877.326	0.0147907
877.405	0.0150486
877.483	0.0148032
877.561	0.0148560
877.639	0.0148945
877.717	0.0147118
877.795	0.0147271
877.873	0.0147817
877.951	0.0147896
878.030	0.0147678
878.108	0.0146040
878.186	0.0147328
878.264	0.0147294
878.342	0.0146630
878.420	0.0146793
878.498	0.0145047
878.576	0.0147458
878.655	0.0147733
878.733	0.0147294
878.811	0.0147507
878.889	0.0146970
878.967	0.0147551
879.045	0.0146654
879.123	0.0147451
879.201	0.0148508
879.280	0.0147922
879.358	0.0148263
879.436	0.0148453
879.514	0.0148583
879.592	0.0147572
879.670	0.0146772
879.748	0.0148344
879.826	0.0149278
879.905	0.0149401
879.983	0.0147881
880.061	0.0148339
880.139	0.0149412
880.217	0.0149863
880.295	0.0148131
880.373	0.0147375
880.451	0.0149313
880.530	0.0147651
880.608	0.0146903
880.686	0.0147925
880.764	0.0148928
880.842	0.0147932
880.920	0.0147169
880.998	0.0147781
881.076	0.0147449
881.155	0.0149941
881.233	0.0149213
881.311	0.0146980
881.389	0.0146805
881.467	0.0147115
881.545	0.0146872
881.623	0.0146333
881.701	0.0147935
881.780	0.0147955
881.858	0.0147320
881.936	0.0148087
882.014	0.0146655
882.092	0.0147876
882.170	0.0147667
882.248	0.0148399
882.326	0.0149762
882.405	0.0149615
882.483	0.0149399
882.561	0.0149123
882.639	0.0148889
882.717	0.0148872
882.795	0.0149335
882.873	0.0149891
882.951	0.0149976
883.030	0.0149484
883.108	0.0149728
883.186	0.0149487
883.264	0.0149182
883.342	0.0147384
883.420	0.0149382
883.498	0.0149814
883.576	0.0149213
883.655	0.0149564
883.733	0.0148526
883.811	0.0150027
883.889	0.0150658
883.967	0.0149487
884.045	0.0150320
884.123	0.0150255
884.201	0.0150088
884.280	0.0148857
884.358	0.0149886
884.436	0.0149195
884.514	0.0148368
884.592	0.0148093
884.670	0.0149804
884.748	0.0148592
884.826	0.0147773
884.905	0.0148492
884.983	0.0148268
885.061	0.0148435
885.139	0.0147803
885.217	0.0147884
885.295	0.0149743
885.373	0.0149771
885.451	0.0147925
885.530	0.0149216
885.608	0.0150697
885.686	0.0150542
885.764	0.0151151
885.842	0.0151498
885.920	0.0151092
885.998	0.0150419
886.076	0.0151804
886.155	0.0150762
886.233	0.0150553
886.311	0.0150272
886.389	0.0150131
886.467	0.0150258
886.545	0.0150443
886.623	0.0150357
886.701	0.0148847
886.780	0.0148621
886.858	0.0148119
886.936	0.0148543
887.014	0.0148634
887.092	0.0149352
887.170	0.0148735
887.248	0.0149117
887.326	0.0149105
887.405	0.0149229
887.483	0.0150016
887.561	0.0149973
887.639	0.0151048
887.717	0.0150623
887.795	0.0150227
887.873	0.0151256
887.951	0.0149693
888.030	0.0150638
888.108	0.0148789
888.186	0.0150092
888.264	0.0150135
888.342	0.0149071
888.420	0.0149937
888.498	0.0148541
888.576	0.0147615
888.655	0.0148775
888.733	0.0148405
888.811	0.0149147
888.889	0.0149356
888.967	0.0147519
889.045	0.0149583
889.123	0.0149872
889.201	0.0148702
889.280	0.0148650
889.358	0.0149325
889.436	0.0148686
889.514	0.0149372
889.592	0.0149277
889.670	0.0148881
889.748	0.0148780
889.826	0.0148926
889.905	0.0150436
889.983	0.0148610
890.061	0.0147749
890.139	0.0149609
890.217	0.0150387
890.295	0.0149851
890.373	0.0150369
890.451	0.0150471
890.530	0.0149849
890.608	0.0151083
890.686	0.0151018
890.764	0.0150902
890.842	0.0150548
890.920	0.0150240
890.998	0.0151141
891.076	0.0150733
891.155	0.0151414
891.233	0.0149784
891.311	0.0149487
891.389	0.0148914
891.467	0.0149118
891.545	0.0148846
891.623	0.0149497
891.701	0.0148428
891.780	0.0149635
891.858	0.0146855
891.936	0.0146953
892.014	0.0149615
892.092	0.0147945
892.170	0.0146838
892.248	0.0147539
892.326	0.0147211
892.405	0.0148360
892.483	0.0148601
892.561	0.0147807
892.639	0.0147466
892.717	0.0148118
892.795	0.0147849
892.873	0.0148371
892.951	0.0150293
893.030	0.0148644
893.108	0.0147968
893.186	0.0149318
893.264	0.0149397
893.342	0.0146776
893.420	0.0147359
893.498	0.0147852
893.576	0.0146500
893.655	0.0145133
893.733	0.0147796
893.811	0.0148093
893.889	0.0147540
893.967	0.0147987
894.045	0.0148062
894.123	0.0148173
894.201	0.0147867
894.280	0.0147867
894.358	0.0148062
894.436	0.0147860
894.514	0.0148201
894.592	0.0147598
894.670	0.0147250
894.748	0.0148041
894.826	0.0149412
894.905	0.0149760
894.983	0.0148122
895.061	0.0148955
895.139	0.0148330
895.217	0.0147839
895.295	0.0148833
895.373	0.0149783
895.451	0.0148116
895.530	0.0148112
895.608	0.0149947
895.686	0.0150243
895.764	0.0149737
895.842	0.0149397
895.920	0.0148911
895.998	0.0149091
896.076	0.0148125
896.155	0.0149209
896.233	0.0149500
896.311	0.0148777
896.389	0.0148758
896.467	0.0150595
896.545	0.0150556
896.623	0.0150142
896.701	0.0151474
896.780	0.0150461
896.858	0.0149014
896.936	0.0150778
897.014	0.0150981
897.092	0.0150431
897.170	0.0151303
897.248	0.0149315
897.326	0.0148547
897.405	0.0149445
897.483	0.0150089
897.561	0.0149708
897.639	0.0148608
897.717	0.0147696
897.795	0.0147701
897.873	0.0148120
897.951	0.0149915
898.030	0.0148318
898.108	0.0148230
898.186	0.0149426
898.264	0.0148375
898.342	0.0150076
898.420	0.0149715
898.498	0.0149087
898.576	0.0148708
898.655	0.0148688
898.733	0.0149186
898.811	0.0150779
898.889	0.0150726
898.967	0.0150717
899.045	0.0150096
899.123	0.0150670
899.201	0.0151427
899.280	0.0150694
899.358	0.0149524
899.436	0.0150893
899.514	0.0149802
899.592	0.0149364
899.670	0.0148518
899.748	0.0149238
899.826	0.0147649
899.905	0.0146301
899.983	0.0148109
900.061	0.0148524
900.139	0.0147262
900.217	0.0148650
900.295	0.0148499
900.373	0.0148337
900.451	0.0147827
900.530	0.0148154
900.608	0.0148857
900.686	0.0149077
900.764	0.0148504
900.842	0.0148679
900.920	0.0148502
900.998	0.0147881
901.076	0.0148146
901.155	0.0149173
901.233	0.0148550
901.311	0.0147952
901.389	0.0149658
901.467	0.0149728
901.545	0.0149346
901.623	0.0149624
901.701	0.0148348
901.780	0.0148205
901.858	0.0147764
901.936	0.0149589
902.014	0.0147764
902.092	0.0146861
902.170	0.0146690
902.248	0.0147682
902.326	0.0147513
902.405	0.0148100
902.483	0.0147130
902.561	0.0147179
902.639	0.0147263
902.717	0.0147433
902.795	0.0148199
902.873	0.0146447
902.951	0.0148171
903.030	0.0149339
903.108	0.0149534
903.186	0.0149416
903.264	0.0148040
903.342	0.0148714
903.420	0.0148238
903.498	0.0148032
903.576	0.0149249
903.655	0.0148793
903.733	0.0148197
903.811	0.0148396
903.889	0.0147847
903.967	0.0149057
904.045	0.0149519
904.123	0.0149261
904.201	0.0148605
904.280	0.0148457
904.358	0.0147792
904.436	0.0148713
904.514	0.0149036
904.592	0.0149033
904.670	0.0148409
904.748	0.0148766
904.826	0.0148420
904.905	0.0149976
904.983	0.0149610
905.061	0.0148937
905.139	0.0149335
905.217	0.0149911
905.295	0.0150065
905.373	0.0149214
905.451	0.0148891
905.530	0.0148663
905.608	0.0149648
905.686	0.0148323
905.764	0.0147704
905.842	0.0147232
905.920	0.0147394
905.998	0.0146947
906.076	0.0145840
906.155	0.0147318
906.233	0.0147518
906.311	0.0145463
906.389	0.0146405
906.467	0.0146378
906.545	0.0147697
906.623	0.0147224
906.701	0.0146483
906.780	0.0147047
906.858	0.0147583
906.936	0.0148209
907.014	0.0146592
907.092	0.0146315
907.170	0.0146947
907.248	0.0146467
907.326	0.0147321
907.405	0.0148301
907.483	0.0147906
907.561	0.0146737
907.639	0.0146922
907.717	0.0147151
907.795	0.0147632
907.873	0.0147070
907.951	0.0147416
908.030	0.0147115
908.108	0.0147331
908.186	0.0146600
908.264	0.0147440
908.342	0.0147485
908.420	0.0147811
908.498	0.0145790
908.576	0.0148502
908.655	0.0148091
908.733	0.0147601
908.811	0.0148138
908.889	0.0149018
908.967	0.0149014
909.045	0.0149469
909.123	0.0147887
909.201	0.0147872
909.280	0.0149048
909.358	0.0150215
909.436	0.0148611
909.514	0.0149214
909.592	0.0149039
909.670	0.0149431
909.748	0.0150037
909.826	0.0147847
909.905	0.0147126
909.983	0.0148707
910.061	0.0148479
910.139	0.0147939
910.217	0.0147432
910.295	0.0148214
910.373	0.0147676
910.451	0.0146356
910.530	0.0147389
910.608	0.0147787
910.686	0.0147235
910.764	0.0147928
910.842	0.0147586
910.920	0.0147354
910.998	0.0148026
911.076	0.0149362
911.155	0.0149319
911.233	0.0147812
911.311	0.0149767
911.389	0.0148064
911.467	0.0147198
911.545	0.0148261
911.623	0.0149166
911.701	0.0148850
911.780	0.0148588
911.858	0.0150035
911.936	0.0149691
912.014	0.0149633
912.092	0.0149681
912.170	0.0149120
912.248	0.0148633
912.326	0.0148399
912.405	0.0149009
912.483	0.0148385
912.561	0.0148435
912.639	0.0149213
912.717	0.0148092
912.795	0.0148026
912.873	0.0148557
912.951	0.0148559
913.030	0.0149841
913.108	0.0148494
913.186	0.0148335
913.264	0.0148280
913.342	0.0148987
913.420	0.0148554
913.498	0.0149709
913.576	0.0150037
913.655	0.0150637
913.733	0.0149059
913.811	0.0150375
913.889	0.0149911
913.967	0.0150090
914.045	0.0150579
914.123	0.0150403
914.201	0.0149230
914.280	0.0150031
914.358	0.0150092
914.436	0.0149369
914.514	0.0149573
914.592	0.0149512
914.670	0.0149485
914.748	0.0149442
914.826	0.0149535
914.905	0.0149804
914.983	0.0149825
915.061	0.0149651
915.139	0.0149857
915.217	0.0149512
915.295	0.0148653
915.373	0.0148240
915.451	0.0149081
915.530	0.0150033
915.608	0.0148294
915.686	0.0149399
915.764	0.0147872
915.842	0.0147525
915.920	0.0148541
915.998	0.0148724
916.076	0.0148685
916.155	0.0148109
916.233	0.0149294
916.311	0.0148895
916.389	0.0148923
916.467	0.0148872
916.545	0.0148122
916.623	0.0147280
916.701	0.0148901
916.780	0.0148927
916.858	0.0149170
916.936	0.0149853
917.014	0.0148724
917.092	0.0148923
917.170	0.0148952
917.248	0.0149127
917.326	0.0148284
917.405	0.0149158
917.483	0.0147773
917.561	0.0148642
917.639	0.0148212
917.717	0.0148837
917.795	0.0148331
917.873	0.0150045
917.951	0.0148327
918.030	0.0147638
918.108	0.0148328
918.186	0.0150077
918.264	0.0148814
918.342	0.0148717
918.420	0.0148830
918.498	0.0149130
918.576	0.0148332
918.655	0.0148508
918.733	0.0147488
918.811	0.0148019
918.889	0.0148191
918.967	0.0149644
919.045	0.0148131
919.123	0.0147910
919.201	0.0148444
919.280	0.0149501
919.358	0.0148439
919.436	0.0147623
919.514	0.0149029
919.592	0.0147897
919.670	0.0148820
919.748	0.0148182
919.826	0.0150375
919.905	0.0148722
919.983	0.0148965
920.061	0.0150285
920.139	0.0147720
920.217	0.0149418
920.295	0.0151029
920.373	0.0150243
920.451	0.0148936
920.530	0.0148602
920.608	0.0149482
920.686	0.0150526
920.764	0.0149440
920.842	0.0150611
920.920	0.0148696
920.998	0.0148477
921.076	0.0149259
921.155	0.0149683
921.233	0.0149029
921.311	0.0147969
921.389	0.0150039
921.467	0.0150001
921.545	0.0148611
921.623	0.0149398
921.701	0.0148706
921.780	0.0149951
921.858	0.0148140
921.936	0.0148621
922.014	0.0149720
922.092	0.0148888
922.170	0.0149051
922.248	0.0148909
922.326	0.0149734
922.405	0.0149636
922.483	0.0148747
922.561	0.0149451
922.639	0.0149960
922.717	0.0148405
922.795	0.0148387
922.873	0.0149167
922.951	0.0148299
923.030	0.0147187
923.108	0.0150126
923.186	0.0148727
923.264	0.0148704
923.342	0.0149165
923.420	0.0150259
923.498	0.0149148
923.576	0.0149757
923.655	0.0147495
923.733	0.0147914
923.811	0.0148291
923.889	0.0149620
923.967	0.0148653
924.045	0.0148636
924.123	0.0148610
924.201	0.0148270
924.280	0.0149098
924.358	0.0148338
924.436	0.0147913
924.514	0.0148977
924.592	0.0149303
924.670	0.0149129
924.748	0.0148412
924.826	0.0148261
924.905	0.0149414
924.983	0.0148161
925.061	0.0148123
925.139	0.0148352
925.217	0.0148392
925.295	0.0148270
925.373	0.0147838
925.451	0.0148377
925.530	0.0148695
925.608	0.0148598
925.686	0.0147366
925.764	0.0148026
925.842	0.0148019
925.920	0.0147830
925.998	0.0147850
926.076	0.0149217
926.155	0.0148486
926.233	0.0147945
926.311	0.0149093
926.389	0.0148197
926.467	0.0148498
926.545	0.0149807
926.623	0.0148690
926.701	0.0149418
926.780	0.0148538
926.858	0.0147555
926.936	0.0148481
927.014	0.0147763
927.092	0.0148238
927.170	0.0148593
927.248	0.0147315
927.326	0.0148849
927.405	0.0148396
927.483	0.0148994
927.561	0.0150448
927.639	0.0148632
927.717	0.0148934
927.795	0.0148920
927.873	0.0150318
927.951	0.0147884
928.030	0.0149657
928.108	0.0150768
928.186	0.0149324
928.264	0.0148399
928.342	0.0148724
928.420	0.0149206
928.498	0.0150727
928.576	0.0151228
928.655	0.0149263
928.733	0.0149239
928.811	0.0147918
928.889	0.0147719
928.967	0.0147604
929.045	0.0149592
929.123	0.0149783
929.201	0.0148493
929.280	0.0148579
929.358	0.0149663
929.436	0.0148384
929.514	0.0149013
929.592	0.0147757
929.670	0.0149700
929.748	0.0149859
929.826	0.0148414
929.905	0.0149418
929.983	0.0149697
930.061	0.0149203
930.139	0.0148933
930.217	0.0149442
930.295	0.0149126
930.373	0.0149645
930.451	0.0150288
930.530	0.0148675
930.608	0.0149084
930.686	0.0148846
930.764	0.0147946
930.842	0.0147588
930.920	0.0149349
930.998	0.0148363
931.076	0.0147675
931.155	0.0147723
931.233	0.0147871
931.311	0.0148000
931.389	0.0147380
931.467	0.0147828
931.545	0.0147123
931.623	0.0148143
931.701	0.0147599
931.780	0.0147324
931.858	0.0146978
931.936	0.0146579
932.014	0.0146855
932.092	0.0146159
932.170	0.0148492
932.248	0.0148289
932.326	0.0147952
932.405	0.0147701
932.483	0.0147107
932.561	0.0146645
932.639	0.0147092
932.717	0.0147804
932.795	0.0147622
932.873	0.0146603
932.951	0.0146832
933.030	0.0145529
933.108	0.0146580
933.186	0.0147612
933.264	0.0146079
933.342	0.0145174
933.420	0.0145773
933.498	0.0145961
933.576	0.0147125
933.655	0.0146060
933.733	0.0145454
933.811	0.0147887
933.889	0.0146964
933.967	0.0147990
934.045	0.0147249
934.123	0.0148178
934.201	0.0148497
934.280	0.0147998
934.358	0.0146783
934.436	0.0147834
934.514	0.0149357
934.592	0.0148890
934.670	0.0149210
934.748	0.0147348
934.826	0.0147151
934.905	0.0147537
934.983	0.0147846
935.061	0.0147105
935.139	0.0146627
935.217	0.0147938
935.295	0.0148298
935.373	0.0147202
935.451	0.0147337
935.530	0.0147080
935.608	0.0147028
935.686	0.0146580
935.764	0.0147072
935.842	0.0147772
935.920	0.0147734
935.998	0.0146861
936.076	0.0146864
936.155	0.0148032
936.233	0.0147585
936.311	0.0147721
936.389	0.0147562
936.467	0.0145729
936.545	0.0147748
936.623	0.0146989
936.701	0.0146912
936.780	0.0146452
936.858	0.0147074
936.936	0.0146410
937.014	0.0147328
937.092	0.0147230
937.170	0.0146313
937.248	0.0145882
937.326	0.0146498
937.405	0.0147495
937.483	0.0145493
937.561	0.0145533
937.639	0.0146406
937.717	0.0146931
937.795	0.0147440
937.873	0.0147826
937.951	0.0146307
938.030	0.0147594
938.108	0.0149487
938.186	0.0148083
938.264	0.0147079
938.342	0.0149441
938.420	0.0148813
938.498	0.0148663
938.576	0.0149020
938.655	0.0149261
938.733	0.0148706
938.811	0.0147733
938.889	0.0149222
938.967	0.0149267
939.045	0.0148736
939.123	0.0147700
939.201	0.0148826
939.280	0.0149182
939.358	0.0148732
939.436	0.0148970
939.514	0.0148774
939.592	0.0148832
939.670	0.0147291
939.748	0.0148331
939.826	0.0148053
939.905	0.0148270
939.983	0.0148564
940.061	0.0147562
940.139	0.0148878
940.217	0.0148585
940.295	0.0147603
940.373	0.0149745
940.451	0.0148469
940.530	0.0147922
940.608	0.0147850
940.686	0.0147801
940.764	0.0148365
940.842	0.0148188
940.920	0.0147578
940.998	0.0148068
941.076	0.0147171
941.155	0.0149190
941.233	0.0148518
941.311	0.0146997
941.389	0.0147358
941.467	0.0149132
941.545	0.0145942
941.623	0.0146813
941.701	0.0147670
941.780	0.0148793
941.858	0.0148232
941.936	0.0148235
942.014	0.0149445
942.092	0.0147695
942.170	0.0149261
942.248	0.0149107
942.326	0.0148619
942.405	0.0149264
942.483	0.0149114
942.561	0.0149049
942.639	0.0149023
942.717	0.0148782
942.795	0.0149352
942.873	0.0149232
942.951	0.0148338
943.030	0.0148465
943.108	0.0149877
943.186	0.0149309
943.264	0.0149227
943.342	0.0150047
943.420	0.0149689
943.498	0.0150368
943.576	0.0149717
943.655	0.0150062
943.733	0.0148824
943.811	0.0149764
943.889	0.0149216
943.967	0.0149799
944.045	0.0148388
944.123	0.0148527
944.201	0.0148120
944.280	0.0149787
944.358	0.0148759
944.436	0.0148302
944.514	0.0148827
944.592	0.0148949
944.670	0.0147788
944.748	0.0150905
944.826	0.0148601
944.905	0.0148330
944.983	0.0148860
945.061	0.0150143
945.139	0.0148029
945.217	0.0149168
945.295	0.0150056
945.373	0.0148167
945.451	0.0149216
945.530	0.0148650
945.608	0.0148844
945.686	0.0150027
945.764	0.0147629
945.842	0.0149356
945.920	0.0150928
945.998	0.0149969
946.076	0.0148851
946.155	0.0149061
946.233	0.0148647
946.311	0.0148179
946.389	0.0148274
946.467	0.0149422
946.545	0.0149890
946.623	0.0148304
946.701	0.0148666
946.780	0.0149184
946.858	0.0148974
946.936	0.0148936
947.014	0.0148380
947.092	0.0148742
947.170	0.0149609
947.248	0.0148517
947.326	0.0149552
947.405	0.0149821
947.483	0.0150562
947.561	0.0148267
947.639	0.0149350
947.717	0.0149484
947.795	0.0150163
947.873	0.0148765
947.951	0.0148717
948.030	0.0150273
948.108	0.0149158
948.186	0.0149201
948.264	0.0148730
948.342	0.0150008
948.420	0.0150565
948.498	0.0147933
948.576	0.0149582
948.655	0.0149614
948.733	0.0149363
948.811	0.0148552
948.889	0.0149165
948.967	0.0149021
949.045	0.0149213
949.123	0.0148920
949.201	0.0149344
949.280	0.0148637
949.358	0.0148537
949.436	0.0148398
949.514	0.0147883
949.592	0.0148643
949.670	0.0147258
949.748	0.0148479
949.826	0.0149119
949.905	0.0148543
949.983	0.0148956
950.061	0.0148156
950.139	0.0147288
950.217	0.0147282
950.295	0.0149108
950.373	0.0146249
950.451	0.0148098
950.530	0.0147859
950.608	0.0147272
950.686	0.0147151
950.764	0.0147285
950.842	0.0146769
950.920	0.0147885
950.998	0.0147119
951.076	0.0146550
951.155	0.0148039
951.233	0.0148080
951.311	0.0147064
951.389	0.0146266
951.467	0.0147330
951.545	0.0148700
951.623	0.0147086
951.701	0.0147863
951.780	0.0147790
951.858	0.0147153
951.936	0.0148316
952.014	0.0147552
952.092	0.0147335
952.170	0.0147387
952.248	0.0149550
952.326	0.0148429
952.405	0.0148582
952.483	0.0147762
952.561	0.0147515
952.639	0.0148238
952.717	0.0148297
952.795	0.0149323
952.873	0.0148235
952.951	0.0147648
953.030	0.0148142
953.108	0.0147903
953.186	0.0148690
953.264	0.0149377
953.342	0.0148985
953.420	0.0147990
953.498	0.0149247
953.576	0.0147467
953.655	0.0148260
953.733	0.0148575
953.811	0.0147769
953.889	0.0148573
953.967	0.0148437
954.045	0.0148438
954.123	0.0147763
954.201	0.0149169
954.280	0.0148302
954.358	0.0147210
954.436	0.0146590
954.514	0.0147978
954.592	0.0149026
954.670	0.0149294
954.748	0.0147616
954.826	0.0146668
954.905	0.0148273
954.983	0.0147943
955.061	0.0148962
955.139	0.0147412
955.217	0.0147058
955.295	0.0148033
955.373	0.0148856
955.451	0.0147155
955.530	0.0147030
955.608	0.0147636
955.686	0.0148933
955.764	0.0147959
955.842	0.0146455
955.920	0.0147537
955.998	0.0148180
956.076	0.0145585
956.155	0.0146966
956.233	0.0146803
956.311	0.0148531
956.389	0.0146712
956.467	0.0147110
956.545	0.0148463
956.623	0.0147117
956.701	0.0147625
956.780	0.0148595
956.858	0.0148375
956.936	0.0148695
957.014	0.0147491
957.092	0.0148821
957.170	0.0148896
957.248	0.0147917
957.326	0.0147433
957.405	0.0148389
957.483	0.0148078
957.561	0.0147525
957.639	0.0147317
957.717	0.0147018
957.795	0.0147411
957.873	0.0148317
957.951	0.0148376
958.030	0.0148238
958.108	0.0147593
958.186	0.0147751
958.264	0.0148883
958.342	0.0147340
958.420	0.0147892
958.498	0.0148119
958.576	0.0147137
958.655	0.0146816
958.733	0.0147147
958.811	0.0147763
958.889	0.0146542
958.967	0.0148341
959.045	0.0147691
959.123	0.0146282
959.201	0.0147385
959.280	0.0148210
959.358	0.0147487
959.436	0.0148250
959.514	0.0148363
959.592	0.0147422
959.670	0.0148819
959.748	0.0147691
959.826	0.0147355
959.905	0.0147678
