05/14/2022	19:35:36	Ver.	4.1	UNKNOWN
Optical Delay	650.009681	Delta X		0.078125	Sweeps	1	Scan Rate	0/0
Coordinates	Axis 1	NaN	Axis 2	NaN	Axis 3	NaN	Axis 4	NaN	Axis 5	NaN	Axis 6	0.000000
TX Power	0.000000	RX Power	0.000000

650.010	0.0140488
650.088	0.0141734
650.166	0.0142222
650.244	0.0141287
650.322	0.0141125
650.400	0.0140686
650.478	0.0140934
650.557	0.0141047
650.635	0.0140097
650.713	0.0141660
650.791	0.0142503
650.869	0.0142034
650.947	0.0140752
651.025	0.0140617
651.103	0.0141319
651.182	0.0142435
651.260	0.0141579
651.338	0.0141331
651.416	0.0141560
651.494	0.0141001
651.572	0.0141255
651.650	0.0141197
651.728	0.0141526
651.807	0.0142075
651.885	0.0141324
651.963	0.0141817
652.041	0.0138759
652.119	0.0141001
652.197	0.0141203
652.275	0.0140651
652.353	0.0141077
652.432	0.0139871
652.510	0.0140720
652.588	0.0140446
652.666	0.0140432
652.744	0.0139805
652.822	0.0140540
652.900	0.0140136
652.978	0.0140741
653.057	0.0140018
653.135	0.0141705
653.213	0.0141982
653.291	0.0140949
653.369	0.0141139
653.447	0.0141455
653.525	0.0142027
653.603	0.0141857
653.682	0.0143150
653.760	0.0142406
653.838	0.0142840
653.916	0.0142553
653.994	0.0142391
654.072	0.0142810
654.150	0.0143767
654.228	0.0142594
654.307	0.0143528
654.385	0.0143386
654.463	0.0143857
654.541	0.0143306
654.619	0.0143855
654.697	0.0142858
654.775	0.0141514
654.853	0.0143317
654.932	0.0142848
655.010	0.0143014
655.088	0.0142809
655.166	0.0141685
655.244	0.0141310
655.322	0.0141721
655.400	0.0141061
655.478	0.0140881
655.557	0.0140817
655.635	0.0141090
655.713	0.0140529
655.791	0.0140525
655.869	0.0141326
655.947	0.0141203
656.025	0.0141631
656.103	0.0142891
656.182	0.0142204
656.260	0.0143591
656.338	0.0143325
656.416	0.0141702
656.494	0.0143114
656.572	0.0143077
656.650	0.0143423
656.728	0.0141956
656.807	0.0141644
656.885	0.0141679
656.963	0.0141522
657.041	0.0140568
657.119	0.0141229
657.197	0.0140758
657.275	0.0141247
657.353	0.0140595
657.432	0.0140387
657.510	0.0142151
657.588	0.0142092
657.666	0.0141442
657.744	0.0141457
657.822	0.0142347
657.900	0.0142338
657.978	0.0141901
658.057	0.0142249
658.135	0.0142815
658.213	0.0143811
658.291	0.0141808
658.369	0.0143025
658.447	0.0143784
658.525	0.0143372
658.603	0.0142293
658.682	0.0143594
658.760	0.0142302
658.838	0.0142727
658.916	0.0143336
658.994	0.0142676
659.072	0.0142812
659.150	0.0143716
659.228	0.0142469
659.307	0.0140170
659.385	0.0142233
659.463	0.0144394
659.541	0.0143940
659.619	0.0143851
659.697	0.0144066
659.775	0.0145223
659.853	0.0145924
659.932	0.0143913
660.010	0.0145948
660.088	0.0145544
660.166	0.0145018
660.244	0.0145531
660.322	0.0143700
660.400	0.0143272
660.478	0.0141671
660.557	0.0141298
660.635	0.0140475
660.713	0.0139147
660.791	0.0138232
660.869	0.0137617
660.947	0.0135994
661.025	0.0134338
661.103	0.0135526
661.182	0.0135087
661.260	0.0134733
661.338	0.0135217
661.416	0.0136925
661.494	0.0135517
661.572	0.0136393
661.650	0.0137826
661.728	0.0137344
661.807	0.0139036
661.885	0.0139658
661.963	0.0142027
662.041	0.0143568
662.119	0.0142728
662.197	0.0144666
662.275	0.0146587
662.353	0.0147392
662.432	0.0147786
662.510	0.0149374
662.588	0.0153430
662.666	0.0153725
662.744	0.0154231
662.822	0.0154872
662.900	0.0155247
662.978	0.0155324
663.057	0.0156287
663.135	0.0154770
663.213	0.0153883
663.291	0.0153961
663.369	0.0150533
663.447	0.0149261
663.525	0.0149177
663.603	0.0147374
663.682	0.0142659
663.760	0.0141716
663.838	0.0138891
663.916	0.0138198
663.994	0.0136945
664.072	0.0134238
664.150	0.0131701
664.228	0.0131180
664.307	0.0129559
664.385	0.0126799
664.463	0.0126014
664.541	0.0125854
664.619	0.0124377
664.697	0.0124959
664.775	0.0125069
664.853	0.0126011
664.932	0.0127489
665.010	0.0128396
665.088	0.0130031
665.166	0.0132449
665.244	0.0135309
665.322	0.0137741
665.400	0.0139976
665.478	0.0144707
665.557	0.0149030
665.635	0.0150529
665.713	0.0154543
665.791	0.0160358
665.869	0.0162993
665.947	0.0165245
666.025	0.0167247
666.103	0.0171504
666.182	0.0172346
666.260	0.0173757
666.338	0.0174485
666.416	0.0175280
666.494	0.0174655
666.572	0.0172231
666.650	0.0171841
666.728	0.0169530
666.807	0.0165443
666.885	0.0160776
666.963	0.0158325
667.041	0.0153384
667.119	0.0146316
667.197	0.0142046
667.275	0.0136119
667.353	0.0129510
667.432	0.0124996
667.510	0.0120313
667.588	0.0115145
667.666	0.0110039
667.744	0.0107253
667.822	0.0105645
667.900	0.0103318
667.978	0.0100770
668.057	0.0101799
668.135	0.0100578
668.213	0.0100385
668.291	0.0100909
668.369	0.0104544
668.447	0.0107266
668.525	0.0111838
668.603	0.0116179
668.682	0.0118784
668.760	0.0125755
668.838	0.0131367
668.916	0.0139021
668.994	0.0144739
669.072	0.0151907
669.150	0.0157808
669.228	0.0162589
669.307	0.0168292
669.385	0.0173840
669.463	0.0177887
669.541	0.0181884
669.619	0.0183825
669.697	0.0187383
669.775	0.0187775
669.853	0.0188602
669.932	0.0187153
670.010	0.0185435
670.088	0.0183337
670.166	0.0180396
670.244	0.0176163
670.322	0.0172041
670.400	0.0166337
670.478	0.0160643
670.557	0.0154465
670.635	0.0148170
670.713	0.0141902
670.791	0.0136537
670.869	0.0128180
670.947	0.0122797
671.025	0.0116894
671.103	0.0110365
671.182	0.0106757
671.260	0.0103835
671.338	0.0100529
671.416	0.00992538
671.494	0.00980362
671.572	0.00961571
671.650	0.00976013
671.728	0.00993118
671.807	0.0102044
671.885	0.0104688
671.963	0.0108016
672.041	0.0111510
672.119	0.0115910
672.197	0.0120805
672.275	0.0125759
672.353	0.0130304
672.432	0.0135419
672.510	0.0140376
672.588	0.0146662
672.666	0.0151175
672.744	0.0155274
672.822	0.0160172
672.900	0.0163306
672.978	0.0165235
673.057	0.0167316
673.135	0.0168344
673.213	0.0169892
673.291	0.0171031
673.369	0.0170708
673.447	0.0170648
673.525	0.0169083
673.603	0.0166579
673.682	0.0165118
673.760	0.0163204
673.838	0.0162044
673.916	0.0160728
673.994	0.0157039
674.072	0.0154280
674.150	0.0153017
674.228	0.0151616
674.307	0.0149042
674.385	0.0146932
674.463	0.0144095
674.541	0.0142795
674.619	0.0140709
674.697	0.0140510
674.775	0.0139339
674.853	0.0137582
674.932	0.0139246
675.010	0.0138425
675.088	0.0138422
675.166	0.0139960
675.244	0.0141728
675.322	0.0141676
675.400	0.0142249
675.478	0.0141968
675.557	0.0141505
675.635	0.0140347
675.713	0.0138557
675.791	0.0137479
675.869	0.0136923
675.947	0.0132535
676.025	0.0131914
676.103	0.0129404
676.182	0.0127415
676.260	0.0125916
676.338	0.0122648
676.416	0.0121121
676.494	0.0119522
676.572	0.0118707
676.650	0.0117871
676.728	0.0118647
676.807	0.0117276
676.885	0.0119189
676.963	0.0120471
677.041	0.0120448
677.119	0.0122450
677.197	0.0126197
677.275	0.0128970
677.353	0.0130537
677.432	0.0135352
677.510	0.0138533
677.588	0.0140903
677.666	0.0145496
677.744	0.0150251
677.822	0.0153643
677.900	0.0158504
677.978	0.0161688
678.057	0.0166645
678.135	0.0171677
678.213	0.0174982
678.291	0.0177230
678.369	0.0179528
678.447	0.0180295
678.525	0.0181131
678.603	0.0182021
678.682	0.0180489
678.760	0.0179144
678.838	0.0176539
678.916	0.0174043
678.994	0.0170569
679.072	0.0167841
679.150	0.0164169
679.228	0.0161092
679.307	0.0157193
679.385	0.0151960
679.463	0.0147702
679.541	0.0143473
679.619	0.0137575
679.697	0.0135563
679.775	0.0130545
679.853	0.0124850
679.932	0.0121213
680.010	0.0117802
680.088	0.0116015
680.166	0.0112484
680.244	0.0110110
680.322	0.0106794
680.400	0.0107212
680.478	0.0106401
680.557	0.0106516
680.635	0.0106354
680.713	0.0106082
680.791	0.0108768
680.869	0.0111244
680.947	0.0112767
681.025	0.0114150
681.103	0.0118565
681.182	0.0118631
681.260	0.0122529
681.338	0.0126739
681.416	0.0127988
681.494	0.0131127
681.572	0.0135180
681.650	0.0137096
681.728	0.0140038
681.807	0.0144597
681.885	0.0147947
681.963	0.0151195
682.041	0.0152960
682.119	0.0156421
682.197	0.0159908
682.275	0.0161202
682.353	0.0164084
682.432	0.0166591
682.510	0.0167728
682.588	0.0168963
682.666	0.0169706
682.744	0.0171501
682.822	0.0170410
682.900	0.0170590
682.978	0.0169613
683.057	0.0168577
683.135	0.0167445
683.213	0.0165603
683.291	0.0160715
683.369	0.0159310
683.447	0.0155595
683.525	0.0151763
683.603	0.0148738
683.682	0.0142995
683.760	0.0138870
683.838	0.0137666
683.916	0.0133865
683.994	0.0129819
684.072	0.0128493
684.150	0.0127167
684.228	0.0125521
684.307	0.0124686
684.385	0.0122916
684.463	0.0120620
684.541	0.0120106
684.619	0.0119568
684.697	0.0119227
684.775	0.0120908
684.853	0.0121500
684.932	0.0121300
685.010	0.0124369
685.088	0.0126684
685.166	0.0126573
685.244	0.0129193
685.322	0.0131461
685.400	0.0135575
685.478	0.0139040
685.557	0.0142153
685.635	0.0145050
685.713	0.0147647
685.791	0.0151031
685.869	0.0153695
685.947	0.0155171
686.025	0.0156657
686.103	0.0158306
686.182	0.0158807
686.260	0.0158784
686.338	0.0159726
686.416	0.0158192
686.494	0.0157185
686.572	0.0155798
686.650	0.0153728
686.728	0.0152270
686.807	0.0150729
686.885	0.0149370
686.963	0.0147634
687.041	0.0144016
687.119	0.0143522
687.197	0.0143644
687.275	0.0139900
687.353	0.0141315
687.432	0.0138136
687.510	0.0136397
687.588	0.0135613
687.666	0.0136609
687.744	0.0136605
687.822	0.0133426
687.900	0.0133253
687.978	0.0133379
688.057	0.0133915
688.135	0.0134323
688.213	0.0136012
688.291	0.0135301
688.369	0.0134346
688.447	0.0136242
688.525	0.0136345
688.603	0.0136156
688.682	0.0137650
688.760	0.0137777
688.838	0.0138692
688.916	0.0139160
688.994	0.0140568
689.072	0.0141528
689.150	0.0142670
689.228	0.0142471
689.307	0.0144556
689.385	0.0144614
689.463	0.0145032
689.541	0.0146243
689.619	0.0145089
689.697	0.0146026
689.775	0.0148058
689.853	0.0147477
689.932	0.0147156
690.010	0.0148571
690.088	0.0147873
690.166	0.0148163
690.244	0.0147211
690.322	0.0148536
690.400	0.0147955
690.478	0.0150690
690.557	0.0150596
690.635	0.0148782
690.713	0.0149136
690.791	0.0149716
690.869	0.0150133
690.947	0.0149200
691.025	0.0148093
691.103	0.0147767
691.182	0.0148055
691.260	0.0146387
691.338	0.0143846
691.416	0.0145515
691.494	0.0143419
691.572	0.0141816
691.650	0.0142115
691.728	0.0141164
691.807	0.0140866
691.885	0.0138586
691.963	0.0139764
692.041	0.0137838
692.119	0.0137650
692.197	0.0136935
692.275	0.0136520
692.353	0.0134492
692.432	0.0135118
692.510	0.0133630
692.588	0.0134603
692.666	0.0135042
692.744	0.0135435
692.822	0.0133517
692.900	0.0134904
692.978	0.0136980
693.057	0.0136605
693.135	0.0136723
693.213	0.0138335
693.291	0.0140993
693.369	0.0138885
693.447	0.0140714
693.525	0.0142396
693.603	0.0141383
693.682	0.0143954
693.760	0.0144570
693.838	0.0145614
693.916	0.0145078
693.994	0.0145285
694.072	0.0145178
694.150	0.0145321
694.228	0.0144975
694.307	0.0143034
694.385	0.0141288
694.463	0.0141595
694.541	0.0140066
694.619	0.0138956
694.697	0.0138708
694.775	0.0138432
694.853	0.0138495
694.932	0.0136971
695.010	0.0137753
695.088	0.0138100
695.166	0.0137988
695.244	0.0138176
695.322	0.0138839
695.400	0.0139980
695.478	0.0141367
695.557	0.0142110
695.635	0.0142128
695.713	0.0143474
695.791	0.0144602
695.869	0.0145216
695.947	0.0146240
696.025	0.0145258
696.103	0.0146078
696.182	0.0146923
696.260	0.0145686
696.338	0.0143457
696.416	0.0145914
696.494	0.0144531
696.572	0.0144319
696.650	0.0144408
696.728	0.0144458
696.807	0.0143839
696.885	0.0144191
696.963	0.0145511
697.041	0.0145255
697.119	0.0146276
697.197	0.0146538
697.275	0.0147096
697.353	0.0147628
697.432	0.0148750
697.510	0.0150050
697.588	0.0149587
697.666	0.0151163
697.744	0.0152415
697.822	0.0152377
697.900	0.0153939
697.978	0.0155939
698.057	0.0153924
698.135	0.0154586
698.213	0.0156290
698.291	0.0154031
698.369	0.0153380
698.447	0.0153096
698.525	0.0152404
698.603	0.0151041
698.682	0.0147256
698.760	0.0145600
698.838	0.0144750
698.916	0.0142226
698.994	0.0140046
699.072	0.0138844
699.150	0.0136234
699.228	0.0134809
699.307	0.0131893
699.385	0.0129598
699.463	0.0128213
699.541	0.0125469
699.619	0.0123345
699.697	0.0122250
699.775	0.0119833
699.853	0.0117290
699.932	0.0114433
700.010	0.0114095
700.088	0.0113934
700.166	0.0112115
700.244	0.0112556
700.322	0.0113200
700.400	0.0114800
700.478	0.0115716
700.557	0.0118378
700.635	0.0120816
700.713	0.0125024
700.791	0.0127001
700.869	0.0131106
700.947	0.0134530
701.025	0.0138239
701.103	0.0142813
701.182	0.0147169
701.260	0.0150966
701.338	0.0155299
701.416	0.0159026
701.494	0.0162257
701.572	0.0166804
701.650	0.0170113
701.728	0.0172638
701.807	0.0176472
701.885	0.0178752
701.963	0.0181389
702.041	0.0182939
702.119	0.0184196
702.197	0.0185268
702.275	0.0182694
702.353	0.0182394
702.432	0.0180427
702.510	0.0178647
702.588	0.0174744
702.666	0.0172606
702.744	0.0169695
702.822	0.0165251
702.900	0.0160862
702.978	0.0156190
703.057	0.0150861
703.135	0.0147132
703.213	0.0142374
703.291	0.0136006
703.369	0.0132490
703.447	0.0126517
703.525	0.0122755
703.603	0.0120041
703.682	0.0115710
703.760	0.0114101
703.838	0.0111336
703.916	0.0109326
703.994	0.0107784
704.072	0.0107279
704.150	0.0106551
704.228	0.0106473
704.307	0.0106333
704.385	0.0108438
704.463	0.0109230
704.541	0.0109914
704.619	0.0112511
704.697	0.0115356
704.775	0.0118376
704.853	0.0121221
704.932	0.0123423
705.010	0.0128766
705.088	0.0130853
705.166	0.0132457
705.244	0.0136041
705.322	0.0140910
705.400	0.0144247
705.478	0.0147730
705.557	0.0149059
705.635	0.0150760
705.713	0.0153414
705.791	0.0156927
705.869	0.0157654
705.947	0.0158919
706.025	0.0159365
706.103	0.0158076
706.182	0.0158795
706.260	0.0159222
706.338	0.0158762
706.416	0.0157830
706.494	0.0156891
706.572	0.0154836
706.650	0.0153796
706.728	0.0152637
706.807	0.0150868
706.885	0.0149995
706.963	0.0148170
707.041	0.0146469
707.119	0.0146018
707.197	0.0144466
707.275	0.0142313
707.353	0.0143551
707.432	0.0140711
707.510	0.0142612
707.588	0.0140409
707.666	0.0139893
707.744	0.0140121
707.822	0.0139316
707.900	0.0140750
707.978	0.0142536
708.057	0.0142093
708.135	0.0142496
708.213	0.0143970
708.291	0.0145187
708.369	0.0143926
708.447	0.0145377
708.525	0.0144112
708.603	0.0145746
708.682	0.0146183
708.760	0.0145809
708.838	0.0145601
708.916	0.0145579
708.994	0.0145070
709.072	0.0144473
709.150	0.0143382
709.228	0.0143362
709.307	0.0142913
709.385	0.0142365
709.463	0.0141927
709.541	0.0141045
709.619	0.0139612
709.697	0.0141319
709.775	0.0140826
709.853	0.0139843
709.932	0.0140285
710.010	0.0139258
710.088	0.0136253
710.166	0.0137600
710.244	0.0137806
710.322	0.0136239
710.400	0.0135579
710.478	0.0133970
710.557	0.0132739
710.635	0.0132597
710.713	0.0132602
710.791	0.0132515
710.869	0.0130446
710.947	0.0132706
711.025	0.0131438
711.103	0.0130783
711.182	0.0130501
711.260	0.0132578
711.338	0.0133192
711.416	0.0132531
711.494	0.0134604
711.572	0.0135972
711.650	0.0139507
711.728	0.0137534
711.807	0.0138639
711.885	0.0141331
711.963	0.0141235
712.041	0.0143781
712.119	0.0141985
712.197	0.0141038
712.275	0.0142194
712.353	0.0142702
712.432	0.0141398
712.510	0.0141090
712.588	0.0141778
712.666	0.0141911
712.744	0.0139156
712.822	0.0137744
712.900	0.0139009
712.978	0.0138973
713.057	0.0136903
713.135	0.0136858
713.213	0.0137211
713.291	0.0137830
713.369	0.0136642
713.447	0.0137650
713.525	0.0138435
713.603	0.0140112
713.682	0.0141121
713.760	0.0141915
713.838	0.0144630
713.916	0.0145660
713.994	0.0146803
714.072	0.0148817
714.150	0.0151531
714.228	0.0153084
714.307	0.0154575
714.385	0.0156203
714.463	0.0155574
714.541	0.0156487
714.619	0.0156943
714.697	0.0157649
714.775	0.0157030
714.853	0.0157002
714.932	0.0154795
715.010	0.0154786
715.088	0.0153510
715.166	0.0151142
715.244	0.0150872
715.322	0.0150983
715.400	0.0148033
715.478	0.0145900
715.557	0.0145489
715.635	0.0145468
715.713	0.0143217
715.791	0.0141131
715.869	0.0140312
715.947	0.0138808
716.025	0.0137260
716.103	0.0135763
716.182	0.0133453
716.260	0.0131706
716.338	0.0131103
716.416	0.0129585
716.494	0.0127729
716.572	0.0126885
716.650	0.0124986
716.728	0.0126585
716.807	0.0125298
716.885	0.0123462
716.963	0.0123530
717.041	0.0123801
717.119	0.0124818
717.197	0.0124897
717.275	0.0125264
717.353	0.0126662
717.432	0.0126790
717.510	0.0127451
717.588	0.0127605
717.666	0.0131663
717.744	0.0130693
717.822	0.0131920
717.900	0.0134792
717.978	0.0136707
718.057	0.0138475
718.135	0.0138424
718.213	0.0139893
718.291	0.0140880
718.369	0.0142988
718.447	0.0144755
718.525	0.0145596
718.603	0.0146510
718.682	0.0148041
718.760	0.0147830
718.838	0.0149264
718.916	0.0150013
718.994	0.0150382
719.072	0.0150703
719.150	0.0151480
719.228	0.0152356
719.307	0.0152414
719.385	0.0153008
719.463	0.0154720
719.541	0.0153778
719.619	0.0154230
719.697	0.0154734
719.775	0.0153326
719.853	0.0156568
719.932	0.0156078
720.010	0.0156460
720.088	0.0157240
720.166	0.0157720
720.244	0.0156175
720.322	0.0157671
720.400	0.0156829
720.478	0.0155826
720.557	0.0155029
720.635	0.0154570
720.713	0.0151543
720.791	0.0150919
720.869	0.0149508
720.947	0.0147648
721.025	0.0148159
721.103	0.0146429
721.182	0.0144358
721.260	0.0144202
721.338	0.0142494
721.416	0.0141926
721.494	0.0140928
721.572	0.0141141
721.650	0.0139233
721.728	0.0139244
721.807	0.0138495
721.885	0.0137071
721.963	0.0137991
722.041	0.0135223
722.119	0.0136226
722.197	0.0136797
722.275	0.0136897
722.353	0.0135061
722.432	0.0136523
722.510	0.0134883
722.588	0.0134856
722.666	0.0135226
722.744	0.0135648
722.822	0.0134668
722.900	0.0135047
722.978	0.0134589
723.057	0.0133253
723.135	0.0134721
723.213	0.0135714
723.291	0.0132686
723.369	0.0133379
723.447	0.0132606
723.525	0.0133209
723.603	0.0133820
723.682	0.0133022
723.760	0.0133440
723.838	0.0133895
723.916	0.0134888
723.994	0.0135964
724.072	0.0137849
724.150	0.0137576
724.228	0.0140283
724.307	0.0142293
724.385	0.0141549
724.463	0.0143380
724.541	0.0145660
724.619	0.0145032
724.697	0.0147550
724.775	0.0147863
724.853	0.0147591
724.932	0.0148866
725.010	0.0148766
725.088	0.0150033
725.166	0.0149889
725.244	0.0148786
725.322	0.0150006
725.400	0.0148171
725.478	0.0149104
725.557	0.0148882
725.635	0.0147817
725.713	0.0146480
725.791	0.0146333
725.869	0.0146035
725.947	0.0144303
726.025	0.0145748
726.103	0.0146885
726.182	0.0145732
726.260	0.0143960
726.338	0.0145850
726.416	0.0144666
726.494	0.0145370
726.572	0.0144935
726.650	0.0145715
726.728	0.0145586
726.807	0.0144296
726.885	0.0144390
726.963	0.0143818
727.041	0.0144006
727.119	0.0143716
727.197	0.0144122
727.275	0.0141863
727.353	0.0142149
727.432	0.0141564
727.510	0.0141741
727.588	0.0139293
727.666	0.0140106
727.744	0.0138795
727.822	0.0139109
727.900	0.0139600
727.978	0.0139117
728.057	0.0137966
728.135	0.0137498
728.213	0.0137212
728.291	0.0139262
728.369	0.0137402
728.447	0.0138027
728.525	0.0138905
728.603	0.0138025
728.682	0.0139735
728.760	0.0138795
728.838	0.0138270
728.916	0.0139104
728.994	0.0139471
729.072	0.0140369
729.150	0.0139443
729.228	0.0140021
729.307	0.0139532
729.385	0.0140915
729.463	0.0140337
729.541	0.0139664
729.619	0.0139371
729.697	0.0138915
729.775	0.0138667
729.853	0.0139350
729.932	0.0138963
730.010	0.0138726
730.088	0.0139017
730.166	0.0140457
730.244	0.0138849
730.322	0.0137747
730.400	0.0138788
730.478	0.0139364
730.557	0.0139053
730.635	0.0139246
730.713	0.0139170
730.791	0.0139895
730.869	0.0139882
730.947	0.0140090
731.025	0.0139874
731.103	0.0139931
731.182	0.0139422
731.260	0.0141596
731.338	0.0141798
731.416	0.0142077
731.494	0.0142021
731.572	0.0142970
731.650	0.0142907
731.728	0.0142213
731.807	0.0143955
731.885	0.0144209
731.963	0.0144452
732.041	0.0146072
732.119	0.0145423
732.197	0.0147025
732.275	0.0146476
732.353	0.0145525
732.432	0.0147408
732.510	0.0148057
732.588	0.0146430
732.666	0.0146647
732.744	0.0147681
732.822	0.0148092
732.900	0.0147122
732.978	0.0147680
733.057	0.0147168
733.135	0.0146938
733.213	0.0147043
733.291	0.0145670
733.369	0.0146860
733.447	0.0145695
733.525	0.0145054
733.603	0.0144024
733.682	0.0143262
733.760	0.0142958
733.838	0.0140769
733.916	0.0139587
733.994	0.0138520
734.072	0.0138177
734.150	0.0136463
734.228	0.0136021
734.307	0.0135537
734.385	0.0135579
734.463	0.0133038
734.541	0.0133858
734.619	0.0134705
734.697	0.0133266
734.775	0.0132983
734.853	0.0133147
734.932	0.0134631
735.010	0.0136107
735.088	0.0137082
735.166	0.0137508
735.244	0.0137757
735.322	0.0137775
735.400	0.0140901
735.478	0.0139654
735.557	0.0141734
735.635	0.0142749
735.713	0.0143549
735.791	0.0142291
735.869	0.0143998
735.947	0.0144830
736.025	0.0143721
736.103	0.0143177
736.182	0.0143783
736.260	0.0143645
736.338	0.0144752
736.416	0.0144402
736.494	0.0143769
736.572	0.0143954
736.650	0.0142795
736.728	0.0141512
736.807	0.0141551
736.885	0.0141139
736.963	0.0141854
737.041	0.0140635
737.119	0.0138800
737.197	0.0140315
737.275	0.0140031
737.353	0.0140613
737.432	0.0140166
737.510	0.0139807
737.588	0.0140071
737.666	0.0140002
737.744	0.0140827
737.822	0.0140013
737.900	0.0139230
737.978	0.0141304
738.057	0.0141546
738.135	0.0141776
738.213	0.0142892
738.291	0.0140916
738.369	0.0141541
738.447	0.0142365
738.525	0.0140862
738.603	0.0142393
738.682	0.0141690
738.760	0.0143272
738.838	0.0142770
738.916	0.0142904
738.994	0.0143425
739.072	0.0145329
739.150	0.0143885
739.228	0.0143110
739.307	0.0143435
739.385	0.0144569
739.463	0.0145655
739.541	0.0146661
739.619	0.0145039
739.697	0.0143649
739.775	0.0145045
739.853	0.0144977
739.932	0.0143011
740.010	0.0143733
740.088	0.0143539
740.166	0.0142892
740.244	0.0142139
740.322	0.0141895
740.400	0.0141868
740.478	0.0141211
740.557	0.0141363
740.635	0.0139729
740.713	0.0140419
740.791	0.0138885
740.869	0.0141507
740.947	0.0140350
741.025	0.0141215
741.103	0.0141125
741.182	0.0141324
741.260	0.0142673
741.338	0.0141145
741.416	0.0141967
741.494	0.0143182
741.572	0.0142327
741.650	0.0143169
741.728	0.0144240
741.807	0.0143243
741.885	0.0142846
741.963	0.0144117
742.041	0.0143937
742.119	0.0144727
742.197	0.0143187
742.275	0.0143414
742.353	0.0144682
742.432	0.0144056
742.510	0.0143509
742.588	0.0143067
742.666	0.0143192
742.744	0.0144493
742.822	0.0144129
742.900	0.0142980
742.978	0.0143693
743.057	0.0144266
743.135	0.0141882
743.213	0.0143644
743.291	0.0143263
743.369	0.0143481
743.447	0.0144416
743.525	0.0144176
743.603	0.0143485
743.682	0.0143740
743.760	0.0142637
743.838	0.0141991
743.916	0.0141502
743.994	0.0140981
744.072	0.0141325
744.150	0.0140404
744.228	0.0142413
744.307	0.0140520
744.385	0.0139818
744.463	0.0140437
744.541	0.0138980
744.619	0.0138255
744.697	0.0138799
744.775	0.0139320
744.853	0.0140033
744.932	0.0137719
745.010	0.0138414
745.088	0.0137368
745.166	0.0138398
745.244	0.0138445
745.322	0.0138128
745.400	0.0138892
745.478	0.0139819
745.557	0.0139906
745.635	0.0139541
745.713	0.0140073
745.791	0.0141341
745.869	0.0140999
745.947	0.0141048
746.025	0.0142673
746.103	0.0143504
746.182	0.0143554
746.260	0.0143864
746.338	0.0143884
746.416	0.0144255
746.494	0.0144663
746.572	0.0144690
746.650	0.0144164
746.728	0.0144435
746.807	0.0145173
746.885	0.0143648
746.963	0.0145527
747.041	0.0145584
747.119	0.0144555
747.197	0.0142016
747.275	0.0143995
747.353	0.0143777
747.432	0.0142542
747.510	0.0142584
747.588	0.0143136
747.666	0.0142554
747.744	0.0139706
747.822	0.0140456
747.900	0.0140945
747.978	0.0138852
748.057	0.0141481
748.135	0.0140278
748.213	0.0140799
748.291	0.0140841
748.369	0.0140456
748.447	0.0140384
748.525	0.0139433
748.603	0.0139172
748.682	0.0140581
748.760	0.0140104
748.838	0.0140583
748.916	0.0139523
748.994	0.0139268
749.072	0.0139930
749.150	0.0139658
749.228	0.0139845
749.307	0.0140307
749.385	0.0138091
749.463	0.0139977
749.541	0.0140212
749.619	0.0138645
749.697	0.0138273
749.775	0.0140115
749.853	0.0138383
749.932	0.0139175
750.010	0.0138934
750.088	0.0138769
750.166	0.0138593
750.244	0.0138067
750.322	0.0138602
750.400	0.0137817
750.478	0.0137576
750.557	0.0137589
750.635	0.0139553
750.713	0.0138649
750.791	0.0137284
750.869	0.0139161
750.947	0.0138678
751.025	0.0138081
751.103	0.0138113
751.182	0.0140219
751.260	0.0142148
751.338	0.0141194
751.416	0.0140356
751.494	0.0140154
751.572	0.0141560
751.650	0.0142197
751.728	0.0142915
751.807	0.0142446
751.885	0.0142265
751.963	0.0141689
752.041	0.0141994
752.119	0.0140585
752.197	0.0141299
752.275	0.0139458
752.353	0.0140815
752.432	0.0139804
752.510	0.0139790
752.588	0.0141253
752.666	0.0141124
752.744	0.0139568
752.822	0.0139413
752.900	0.0138926
752.978	0.0139180
753.057	0.0140296
753.135	0.0140022
753.213	0.0140147
753.291	0.0142123
753.369	0.0142204
753.447	0.0143695
753.525	0.0142873
753.603	0.0143515
753.682	0.0145040
753.760	0.0143233
753.838	0.0142964
753.916	0.0144794
753.994	0.0144458
754.072	0.0144228
754.150	0.0144881
754.228	0.0143134
754.307	0.0144117
754.385	0.0143987
754.463	0.0143259
754.541	0.0142474
754.619	0.0142687
754.697	0.0142833
754.775	0.0144423
754.853	0.0142858
754.932	0.0141953
755.010	0.0143247
755.088	0.0142494
755.166	0.0142719
755.244	0.0143443
755.322	0.0144422
755.400	0.0142908
755.478	0.0143018
755.557	0.0144122
755.635	0.0144203
755.713	0.0143607
755.791	0.0145471
755.869	0.0144622
755.947	0.0144401
756.025	0.0145224
756.103	0.0145751
756.182	0.0145412
756.260	0.0145673
756.338	0.0145123
756.416	0.0145277
756.494	0.0144962
756.572	0.0143929
756.650	0.0143792
756.728	0.0144258
756.807	0.0145023
756.885	0.0143507
756.963	0.0143394
757.041	0.0142392
757.119	0.0142759
757.197	0.0142728
757.275	0.0142336
757.353	0.0142720
757.432	0.0141710
757.510	0.0140883
757.588	0.0140752
757.666	0.0142094
757.744	0.0141096
757.822	0.0139165
757.900	0.0141061
757.978	0.0140147
758.057	0.0140604
758.135	0.0139269
758.213	0.0138795
758.291	0.0138378
758.369	0.0137899
758.447	0.0138887
758.525	0.0139783
758.603	0.0137835
758.682	0.0137559
758.760	0.0137431
758.838	0.0137775
758.916	0.0138570
758.994	0.0139348
759.072	0.0140334
759.150	0.0139673
759.228	0.0139735
759.307	0.0139279
759.385	0.0141073
759.463	0.0141688
759.541	0.0141486
759.619	0.0141520
759.697	0.0141440
759.775	0.0143309
759.853	0.0143415
759.932	0.0143493
760.010	0.0144151
760.088	0.0143485
760.166	0.0143622
760.244	0.0144379
760.322	0.0143580
760.400	0.0144337
760.478	0.0142199
760.557	0.0143569
760.635	0.0144086
760.713	0.0144116
760.791	0.0143703
760.869	0.0143312
760.947	0.0142358
761.025	0.0143185
761.103	0.0142495
761.182	0.0142409
761.260	0.0143201
761.338	0.0142706
761.416	0.0143439
761.494	0.0143412
761.572	0.0142439
761.650	0.0141305
761.728	0.0141993
761.807	0.0142677
761.885	0.0144451
761.963	0.0143067
762.041	0.0143733
762.119	0.0144542
762.197	0.0144827
762.275	0.0143853
762.353	0.0144765
762.432	0.0145020
762.510	0.0144411
762.588	0.0145145
762.666	0.0144967
762.744	0.0145384
762.822	0.0144315
762.900	0.0143465
762.978	0.0143081
763.057	0.0142805
763.135	0.0141779
763.213	0.0140958
763.291	0.0142023
763.369	0.0142164
763.447	0.0140656
763.525	0.0139750
763.603	0.0139961
763.682	0.0139097
763.760	0.0138861
763.838	0.0138596
763.916	0.0139202
763.994	0.0137751
764.072	0.0139478
764.150	0.0138935
764.228	0.0137824
764.307	0.0140295
764.385	0.0137228
764.463	0.0138051
764.541	0.0138416
764.619	0.0137776
764.697	0.0138221
764.775	0.0138435
764.853	0.0140044
764.932	0.0138794
765.010	0.0139940
765.088	0.0139201
765.166	0.0138973
765.244	0.0139571
765.322	0.0140826
765.400	0.0142045
765.478	0.0142223
765.557	0.0141483
765.635	0.0143361
765.713	0.0143604
765.791	0.0144553
765.869	0.0144793
765.947	0.0146059
766.025	0.0146748
766.103	0.0145956
766.182	0.0147662
766.260	0.0148408
766.338	0.0147836
766.416	0.0149000
766.494	0.0149993
766.572	0.0149113
766.650	0.0147944
766.728	0.0149885
766.807	0.0148869
766.885	0.0148366
766.963	0.0147414
767.041	0.0147542
767.119	0.0147406
767.197	0.0146467
767.275	0.0143249
767.353	0.0141652
767.432	0.0141475
767.510	0.0141014
767.588	0.0139582
767.666	0.0139203
767.744	0.0138854
767.822	0.0136687
767.900	0.0136374
767.978	0.0136983
768.057	0.0136111
768.135	0.0137482
768.213	0.0136134
768.291	0.0136362
768.369	0.0134569
768.447	0.0138415
768.525	0.0139342
768.603	0.0137704
768.682	0.0138658
768.760	0.0139266
768.838	0.0139233
768.916	0.0140438
768.994	0.0140813
769.072	0.0142173
769.150	0.0142943
769.228	0.0142081
769.307	0.0143399
769.385	0.0143861
769.463	0.0144416
769.541	0.0143378
769.619	0.0144862
769.697	0.0145314
769.775	0.0145306
769.853	0.0146643
769.932	0.0145782
770.010	0.0145926
770.088	0.0145738
770.166	0.0144694
770.244	0.0146657
770.322	0.0144274
770.400	0.0144080
770.478	0.0146099
770.557	0.0143964
770.635	0.0144205
770.713	0.0143216
770.791	0.0142181
770.869	0.0142457
770.947	0.0143285
771.025	0.0142514
771.103	0.0140504
771.182	0.0139948
771.260	0.0141086
771.338	0.0140601
771.416	0.0138644
771.494	0.0138839
771.572	0.0139942
771.650	0.0138938
771.728	0.0139632
771.807	0.0138041
771.885	0.0138837
771.963	0.0137968
772.041	0.0138046
772.119	0.0138888
772.197	0.0140263
772.275	0.0139450
772.353	0.0138128
772.432	0.0139072
772.510	0.0137854
772.588	0.0137489
772.666	0.0139207
772.744	0.0137899
772.822	0.0137534
772.900	0.0138086
772.978	0.0138087
773.057	0.0137231
773.135	0.0137254
773.213	0.0138476
773.291	0.0138248
773.369	0.0139165
773.447	0.0138794
773.525	0.0138490
773.603	0.0137436
773.682	0.0138937
773.760	0.0138361
773.838	0.0137859
773.916	0.0141030
773.994	0.0139657
774.072	0.0139520
774.150	0.0140713
774.228	0.0140511
774.307	0.0142591
774.385	0.0142593
774.463	0.0142782
774.541	0.0143427
774.619	0.0144815
774.697	0.0145018
774.775	0.0145731
774.853	0.0145876
774.932	0.0145435
775.010	0.0149896
775.088	0.0148450
775.166	0.0148032
775.244	0.0147452
775.322	0.0148694
775.400	0.0148551
775.478	0.0146301
775.557	0.0146972
775.635	0.0147395
775.713	0.0147703
775.791	0.0146992
775.869	0.0145226
775.947	0.0145622
776.025	0.0145876
776.103	0.0144462
776.182	0.0144862
776.260	0.0145031
776.338	0.0142926
776.416	0.0143385
776.494	0.0140963
776.572	0.0140053
776.650	0.0140293
776.728	0.0139267
776.807	0.0138771
776.885	0.0139323
776.963	0.0138109
777.041	0.0137317
777.119	0.0138249
777.197	0.0137363
777.275	0.0137013
777.353	0.0136526
777.432	0.0135100
777.510	0.0134541
777.588	0.0135060
777.666	0.0136867
777.744	0.0135295
777.822	0.0136084
777.900	0.0137437
777.978	0.0137109
778.057	0.0136130
778.135	0.0139021
778.213	0.0139485
778.291	0.0140900
778.369	0.0140115
778.447	0.0140457
778.525	0.0142107
778.603	0.0141798
778.682	0.0143299
778.760	0.0143293
778.838	0.0143552
778.916	0.0143176
778.994	0.0144519
779.072	0.0143708
779.150	0.0145352
779.228	0.0144441
779.307	0.0145945
779.385	0.0144857
779.463	0.0143641
779.541	0.0144704
779.619	0.0144229
779.697	0.0144856
779.775	0.0144716
779.853	0.0145448
779.932	0.0144334
780.010	0.0144568
780.088	0.0143008
780.166	0.0142873
780.244	0.0142740
780.322	0.0143529
780.400	0.0142953
780.478	0.0143909
780.557	0.0143507
780.635	0.0143505
780.713	0.0143760
780.791	0.0142559
780.869	0.0141251
780.947	0.0141270
781.025	0.0141992
781.103	0.0141569
781.182	0.0140275
781.260	0.0138728
781.338	0.0140236
781.416	0.0139964
781.494	0.0140725
781.572	0.0139380
781.650	0.0139545
781.728	0.0140376
781.807	0.0141250
781.885	0.0141276
781.963	0.0139810
782.041	0.0140585
782.119	0.0142339
782.197	0.0141752
782.275	0.0143942
782.353	0.0144331
782.432	0.0144319
782.510	0.0143839
782.588	0.0145665
782.666	0.0147007
782.744	0.0144534
782.822	0.0145759
782.900	0.0146886
782.978	0.0145057
783.057	0.0148383
783.135	0.0146284
783.213	0.0145282
783.291	0.0145467
783.369	0.0146864
783.447	0.0144257
783.525	0.0142857
783.603	0.0143830
783.682	0.0142032
783.760	0.0142414
783.838	0.0142669
783.916	0.0141342
783.994	0.0140816
784.072	0.0140437
784.150	0.0139838
784.228	0.0140030
784.307	0.0139810
784.385	0.0141669
784.463	0.0140868
784.541	0.0141055
784.619	0.0140952
784.697	0.0141559
784.775	0.0142018
784.853	0.0142852
784.932	0.0141049
785.010	0.0141715
785.088	0.0144031
785.166	0.0143498
785.244	0.0144764
785.322	0.0141655
785.400	0.0143523
785.478	0.0143434
785.557	0.0142261
785.635	0.0142377
785.713	0.0141646
785.791	0.0141927
785.869	0.0140493
785.947	0.0141267
786.025	0.0139297
786.103	0.0139919
786.182	0.0139237
786.260	0.0139795
786.338	0.0138865
786.416	0.0139679
786.494	0.0139693
786.572	0.0140505
786.650	0.0139583
786.728	0.0141617
786.807	0.0142517
786.885	0.0143613
786.963	0.0144720
787.041	0.0144279
787.119	0.0145135
787.197	0.0146368
787.275	0.0147079
787.353	0.0145737
787.432	0.0145741
787.510	0.0147357
787.588	0.0146579
787.666	0.0146539
787.744	0.0146745
787.822	0.0146003
787.900	0.0145863
787.978	0.0145937
788.057	0.0144411
788.135	0.0144225
788.213	0.0142459
788.291	0.0144052
788.369	0.0141997
788.447	0.0142136
788.525	0.0141973
788.603	0.0141598
788.682	0.0141419
788.760	0.0140716
788.838	0.0141031
788.916	0.0141701
788.994	0.0140955
789.072	0.0139819
789.150	0.0140279
789.228	0.0140980
789.307	0.0140372
789.385	0.0140054
789.463	0.0141598
789.541	0.0140845
789.619	0.0141042
789.697	0.0142428
789.775	0.0140815
789.853	0.0142052
789.932	0.0141411
790.010	0.0141415
790.088	0.0141846
790.166	0.0141774
790.244	0.0141969
790.322	0.0142223
790.400	0.0142342
790.478	0.0142947
790.557	0.0143460
790.635	0.0143169
790.713	0.0143909
790.791	0.0144418
790.869	0.0142730
790.947	0.0143856
791.025	0.0143520
791.103	0.0142793
791.182	0.0141074
791.260	0.0141786
791.338	0.0143003
791.416	0.0141954
791.494	0.0141225
791.572	0.0141474
791.650	0.0141387
791.728	0.0141063
791.807	0.0139673
791.885	0.0139548
791.963	0.0140914
792.041	0.0140304
792.119	0.0141702
792.197	0.0140726
792.275	0.0139713
792.353	0.0140765
792.432	0.0140845
792.510	0.0141544
792.588	0.0140972
792.666	0.0141585
792.744	0.0142958
792.822	0.0141505
792.900	0.0141593
792.978	0.0138890
793.057	0.0140044
793.135	0.0141100
793.213	0.0139464
793.291	0.0139632
793.369	0.0139697
793.447	0.0139901
793.525	0.0140696
793.603	0.0140746
793.682	0.0140315
793.760	0.0141854
793.838	0.0141788
793.916	0.0141470
793.994	0.0142871
794.072	0.0142765
794.150	0.0144028
794.228	0.0142151
794.307	0.0143113
794.385	0.0142534
794.463	0.0143056
794.541	0.0143018
794.619	0.0141150
794.697	0.0142618
794.775	0.0142873
794.853	0.0142219
794.932	0.0140899
795.010	0.0141811
795.088	0.0141924
795.166	0.0140347
795.244	0.0141911
795.322	0.0142389
795.400	0.0141688
795.478	0.0142612
795.557	0.0141727
795.635	0.0143208
795.713	0.0143163
795.791	0.0143430
795.869	0.0141985
795.947	0.0141961
796.025	0.0144551
796.103	0.0143761
796.182	0.0143690
796.260	0.0143319
796.338	0.0142525
796.416	0.0142462
796.494	0.0143714
796.572	0.0142512
796.650	0.0142112
796.728	0.0141636
796.807	0.0140993
796.885	0.0141008
796.963	0.0141933
797.041	0.0141109
797.119	0.0140509
797.197	0.0139992
797.275	0.0142039
797.353	0.0142270
797.432	0.0140919
797.510	0.0139716
797.588	0.0141084
797.666	0.0141353
797.744	0.0143455
797.822	0.0142888
797.900	0.0144357
797.978	0.0144347
798.057	0.0144236
798.135	0.0144435
798.213	0.0145556
798.291	0.0146857
798.369	0.0146960
798.447	0.0147926
798.525	0.0150182
798.603	0.0149596
798.682	0.0149448
798.760	0.0150307
798.838	0.0151022
798.916	0.0151290
798.994	0.0152304
799.072	0.0152318
799.150	0.0151826
799.228	0.0151419
799.307	0.0151176
799.385	0.0149158
799.463	0.0147761
799.541	0.0147852
799.619	0.0147527
799.697	0.0145903
799.775	0.0144304
799.853	0.0143472
799.932	0.0143076
800.010	0.0142495
800.088	0.0141618
800.166	0.0139920
800.244	0.0139677
800.322	0.0139045
800.400	0.0138578
800.478	0.0138960
800.557	0.0137859
800.635	0.0139384
800.713	0.0137465
800.791	0.0136839
800.869	0.0137806
800.947	0.0137100
801.025	0.0138220
801.103	0.0135406
801.182	0.0136745
801.260	0.0137083
801.338	0.0137009
801.416	0.0138367
801.494	0.0138194
801.572	0.0139903
801.650	0.0140199
801.728	0.0140210
801.807	0.0139637
801.885	0.0140324
801.963	0.0140779
802.041	0.0142490
802.119	0.0140592
802.197	0.0141809
802.275	0.0142646
802.353	0.0142123
802.432	0.0141333
802.510	0.0141772
802.588	0.0142096
802.666	0.0142822
802.744	0.0142064
802.822	0.0141618
802.900	0.0142351
802.978	0.0141423
803.057	0.0141902
803.135	0.0143439
803.213	0.0143804
803.291	0.0143084
803.369	0.0144032
803.447	0.0143211
803.525	0.0144595
803.603	0.0145321
803.682	0.0144572
803.760	0.0145702
803.838	0.0145218
803.916	0.0145669
803.994	0.0144042
804.072	0.0144157
804.150	0.0145693
804.228	0.0145458
804.307	0.0145722
804.385	0.0145306
804.463	0.0145284
804.541	0.0146452
804.619	0.0145596
804.697	0.0144898
804.775	0.0144667
804.853	0.0144872
804.932	0.0144827
805.010	0.0144321
805.088	0.0143740
805.166	0.0143224
805.244	0.0142507
805.322	0.0141908
805.400	0.0142060
805.478	0.0140927
805.557	0.0140531
805.635	0.0140748
805.713	0.0139886
805.791	0.0141583
805.869	0.0140488
805.947	0.0140241
806.025	0.0139575
806.103	0.0138680
806.182	0.0140039
806.260	0.0140108
806.338	0.0141048
806.416	0.0140534
806.494	0.0139960
806.572	0.0140175
806.650	0.0140761
806.728	0.0139987
806.807	0.0140461
806.885	0.0138839
806.963	0.0137843
807.041	0.0138600
807.119	0.0138678
807.197	0.0138024
807.275	0.0138280
807.353	0.0138000
807.432	0.0137397
807.510	0.0138342
807.588	0.0137720
807.666	0.0137479
807.744	0.0138587
807.822	0.0139044
807.900	0.0137323
807.978	0.0137541
808.057	0.0139494
808.135	0.0140204
808.213	0.0140110
808.291	0.0139370
808.369	0.0141721
808.447	0.0141225
808.525	0.0141453
808.603	0.0140636
808.682	0.0141296
808.760	0.0141321
808.838	0.0141701
808.916	0.0141856
808.994	0.0142056
809.072	0.0142123
809.150	0.0141524
809.228	0.0142607
809.307	0.0141899
809.385	0.0139828
809.463	0.0140752
809.541	0.0140383
809.619	0.0139498
809.697	0.0140235
809.775	0.0140077
809.853	0.0138737
809.932	0.0139169
810.010	0.0139521
810.088	0.0140408
810.166	0.0140412
810.244	0.0142404
810.322	0.0143185
810.400	0.0144091
810.478	0.0144794
810.557	0.0145681
810.635	0.0146083
810.713	0.0146508
810.791	0.0147559
810.869	0.0148760
810.947	0.0148186
811.025	0.0149990
811.103	0.0148885
811.182	0.0149537
811.260	0.0150874
811.338	0.0147790
811.416	0.0147147
811.494	0.0146174
811.572	0.0146315
811.650	0.0144302
811.728	0.0144154
811.807	0.0143063
811.885	0.0142506
811.963	0.0139616
812.041	0.0139643
812.119	0.0139194
812.197	0.0137138
812.275	0.0137305
812.353	0.0136026
812.432	0.0137160
812.510	0.0137624
812.588	0.0137846
812.666	0.0138714
812.744	0.0140281
812.822	0.0140608
812.900	0.0139563
812.978	0.0139641
813.057	0.0139998
813.135	0.0141796
813.213	0.0141505
813.291	0.0141245
813.369	0.0142190
813.447	0.0140254
813.525	0.0140012
813.603	0.0140834
813.682	0.0139248
813.760	0.0139192
813.838	0.0139571
813.916	0.0138724
813.994	0.0138402
814.072	0.0140649
814.150	0.0139246
814.228	0.0137877
814.307	0.0136646
814.385	0.0137848
814.463	0.0138763
814.541	0.0138290
814.619	0.0138631
814.697	0.0139758
814.775	0.0139117
814.853	0.0139635
814.932	0.0138565
815.010	0.0140052
815.088	0.0140913
815.166	0.0140643
815.244	0.0141155
815.322	0.0141580
815.400	0.0141184
815.478	0.0142155
815.557	0.0141817
815.635	0.0142054
815.713	0.0142315
815.791	0.0142271
815.869	0.0143084
815.947	0.0144437
816.025	0.0144986
816.103	0.0144250
816.182	0.0144786
816.260	0.0145632
816.338	0.0145574
816.416	0.0146624
816.494	0.0146874
816.572	0.0145722
816.650	0.0146647
816.728	0.0146423
816.807	0.0146362
816.885	0.0145989
816.963	0.0145187
817.041	0.0146342
817.119	0.0146128
817.197	0.0145217
817.275	0.0146013
817.353	0.0144379
817.432	0.0143065
817.510	0.0143928
817.588	0.0143841
817.666	0.0141080
817.744	0.0140933
817.822	0.0139364
817.900	0.0139656
817.978	0.0139658
818.057	0.0139552
818.135	0.0139171
818.213	0.0139484
818.291	0.0139272
818.369	0.0139723
818.447	0.0139124
818.525	0.0141029
818.603	0.0140042
818.682	0.0141075
818.760	0.0141946
818.838	0.0141753
818.916	0.0142567
818.994	0.0145290
819.072	0.0144332
819.150	0.0142951
819.228	0.0145202
819.307	0.0147242
819.385	0.0147269
819.463	0.0147893
819.541	0.0147055
819.619	0.0146422
819.697	0.0147173
819.775	0.0145512
819.853	0.0146156
819.932	0.0145093
820.010	0.0143646
820.088	0.0141689
820.166	0.0141228
820.244	0.0140517
820.322	0.0139556
820.400	0.0140658
820.478	0.0140279
820.557	0.0137877
820.635	0.0138956
820.713	0.0139854
820.791	0.0141304
820.869	0.0141571
820.947	0.0140944
821.025	0.0141042
821.103	0.0142093
821.182	0.0143062
821.260	0.0144051
821.338	0.0144139
821.416	0.0145485
821.494	0.0146088
821.572	0.0146989
821.650	0.0147785
821.728	0.0147681
821.807	0.0149227
821.885	0.0148446
821.963	0.0148466
822.041	0.0149397
822.119	0.0148112
822.197	0.0148553
822.275	0.0147749
822.353	0.0145943
822.432	0.0145212
822.510	0.0144885
822.588	0.0144997
822.666	0.0144902
822.744	0.0143210
822.822	0.0142198
822.900	0.0141145
822.978	0.0141212
823.057	0.0140401
823.135	0.0139085
823.213	0.0139411
823.291	0.0139103
823.369	0.0140706
823.447	0.0139854
823.525	0.0139042
823.603	0.0140636
823.682	0.0140863
823.760	0.0141495
823.838	0.0141709
823.916	0.0142932
823.994	0.0143176
824.072	0.0143711
824.150	0.0143935
824.228	0.0144570
824.307	0.0144333
824.385	0.0144775
824.463	0.0146197
824.541	0.0145322
824.619	0.0145367
824.697	0.0146165
824.775	0.0146001
824.853	0.0145277
824.932	0.0146265
825.010	0.0145711
825.088	0.0145333
825.166	0.0145218
825.244	0.0144816
825.322	0.0144063
825.400	0.0144287
825.478	0.0141890
825.557	0.0143961
825.635	0.0142944
825.713	0.0142415
825.791	0.0139870
825.869	0.0138220
825.947	0.0138355
826.025	0.0138452
826.103	0.0136639
826.182	0.0136891
826.260	0.0136732
826.338	0.0135226
826.416	0.0135910
826.494	0.0136559
826.572	0.0134386
826.650	0.0134518
826.728	0.0136108
826.807	0.0136306
826.885	0.0137726
826.963	0.0137675
827.041	0.0136524
827.119	0.0140321
827.197	0.0140601
827.275	0.0140527
827.353	0.0140596
827.432	0.0142454
827.510	0.0144094
827.588	0.0143716
827.666	0.0145298
827.744	0.0146031
827.822	0.0145858
827.900	0.0145750
827.978	0.0145551
828.057	0.0145448
828.135	0.0144115
828.213	0.0142938
828.291	0.0142996
828.369	0.0141859
828.447	0.0143231
828.525	0.0139677
828.603	0.0137833
828.682	0.0138651
828.760	0.0137628
828.838	0.0138176
828.916	0.0137446
828.994	0.0136472
829.072	0.0137144
829.150	0.0138441
829.228	0.0136931
829.307	0.0138555
829.385	0.0138690
829.463	0.0137955
829.541	0.0141265
829.619	0.0140782
829.697	0.0141998
829.775	0.0141687
829.853	0.0143575
829.932	0.0144598
830.010	0.0143954
830.088	0.0144765
830.166	0.0143493
830.244	0.0143402
830.322	0.0143444
830.400	0.0143284
830.478	0.0144091
830.557	0.0143050
830.635	0.0144175
830.713	0.0142856
830.791	0.0141940
830.869	0.0140256
830.947	0.0140400
831.025	0.0138027
831.103	0.0139285
831.182	0.0137559
831.260	0.0137331
831.338	0.0137217
831.416	0.0135394
831.494	0.0134766
831.572	0.0134999
831.650	0.0134426
831.728	0.0134241
831.807	0.0135171
831.885	0.0135898
831.963	0.0136136
832.041	0.0136469
832.119	0.0137987
832.197	0.0139087
832.275	0.0141350
832.353	0.0141502
832.432	0.0141423
832.510	0.0143070
832.588	0.0143896
832.666	0.0146143
832.744	0.0146877
832.822	0.0146832
832.900	0.0146467
832.978	0.0147013
833.057	0.0147428
833.135	0.0146796
833.213	0.0146349
833.291	0.0144801
833.369	0.0144321
833.447	0.0144205
833.525	0.0142677
833.603	0.0142368
833.682	0.0140231
833.760	0.0140823
833.838	0.0140977
833.916	0.0140746
833.994	0.0139355
834.072	0.0138893
834.150	0.0138638
834.228	0.0138242
834.307	0.0138219
834.385	0.0138064
834.463	0.0138488
834.541	0.0138654
834.619	0.0138779
834.697	0.0138081
834.775	0.0137388
834.853	0.0139764
834.932	0.0140208
835.010	0.0141492
835.088	0.0141243
835.166	0.0140931
835.244	0.0141382
835.322	0.0142901
835.400	0.0144139
835.478	0.0145367
835.557	0.0144731
835.635	0.0146109
835.713	0.0147121
835.791	0.0145420
835.869	0.0146759
835.947	0.0146396
836.025	0.0145565
836.103	0.0144399
836.182	0.0143101
836.260	0.0143498
836.338	0.0142598
836.416	0.0142982
836.494	0.0141855
836.572	0.0139798
836.650	0.0140105
836.728	0.0139830
836.807	0.0137465
836.885	0.0137652
836.963	0.0137350
837.041	0.0137502
837.119	0.0137062
837.197	0.0137681
837.275	0.0136734
837.353	0.0136918
837.432	0.0137444
837.510	0.0137688
837.588	0.0139587
837.666	0.0139908
837.744	0.0138683
837.822	0.0139455
837.900	0.0139232
837.978	0.0140240
838.057	0.0141663
838.135	0.0142885
838.213	0.0141279
838.291	0.0141353
838.369	0.0142719
838.447	0.0143203
838.525	0.0143369
838.603	0.0144572
838.682	0.0143568
838.760	0.0143671
838.838	0.0142244
838.916	0.0142390
838.994	0.0143552
839.072	0.0143986
839.150	0.0143576
839.228	0.0141658
839.307	0.0142660
839.385	0.0142916
839.463	0.0142115
839.541	0.0142700
839.619	0.0143005
839.697	0.0141610
839.775	0.0142838
839.853	0.0142490
839.932	0.0143874
840.010	0.0142487
840.088	0.0143755
840.166	0.0142052
840.244	0.0142299
840.322	0.0143449
840.400	0.0144257
840.478	0.0144041
840.557	0.0143618
840.635	0.0143605
840.713	0.0142930
840.791	0.0142202
840.869	0.0144347
840.947	0.0143614
841.025	0.0144031
841.103	0.0142857
841.182	0.0141553
841.260	0.0141805
841.338	0.0144097
841.416	0.0143484
841.494	0.0142232
841.572	0.0142469
841.650	0.0143192
841.728	0.0142670
841.807	0.0142435
841.885	0.0142590
841.963	0.0141614
842.041	0.0141397
842.119	0.0141248
842.197	0.0143584
842.275	0.0141081
842.353	0.0141831
842.432	0.0142397
842.510	0.0142420
842.588	0.0141867
842.666	0.0143292
842.744	0.0142705
842.822	0.0142248
842.900	0.0143609
842.978	0.0142850
843.057	0.0142319
843.135	0.0143697
843.213	0.0142702
843.291	0.0143427
843.369	0.0143686
843.447	0.0143760
843.525	0.0142688
843.603	0.0143247
843.682	0.0144043
843.760	0.0142536
843.838	0.0142393
843.916	0.0141614
843.994	0.0141208
844.072	0.0141582
844.150	0.0139496
844.228	0.0140330
844.307	0.0141987
844.385	0.0140435
844.463	0.0141381
844.541	0.0140981
844.619	0.0140444
844.697	0.0142770
844.775	0.0141843
844.853	0.0140868
844.932	0.0141206
845.010	0.0141242
845.088	0.0142100
845.166	0.0142413
845.244	0.0142128
845.322	0.0141946
845.400	0.0142543
845.478	0.0143380
845.557	0.0142757
845.635	0.0142258
845.713	0.0142467
845.791	0.0143073
845.869	0.0143430
845.947	0.0144455
846.025	0.0144260
846.103	0.0144923
846.182	0.0144154
846.260	0.0143562
846.338	0.0143687
846.416	0.0144329
846.494	0.0146191
846.572	0.0144936
846.650	0.0144342
846.728	0.0145055
846.807	0.0143427
846.885	0.0142842
846.963	0.0145353
847.041	0.0143679
847.119	0.0143391
847.197	0.0143629
847.275	0.0142278
847.353	0.0143065
847.432	0.0143208
847.510	0.0142536
847.588	0.0142290
847.666	0.0140118
847.744	0.0140172
847.822	0.0141090
847.900	0.0142065
847.978	0.0140018
848.057	0.0139835
848.135	0.0140945
848.213	0.0141463
848.291	0.0139955
848.369	0.0140299
848.447	0.0139614
848.525	0.0138461
848.603	0.0137424
848.682	0.0140188
848.760	0.0140077
848.838	0.0137896
848.916	0.0138401
848.994	0.0139387
849.072	0.0139853
849.150	0.0137627
849.228	0.0139107
849.307	0.0139367
849.385	0.0140572
849.463	0.0139172
849.541	0.0139695
849.619	0.0139223
849.697	0.0139647
849.775	0.0138887
849.853	0.0139771
849.932	0.0140040
850.010	0.0140426
850.088	0.0139895
850.166	0.0142511
850.244	0.0142060
850.322	0.0141458
850.400	0.0141354
850.478	0.0141503
850.557	0.0143125
850.635	0.0141319
850.713	0.0143011
850.791	0.0142437
850.869	0.0142757
850.947	0.0143291
851.025	0.0142496
851.103	0.0141740
851.182	0.0141700
851.260	0.0141680
851.338	0.0140295
851.416	0.0140916
851.494	0.0139894
851.572	0.0140099
851.650	0.0140667
851.728	0.0139512
851.807	0.0139953
851.885	0.0138854
851.963	0.0139735
852.041	0.0139992
852.119	0.0139909
852.197	0.0138828
852.275	0.0138229
852.353	0.0139635
852.432	0.0139392
852.510	0.0140119
852.588	0.0141069
852.666	0.0141131
852.744	0.0141364
852.822	0.0141856
852.900	0.0140957
852.978	0.0141367
853.057	0.0141091
853.135	0.0142777
853.213	0.0143988
853.291	0.0143547
853.369	0.0143247
853.447	0.0143342
853.525	0.0142780
853.603	0.0144791
853.682	0.0144188
853.760	0.0142188
853.838	0.0143628
853.916	0.0142175
853.994	0.0143061
854.072	0.0143539
854.150	0.0143166
854.228	0.0143464
854.307	0.0145110
854.385	0.0144191
854.463	0.0143335
854.541	0.0144464
854.619	0.0144085
854.697	0.0143674
854.775	0.0144854
854.853	0.0142604
854.932	0.0142838
855.010	0.0141411
855.088	0.0143044
855.166	0.0141724
855.244	0.0141247
855.322	0.0142097
855.400	0.0140903
855.478	0.0141134
855.557	0.0140856
855.635	0.0140771
855.713	0.0139609
855.791	0.0139785
855.869	0.0138730
855.947	0.0138333
856.025	0.0139323
856.103	0.0139952
856.182	0.0141016
856.260	0.0140615
856.338	0.0140908
856.416	0.0140419
856.494	0.0141129
856.572	0.0139876
856.650	0.0140254
856.728	0.0141315
856.807	0.0141432
856.885	0.0141631
856.963	0.0142865
857.041	0.0144050
857.119	0.0142387
857.197	0.0143441
857.275	0.0142133
857.353	0.0145255
857.432	0.0144424
857.510	0.0144013
857.588	0.0144686
857.666	0.0146268
857.744	0.0144250
857.822	0.0144490
857.900	0.0146401
857.978	0.0145647
858.057	0.0145290
858.135	0.0144673
858.213	0.0146031
858.291	0.0144378
858.369	0.0144106
858.447	0.0143765
858.525	0.0142982
858.603	0.0144201
858.682	0.0143067
858.760	0.0142367
858.838	0.0141226
858.916	0.0142502
858.994	0.0140788
859.072	0.0139456
859.150	0.0139349
859.228	0.0139367
859.307	0.0140428
859.385	0.0138661
859.463	0.0138055
859.541	0.0140362
859.619	0.0139133
859.697	0.0139491
859.775	0.0139283
859.853	0.0139444
859.932	0.0139953
860.010	0.0140362
860.088	0.0139886
860.166	0.0140260
860.244	0.0141508
860.322	0.0142384
860.400	0.0141234
860.478	0.0141386
860.557	0.0141689
860.635	0.0141090
860.713	0.0142802
860.791	0.0143368
860.869	0.0143621
860.947	0.0143478
861.025	0.0143604
861.103	0.0144315
861.182	0.0144518
861.260	0.0143460
861.338	0.0144897
861.416	0.0144248
861.494	0.0144238
861.572	0.0144328
861.650	0.0144122
861.728	0.0144375
861.807	0.0145057
861.885	0.0143900
861.963	0.0143800
862.041	0.0143980
862.119	0.0144665
862.197	0.0142619
862.275	0.0142915
862.353	0.0143176
862.432	0.0142378
862.510	0.0142377
862.588	0.0142480
862.666	0.0142249
862.744	0.0140709
862.822	0.0140413
862.900	0.0141631
862.978	0.0141147
863.057	0.0141720
863.135	0.0140533
863.213	0.0140271
863.291	0.0139719
863.369	0.0140374
863.447	0.0141187
863.525	0.0141715
863.603	0.0139739
863.682	0.0139993
863.760	0.0140311
863.838	0.0141060
863.916	0.0141163
863.994	0.0142119
864.072	0.0140993
864.150	0.0142076
864.228	0.0141352
864.307	0.0143668
864.385	0.0143176
864.463	0.0142332
864.541	0.0142587
864.619	0.0142813
864.697	0.0142284
864.775	0.0143248
864.853	0.0142535
864.932	0.0141418
865.010	0.0141738
865.088	0.0143467
865.166	0.0142451
865.244	0.0141142
865.322	0.0141996
865.400	0.0142870
865.478	0.0142625
865.557	0.0143212
865.635	0.0143919
865.713	0.0143600
865.791	0.0144129
865.869	0.0142071
865.947	0.0141771
866.025	0.0142983
866.103	0.0143565
866.182	0.0141295
866.260	0.0141859
866.338	0.0141729
866.416	0.0141313
866.494	0.0141569
866.572	0.0141389
866.650	0.0140984
866.728	0.0140734
866.807	0.0141615
866.885	0.0142744
866.963	0.0141300
867.041	0.0142777
867.119	0.0142990
867.197	0.0142184
867.275	0.0140197
867.353	0.0143076
867.432	0.0141525
867.510	0.0142393
867.588	0.0141633
867.666	0.0139466
867.744	0.0140270
867.822	0.0140365
867.900	0.0139337
867.978	0.0140450
868.057	0.0138559
868.135	0.0139799
868.213	0.0139057
868.291	0.0138648
868.369	0.0139996
868.447	0.0139690
868.525	0.0139349
868.603	0.0141554
868.682	0.0140628
868.760	0.0142130
868.838	0.0143690
868.916	0.0141195
868.994	0.0143330
869.072	0.0142197
869.150	0.0142091
869.228	0.0142833
869.307	0.0143066
869.385	0.0144318
869.463	0.0144522
869.541	0.0144852
869.619	0.0142088
869.697	0.0143101
869.775	0.0144818
869.853	0.0144046
869.932	0.0144193
870.010	0.0143481
870.088	0.0144135
870.166	0.0144286
870.244	0.0143597
870.322	0.0143412
870.400	0.0143067
870.478	0.0142568
870.557	0.0142033
870.635	0.0143234
870.713	0.0142351
870.791	0.0140475
870.869	0.0141766
870.947	0.0142083
871.025	0.0143777
871.103	0.0141830
871.182	0.0139935
871.260	0.0139935
871.338	0.0142030
871.416	0.0140009
871.494	0.0139900
871.572	0.0140173
871.650	0.0140475
871.728	0.0139902
871.807	0.0139643
871.885	0.0139637
871.963	0.0139914
872.041	0.0140231
872.119	0.0138875
872.197	0.0139550
872.275	0.0140295
872.353	0.0140853
872.432	0.0141350
872.510	0.0139023
872.588	0.0141454
872.666	0.0140688
872.744	0.0141676
872.822	0.0142603
872.900	0.0143616
872.978	0.0143300
873.057	0.0143226
873.135	0.0144527
873.213	0.0144748
873.291	0.0145340
873.369	0.0144219
873.447	0.0144986
873.525	0.0144771
873.603	0.0144198
873.682	0.0144635
873.760	0.0144852
873.838	0.0145615
873.916	0.0144505
873.994	0.0143473
874.072	0.0142871
874.150	0.0141833
874.228	0.0143217
874.307	0.0144443
874.385	0.0142014
874.463	0.0141895
874.541	0.0143063
874.619	0.0141144
874.697	0.0141119
874.775	0.0142339
874.853	0.0140656
874.932	0.0140431
875.010	0.0139785
875.088	0.0139010
875.166	0.0140443
875.244	0.0138948
875.322	0.0138603
875.400	0.0138637
875.478	0.0138154
875.557	0.0137749
875.635	0.0136530
875.713	0.0136818
875.791	0.0137280
875.869	0.0136137
875.947	0.0136218
876.025	0.0137746
876.103	0.0138945
876.182	0.0138554
876.260	0.0137843
876.338	0.0141365
876.416	0.0142242
876.494	0.0141435
876.572	0.0141261
876.650	0.0143169
876.728	0.0143093
876.807	0.0142779
876.885	0.0145518
876.963	0.0146648
877.041	0.0145383
877.119	0.0145794
877.197	0.0146605
877.275	0.0146982
877.353	0.0146471
877.432	0.0145795
877.510	0.0146385
877.588	0.0147761
877.666	0.0146514
877.744	0.0147213
877.822	0.0147634
877.900	0.0145454
877.978	0.0145374
878.057	0.0145083
878.135	0.0146497
878.213	0.0144380
878.291	0.0142641
878.369	0.0144054
878.447	0.0142715
878.525	0.0143697
878.603	0.0143087
878.682	0.0142233
878.760	0.0142696
878.838	0.0143533
878.916	0.0142713
878.994	0.0140728
879.072	0.0141737
879.150	0.0141223
879.228	0.0141106
879.307	0.0141391
879.385	0.0141449
879.463	0.0140834
879.541	0.0140531
879.619	0.0141385
879.697	0.0141193
879.775	0.0141618
879.853	0.0140935
879.932	0.0140376
880.010	0.0140858
880.088	0.0140829
880.166	0.0141538
880.244	0.0140101
880.322	0.0141679
880.400	0.0141292
880.478	0.0141591
880.557	0.0141348
880.635	0.0139823
880.713	0.0142026
880.791	0.0140666
880.869	0.0141192
880.947	0.0139675
881.025	0.0140468
881.103	0.0142074
881.182	0.0140999
881.260	0.0141232
881.338	0.0141299
881.416	0.0142065
881.494	0.0142085
881.572	0.0141295
881.650	0.0142058
881.728	0.0142450
881.807	0.0142274
881.885	0.0142316
881.963	0.0141661
882.041	0.0143256
882.119	0.0144633
882.197	0.0144533
882.275	0.0144173
882.353	0.0144134
882.432	0.0144258
882.510	0.0143971
882.588	0.0144601
882.666	0.0145139
882.744	0.0145169
882.822	0.0144388
882.900	0.0144419
882.978	0.0144763
883.057	0.0143601
883.135	0.0144115
883.213	0.0143935
883.291	0.0143483
883.369	0.0142880
883.447	0.0143267
883.525	0.0142200
883.603	0.0142365
883.682	0.0142467
883.760	0.0139873
883.838	0.0141711
883.916	0.0143608
883.994	0.0142381
884.072	0.0140077
884.150	0.0140553
884.228	0.0140923
884.307	0.0140604
884.385	0.0139883
884.463	0.0141026
884.541	0.0141920
884.619	0.0140112
884.697	0.0140768
884.775	0.0142480
884.853	0.0142166
884.932	0.0141105
885.010	0.0142016
885.088	0.0142922
885.166	0.0143652
885.244	0.0143465
885.322	0.0144256
885.400	0.0143568
885.478	0.0142858
885.557	0.0144445
885.635	0.0142848
885.713	0.0142887
885.791	0.0143704
885.869	0.0143310
885.947	0.0143404
886.025	0.0142464
886.103	0.0142705
886.182	0.0142998
886.260	0.0142041
886.338	0.0144257
886.416	0.0142749
886.494	0.0142188
886.572	0.0141591
886.650	0.0143061
886.728	0.0142038
886.807	0.0142142
886.885	0.0141183
886.963	0.0141534
887.041	0.0142154
887.119	0.0142058
887.197	0.0142518
887.275	0.0142316
887.353	0.0142261
887.432	0.0142456
887.510	0.0140765
887.588	0.0141544
887.666	0.0142727
887.744	0.0140813
887.822	0.0141138
887.900	0.0142972
887.978	0.0141122
888.057	0.0140580
888.135	0.0140851
888.213	0.0141492
888.291	0.0141867
888.369	0.0141278
888.447	0.0139660
888.525	0.0141930
888.603	0.0142320
888.682	0.0141537
888.760	0.0140911
888.838	0.0141846
888.916	0.0142464
888.994	0.0141280
889.072	0.0143156
889.150	0.0142651
889.228	0.0143644
889.307	0.0142864
889.385	0.0143212
889.463	0.0143214
889.541	0.0143114
889.619	0.0143633
889.697	0.0143740
889.775	0.0143899
889.853	0.0144247
889.932	0.0143124
890.010	0.0145013
890.088	0.0145158
890.166	0.0143101
890.244	0.0143427
890.322	0.0142921
890.400	0.0143092
890.478	0.0142902
890.557	0.0142914
890.635	0.0143348
890.713	0.0141215
890.791	0.0142165
890.869	0.0142226
890.947	0.0141116
891.025	0.0141080
891.103	0.0140005
891.182	0.0140784
891.260	0.0139367
891.338	0.0140485
891.416	0.0139044
891.494	0.0139320
891.572	0.0139130
891.650	0.0138567
891.728	0.0138234
891.807	0.0138348
891.885	0.0138059
891.963	0.0137900
892.041	0.0137044
892.119	0.0137490
892.197	0.0138784
892.275	0.0138590
892.353	0.0139328
892.432	0.0139904
892.510	0.0138936
892.588	0.0141701
892.666	0.0141757
892.744	0.0141987
892.822	0.0140690
892.900	0.0142103
892.978	0.0144118
893.057	0.0143397
893.135	0.0144299
893.213	0.0144184
893.291	0.0144590
893.369	0.0144639
893.447	0.0143900
893.525	0.0146082
893.603	0.0145267
893.682	0.0144616
893.760	0.0143953
893.838	0.0145214
893.916	0.0144585
893.994	0.0145384
894.072	0.0144969
894.150	0.0145257
894.228	0.0144185
894.307	0.0144582
894.385	0.0143860
894.463	0.0142827
894.541	0.0141537
894.619	0.0143468
894.697	0.0144080
894.775	0.0142670
894.853	0.0141888
894.932	0.0142528
895.010	0.0140815
895.088	0.0140715
895.166	0.0141459
895.244	0.0139725
895.322	0.0140945
895.400	0.0139664
895.478	0.0139304
895.557	0.0140328
895.635	0.0140285
895.713	0.0140950
895.791	0.0138165
895.869	0.0140105
895.947	0.0139594
896.025	0.0140892
896.103	0.0140282
896.182	0.0138729
896.260	0.0141484
896.338	0.0140933
896.416	0.0140145
896.494	0.0140633
896.572	0.0138969
896.650	0.0141058
896.728	0.0139590
896.807	0.0140897
896.885	0.0141045
896.963	0.0140148
897.041	0.0139441
897.119	0.0141262
897.197	0.0141137
897.275	0.0142240
897.353	0.0141683
897.432	0.0142253
897.510	0.0142239
897.588	0.0142467
897.666	0.0142365
897.744	0.0141814
897.822	0.0141978
897.900	0.0141223
897.978	0.0141598
898.057	0.0142310
898.135	0.0141606
898.213	0.0142072
898.291	0.0142458
898.369	0.0142060
898.447	0.0142756
898.525	0.0141629
898.603	0.0142255
898.682	0.0141047
898.760	0.0143163
898.838	0.0143177
898.916	0.0142314
898.994	0.0141692
899.072	0.0140992
899.150	0.0141085
899.228	0.0142165
899.307	0.0141665
899.385	0.0141615
899.463	0.0142532
899.541	0.0141537
899.619	0.0142952
899.697	0.0143222
899.775	0.0142181
899.853	0.0142188
899.932	0.0141987
900.010	0.0143596
900.088	0.0143819
900.166	0.0141685
900.244	0.0143230
900.322	0.0142011
900.400	0.0142854
900.478	0.0143438
900.557	0.0142760
900.635	0.0142892
900.713	0.0143564
900.791	0.0142175
900.869	0.0142632
900.947	0.0142641
901.025	0.0142500
901.103	0.0142749
901.182	0.0140997
901.260	0.0141502
901.338	0.0140578
901.416	0.0140414
901.494	0.0142395
901.572	0.0142146
901.650	0.0142915
901.728	0.0142693
901.807	0.0142421
901.885	0.0142564
901.963	0.0142258
902.041	0.0141650
902.119	0.0143645
902.197	0.0143672
902.275	0.0140579
902.353	0.0143301
902.432	0.0143182
902.510	0.0143046
902.588	0.0142484
902.666	0.0142626
902.744	0.0143634
902.822	0.0143523
902.900	0.0143913
902.978	0.0143404
903.057	0.0143491
903.135	0.0143385
903.213	0.0144414
903.291	0.0142260
903.369	0.0142401
903.447	0.0141494
903.525	0.0142558
903.603	0.0143494
903.682	0.0143040
903.760	0.0141328
903.838	0.0140749
903.916	0.0142522
903.994	0.0143067
904.072	0.0142757
904.150	0.0141869
904.228	0.0141230
904.307	0.0142195
904.385	0.0142674
904.463	0.0140856
904.541	0.0141830
904.619	0.0140475
904.697	0.0140867
904.775	0.0141634
904.853	0.0140726
904.932	0.0141291
905.010	0.0142771
905.088	0.0141138
905.166	0.0140929
905.244	0.0143526
905.322	0.0142720
905.400	0.0142044
905.478	0.0141650
905.557	0.0142229
905.635	0.0143567
905.713	0.0142593
905.791	0.0143070
905.869	0.0142668
905.947	0.0142765
906.025	0.0143853
906.103	0.0143692
906.182	0.0143127
906.260	0.0143481
906.338	0.0146195
906.416	0.0145014
906.494	0.0144577
906.572	0.0143409
906.650	0.0142072
906.728	0.0143259
906.807	0.0143528
906.885	0.0142586
906.963	0.0143261
907.041	0.0142522
907.119	0.0142207
907.197	0.0142944
907.275	0.0143915
907.353	0.0141918
907.432	0.0140188
907.510	0.0142827
907.588	0.0142856
907.666	0.0141948
907.744	0.0141084
907.822	0.0143496
907.900	0.0142578
907.978	0.0141690
908.057	0.0142823
908.135	0.0142403
908.213	0.0142808
908.291	0.0143008
908.369	0.0143031
908.447	0.0142792
908.525	0.0143259
908.603	0.0142612
908.682	0.0141528
908.760	0.0142084
908.838	0.0142265
908.916	0.0143481
908.994	0.0142442
909.072	0.0142406
909.150	0.0141442
909.228	0.0141919
909.307	0.0142730
909.385	0.0141508
909.463	0.0141232
909.541	0.0142400
909.619	0.0140361
909.697	0.0141070
909.775	0.0141300
909.853	0.0140100
909.932	0.0140599
910.010	0.0141052
910.088	0.0140623
910.166	0.0141069
910.244	0.0141709
910.322	0.0140449
910.400	0.0140263
910.478	0.0141065
910.557	0.0140576
910.635	0.0139946
910.713	0.0140440
910.791	0.0140446
910.869	0.0140559
910.947	0.0141272
911.025	0.0141520
911.103	0.0142558
911.182	0.0142255
911.260	0.0141300
911.338	0.0141159
911.416	0.0143027
911.494	0.0142695
911.572	0.0139600
911.650	0.0141891
911.728	0.0142766
911.807	0.0141733
911.885	0.0142357
911.963	0.0143809
912.041	0.0143445
912.119	0.0143856
912.197	0.0143362
912.275	0.0144324
912.353	0.0142989
912.432	0.0144374
912.510	0.0144363
912.588	0.0145000
912.666	0.0144236
912.744	0.0144568
912.822	0.0143645
912.900	0.0143780
912.978	0.0144736
913.057	0.0145055
913.135	0.0142596
913.213	0.0143374
913.291	0.0143290
913.369	0.0143279
913.447	0.0142796
913.525	0.0141714
913.603	0.0141434
913.682	0.0142258
913.760	0.0141575
913.838	0.0142810
913.916	0.0144337
913.994	0.0143417
914.072	0.0141752
914.150	0.0141723
914.228	0.0142458
914.307	0.0141531
914.385	0.0139961
914.463	0.0140787
914.541	0.0140646
914.619	0.0140868
914.697	0.0139789
914.775	0.0140048
914.853	0.0141373
914.932	0.0140784
915.010	0.0139958
915.088	0.0140723
915.166	0.0140075
915.244	0.0139574
915.322	0.0140308
915.400	0.0141460
915.478	0.0140556
915.557	0.0139421
915.635	0.0141203
915.713	0.0140450
915.791	0.0142769
915.869	0.0142127
915.947	0.0141540
916.025	0.0142336
916.103	0.0143136
916.182	0.0143089
916.260	0.0143667
916.338	0.0143192
916.416	0.0143534
916.494	0.0143941
916.572	0.0144092
916.650	0.0143584
916.728	0.0144000
916.807	0.0144613
916.885	0.0144218
916.963	0.0142652
917.041	0.0145627
917.119	0.0143824
917.197	0.0143768
917.275	0.0142772
917.353	0.0145138
917.432	0.0142410
917.510	0.0143547
917.588	0.0142814
917.666	0.0142622
917.744	0.0143340
917.822	0.0142209
917.900	0.0142035
917.978	0.0142702
918.057	0.0142628
918.135	0.0142440
918.213	0.0141801
918.291	0.0143646
918.369	0.0142600
918.447	0.0141771
918.525	0.0143252
918.603	0.0141862
918.682	0.0141405
918.760	0.0141268
918.838	0.0141606
918.916	0.0142822
918.994	0.0142076
919.072	0.0142608
919.150	0.0142400
919.228	0.0143058
919.307	0.0143832
919.385	0.0144118
919.463	0.0142689
919.541	0.0143404
919.619	0.0144790
919.697	0.0143543
919.775	0.0144019
919.853	0.0144670
919.932	0.0145054
920.010	0.0144893
920.088	0.0145451
920.166	0.0144360
920.244	0.0143857
920.322	0.0144807
920.400	0.0144660
920.478	0.0144723
920.557	0.0146661
920.635	0.0145364
920.713	0.0144369
920.791	0.0144369
920.869	0.0142663
920.947	0.0142943
921.025	0.0143180
921.103	0.0142632
921.182	0.0143049
921.260	0.0143410
921.338	0.0140877
921.416	0.0141397
921.494	0.0140203
921.572	0.0140746
921.650	0.0139784
921.728	0.0140659
921.807	0.0140833
921.885	0.0140266
921.963	0.0139940
922.041	0.0140207
922.119	0.0140807
922.197	0.0140879
922.275	0.0141706
922.353	0.0140127
922.432	0.0141263
922.510	0.0140835
922.588	0.0143900
922.666	0.0143786
922.744	0.0141869
922.822	0.0142607
922.900	0.0141889
922.978	0.0141876
923.057	0.0142358
923.135	0.0143526
923.213	0.0141920
923.291	0.0142398
923.369	0.0142242
923.447	0.0143754
923.525	0.0144044
923.603	0.0142306
923.682	0.0142429
923.760	0.0143510
923.838	0.0142060
923.916	0.0143264
923.994	0.0142973
924.072	0.0144942
924.150	0.0144375
924.228	0.0143549
924.307	0.0143172
924.385	0.0142712
924.463	0.0144067
924.541	0.0143621
924.619	0.0142994
924.697	0.0143529
924.775	0.0143797
924.853	0.0142840
924.932	0.0142980
925.010	0.0142577
925.088	0.0142207
925.166	0.0143073
925.244	0.0142548
925.322	0.0141161
925.400	0.0140965
925.478	0.0141738
925.557	0.0141418
925.635	0.0141557
925.713	0.0140616
925.791	0.0139714
925.869	0.0139915
925.947	0.0139597
926.025	0.0141859
926.103	0.0140929
926.182	0.0141227
926.260	0.0141311
926.338	0.0141927
926.416	0.0141080
926.494	0.0140054
926.572	0.0141709
926.650	0.0143128
926.728	0.0143278
926.807	0.0140856
926.885	0.0140581
926.963	0.0142654
927.041	0.0143077
927.119	0.0141934
927.197	0.0142796
927.275	0.0142762
927.353	0.0142515
927.432	0.0142741
927.510	0.0141895
927.588	0.0140582
927.666	0.0141937
927.744	0.0142982
927.822	0.0141943
927.900	0.0142615
927.978	0.0142019
928.057	0.0141895
928.135	0.0141253
928.213	0.0142060
928.291	0.0142274
928.369	0.0140461
928.447	0.0140054
928.525	0.0141326
928.603	0.0141695
928.682	0.0140302
928.760	0.0140951
928.838	0.0141589
928.916	0.0141248
928.994	0.0140336
929.072	0.0140968
929.150	0.0142335
929.228	0.0141724
929.307	0.0143869
929.385	0.0142131
929.463	0.0141478
929.541	0.0142461
929.619	0.0142040
929.697	0.0142886
929.775	0.0142846
929.853	0.0142408
929.932	0.0142207
930.010	0.0143185
930.088	0.0142722
930.166	0.0141924
930.244	0.0141692
930.322	0.0142373
930.400	0.0142458
930.478	0.0142224
930.557	0.0141814
930.635	0.0141846
930.713	0.0140408
930.791	0.0140718
930.869	0.0141865
930.947	0.0139962
931.025	0.0139428
931.103	0.0140994
931.182	0.0140575
931.260	0.0140576
931.338	0.0140105
931.416	0.0139986
931.494	0.0140951
931.572	0.0140345
931.650	0.0140696
931.728	0.0141209
931.807	0.0143068
931.885	0.0140815
931.963	0.0141586
932.041	0.0142780
932.119	0.0142934
932.197	0.0142206
932.275	0.0142074
932.353	0.0143058
932.432	0.0143488
932.510	0.0142823
932.588	0.0143944
932.666	0.0145686
932.744	0.0144048
932.822	0.0144327
932.900	0.0144147
932.978	0.0144012
933.057	0.0144291
933.135	0.0143546
933.213	0.0144146
933.291	0.0142790
933.369	0.0143278
933.447	0.0144014
933.525	0.0142101
933.603	0.0141723
933.682	0.0142290
933.760	0.0142762
933.838	0.0143331
933.916	0.0142101
933.994	0.0141689
934.072	0.0141656
934.150	0.0141614
934.228	0.0141759
934.307	0.0141333
934.385	0.0140648
934.463	0.0141444
934.541	0.0142130
934.619	0.0144079
934.697	0.0142132
934.775	0.0142508
934.853	0.0142819
934.932	0.0142030
935.010	0.0143152
935.088	0.0142489
935.166	0.0143701
935.244	0.0142740
935.322	0.0142818
935.400	0.0144183
935.478	0.0144646
935.557	0.0144186
935.635	0.0144096
935.713	0.0144707
935.791	0.0142086
935.869	0.0143497
935.947	0.0144855
936.025	0.0144267
936.103	0.0144913
936.182	0.0145284
936.260	0.0144727
936.338	0.0144421
936.416	0.0144881
936.494	0.0143402
936.572	0.0143691
936.650	0.0143863
936.728	0.0142738
936.807	0.0144900
936.885	0.0142775
936.963	0.0142258
937.041	0.0142853
937.119	0.0141972
937.197	0.0142622
937.275	0.0143477
937.353	0.0143187
937.432	0.0142248
937.510	0.0141171
937.588	0.0140233
937.666	0.0141355
937.744	0.0142841
937.822	0.0140357
937.900	0.0141311
937.978	0.0141019
938.057	0.0140455
938.135	0.0139762
938.213	0.0140293
938.291	0.0139938
938.369	0.0140033
938.447	0.0140186
938.525	0.0137656
938.603	0.0138554
938.682	0.0139329
938.760	0.0138767
938.838	0.0140337
938.916	0.0140985
938.994	0.0140709
939.072	0.0140056
939.150	0.0140690
939.228	0.0141476
939.307	0.0142249
939.385	0.0141144
939.463	0.0142821
939.541	0.0142669
939.619	0.0142017
939.697	0.0143378
939.775	0.0144652
939.853	0.0144141
939.932	0.0143674
940.010	0.0144180
940.088	0.0144797
940.166	0.0145623
940.244	0.0144847
940.322	0.0145175
940.400	0.0146642
940.478	0.0146134
940.557	0.0145261
940.635	0.0146361
940.713	0.0146138
940.791	0.0145980
940.869	0.0144445
940.947	0.0145170
941.025	0.0145089
941.103	0.0143824
941.182	0.0144999
941.260	0.0144251
941.338	0.0144556
941.416	0.0144713
941.494	0.0142950
941.572	0.0144226
941.650	0.0143347
941.728	0.0142970
941.807	0.0142768
941.885	0.0142607
941.963	0.0142704
942.041	0.0142435
942.119	0.0143705
942.197	0.0143123
942.275	0.0143700
942.353	0.0143479
942.432	0.0143501
942.510	0.0144002
942.588	0.0142142
942.666	0.0143600
942.744	0.0143137
942.822	0.0142130
942.900	0.0143185
942.978	0.0143381
943.057	0.0142497
943.135	0.0142957
943.213	0.0143580
943.291	0.0144107
943.369	0.0142904
943.447	0.0141912
943.525	0.0143320
943.603	0.0143677
943.682	0.0143183
943.760	0.0143031
943.838	0.0143916
943.916	0.0143218
943.994	0.0141853
944.072	0.0142214
944.150	0.0142947
944.228	0.0141495
944.307	0.0141827
944.385	0.0141666
944.463	0.0142167
944.541	0.0141776
944.619	0.0141660
944.697	0.0140372
944.775	0.0142599
944.853	0.0141405
944.932	0.0141170
945.010	0.0142329
945.088	0.0142181
945.166	0.0140700
945.244	0.0141713
945.322	0.0143211
945.400	0.0142084
945.478	0.0142573
945.557	0.0141570
945.635	0.0141739
945.713	0.0142802
945.791	0.0142336
945.869	0.0141776
945.947	0.0141200
946.025	0.0140038
946.103	0.0141376
946.182	0.0141544
946.260	0.0143642
946.338	0.0142622
946.416	0.0141827
946.494	0.0142151
946.572	0.0142218
946.650	0.0142184
946.728	0.0143831
946.807	0.0142090
946.885	0.0143873
946.963	0.0143703
947.041	0.0143280
947.119	0.0143357
947.197	0.0142524
947.275	0.0142815
947.353	0.0143266
947.432	0.0144105
947.510	0.0143469
947.588	0.0143790
947.666	0.0145111
947.744	0.0144189
947.822	0.0145210
947.900	0.0143492
947.978	0.0144643
948.057	0.0145149
948.135	0.0144649
948.213	0.0143894
948.291	0.0144093
948.369	0.0145065
948.447	0.0144353
948.525	0.0144260
948.603	0.0143666
948.682	0.0143866
948.760	0.0143357
948.838	0.0145551
948.916	0.0143745
948.994	0.0142661
949.072	0.0143301
949.150	0.0142677
949.228	0.0142900
949.307	0.0143089
949.385	0.0142144
949.463	0.0141750
949.541	0.0140832
949.619	0.0141085
949.697	0.0141517
949.775	0.0140410
949.853	0.0139307
949.932	0.0138625
950.010	0.0138615
950.088	0.0137971
950.166	0.0139510
950.244	0.0138277
950.322	0.0137827
950.400	0.0138345
950.478	0.0138805
950.557	0.0137476
950.635	0.0138460
950.713	0.0138091
950.791	0.0138336
950.869	0.0138330
950.947	0.0137997
951.025	0.0136927
951.103	0.0138602
951.182	0.0138348
951.260	0.0137227
951.338	0.0137418
951.416	0.0137245
951.494	0.0139070
951.572	0.0139497
951.650	0.0138461
951.728	0.0139534
951.807	0.0139220
951.885	0.0139604
951.963	0.0140973
952.041	0.0139905
952.119	0.0140494
952.197	0.0141125
952.275	0.0139887
952.353	0.0139833
952.432	0.0141459
952.510	0.0140652
952.588	0.0140846
952.666	0.0140176
952.744	0.0140992
952.822	0.0141552
952.900	0.0141901
952.978	0.0140251
953.057	0.0141241
953.135	0.0140077
953.213	0.0141261
953.291	0.0142577
953.369	0.0141228
953.447	0.0142695
953.525	0.0143139
953.603	0.0142371
953.682	0.0143214
953.760	0.0142985
953.838	0.0143178
953.916	0.0142682
953.994	0.0143204
954.072	0.0143942
954.150	0.0142461
954.228	0.0143181
954.307	0.0142136
954.385	0.0141291
954.463	0.0142644
954.541	0.0143195
954.619	0.0142406
954.697	0.0141849
954.775	0.0141681
954.853	0.0140567
954.932	0.0141067
955.010	0.0141257
955.088	0.0140855
955.166	0.0141650
955.244	0.0140692
955.322	0.0140765
955.400	0.0141121
955.478	0.0140742
955.557	0.0140163
955.635	0.0139886
955.713	0.0141216
955.791	0.0142590
955.869	0.0141381
955.947	0.0141274
956.025	0.0141518
956.103	0.0142267
956.182	0.0141743
956.260	0.0140893
956.338	0.0142555
956.416	0.0142146
956.494	0.0142650
956.572	0.0143051
956.650	0.0142349
956.728	0.0141708
956.807	0.0144109
956.885	0.0144074
956.963	0.0142908
957.041	0.0144345
957.119	0.0142949
957.197	0.0143675
957.275	0.0142589
957.353	0.0144596
957.432	0.0144140
957.510	0.0143823
957.588	0.0142836
957.666	0.0142920
957.744	0.0143567
957.822	0.0144164
957.900	0.0142520
957.978	0.0143578
958.057	0.0143208
958.135	0.0144394
958.213	0.0143386
958.291	0.0144271
958.369	0.0143683
958.447	0.0142239
958.525	0.0143475
958.603	0.0143524
958.682	0.0142229
958.760	0.0141772
958.838	0.0142789
958.916	0.0141497
958.994	0.0142097
959.072	0.0141227
959.150	0.0140144
959.228	0.0140775
959.307	0.0139396
959.385	0.0139595
959.463	0.0139532
959.541	0.0141000
959.619	0.0140367
959.697	0.0139851
959.775	0.0140259
959.853	0.0141240
959.932	0.0139703
960.010	0.0139993
960.088	0.0140054
960.166	0.0140588
960.244	0.0139858
960.322	0.0140067
960.400	0.0139868
960.478	0.0141668
960.557	0.0140192
960.635	0.0140612
960.713	0.0141398
960.791	0.0141092
960.869	0.0141148
960.947	0.0140931
961.025	0.0141891
961.103	0.0141649
961.182	0.0141047
961.260	0.0142299
961.338	0.0142892
961.416	0.0143841
961.494	0.0141696
961.572	0.0142580
961.650	0.0141163
961.728	0.0143462
961.807	0.0143768
961.885	0.0142078
961.963	0.0144329
962.041	0.0143307
962.119	0.0141658
962.197	0.0143638
962.275	0.0144171
962.353	0.0142836
962.432	0.0143803
962.510	0.0141729
962.588	0.0141942
962.666	0.0142921
962.744	0.0144031
962.822	0.0143336
962.900	0.0142307
962.978	0.0143588
963.057	0.0142819
963.135	0.0143788
963.213	0.0142834
963.291	0.0143934
963.369	0.0142232
963.447	0.0142074
963.525	0.0143227
963.603	0.0142041
963.682	0.0141801
963.760	0.0141207
963.838	0.0141244
963.916	0.0139793
963.994	0.0140350
964.072	0.0140454
964.150	0.0140650
964.228	0.0140338
964.307	0.0139454
964.385	0.0139388
964.463	0.0139151
964.541	0.0139504
964.619	0.0137994
964.697	0.0139462
964.775	0.0139872
964.853	0.0138586
964.932	0.0138686
965.010	0.0139668
965.088	0.0140532
965.166	0.0139136
965.244	0.0140511
965.322	0.0140950
965.400	0.0141164
965.478	0.0139957
965.557	0.0142388
965.635	0.0142776
965.713	0.0142351
965.791	0.0142587
965.869	0.0142828
965.947	0.0143628
966.025	0.0143297
966.103	0.0144267
966.182	0.0144485
966.260	0.0145083
966.338	0.0143346
966.416	0.0144403
966.494	0.0142576
966.572	0.0144614
966.650	0.0144509
966.728	0.0144706
966.807	0.0143948
966.885	0.0144147
966.963	0.0144784
967.041	0.0143492
967.119	0.0143456
967.197	0.0144253
967.275	0.0143858
967.353	0.0143539
967.432	0.0143097
967.510	0.0143967
967.588	0.0143555
967.666	0.0143793
967.744	0.0143410
967.822	0.0141970
967.900	0.0141980
967.978	0.0142087
968.057	0.0141353
968.135	0.0142114
968.213	0.0142947
968.291	0.0143152
968.369	0.0141487
968.447	0.0141429
968.525	0.0141982
968.603	0.0141393
968.682	0.0141705
968.760	0.0141751
968.838	0.0142365
968.916	0.0142146
968.994	0.0142485
969.072	0.0142297
969.150	0.0142319
969.228	0.0142988
969.307	0.0142461
969.385	0.0141965
969.463	0.0143004
969.541	0.0141396
969.619	0.0142076
969.697	0.0142313
969.775	0.0141869
969.853	0.0143157
969.932	0.0143147
