05/14/2022	19:36:16	Ver.	4.1	UNKNOWN
Optical Delay	650.009681	Delta X		0.078125	Sweeps	1	Scan Rate	0/0
Coordinates	Axis 1	NaN	Axis 2	NaN	Axis 3	NaN	Axis 4	NaN	Axis 5	NaN	Axis 6	0.000000
TX Power	0.000000	RX Power	0.000000

650.010	0.0143376
650.088	0.0143188
650.166	0.0141873
650.244	0.0143059
650.322	0.0142582
650.400	0.0143427
650.478	0.0144425
650.557	0.0143443
650.635	0.0143394
650.713	0.0143775
650.791	0.0143781
650.869	0.0142767
650.947	0.0144278
651.025	0.0144395
651.103	0.0143729
651.182	0.0144743
651.260	0.0144456
651.338	0.0144382
651.416	0.0145084
651.494	0.0146004
651.572	0.0144182
651.650	0.0143704
651.728	0.0144259
651.807	0.0143292
651.885	0.0143287
651.963	0.0145032
652.041	0.0143181
652.119	0.0143828
652.197	0.0143081
652.275	0.0143988
652.353	0.0144400
652.432	0.0143247
652.510	0.0143473
652.588	0.0144088
652.666	0.0143409
652.744	0.0144450
652.822	0.0144168
652.900	0.0144205
652.978	0.0144273
653.057	0.0144559
653.135	0.0146019
653.213	0.0144517
653.291	0.0143858
653.369	0.0144804
653.447	0.0145670
653.525	0.0144859
653.603	0.0144827
653.682	0.0145733
653.760	0.0146452
653.838	0.0145364
653.916	0.0145854
653.994	0.0146361
654.072	0.0145556
654.150	0.0145685
654.228	0.0144444
654.307	0.0143772
654.385	0.0144746
654.463	0.0146105
654.541	0.0144527
654.619	0.0144991
654.697	0.0145099
654.775	0.0144485
654.853	0.0144981
654.932	0.0145159
655.010	0.0144559
655.088	0.0143998
655.166	0.0143793
655.244	0.0144071
655.322	0.0143977
655.400	0.0143508
655.478	0.0145503
655.557	0.0145154
655.635	0.0143873
655.713	0.0144959
655.791	0.0143736
655.869	0.0144762
655.947	0.0143978
656.025	0.0145158
656.103	0.0145836
656.182	0.0146440
656.260	0.0146655
656.338	0.0145380
656.416	0.0146662
656.494	0.0146214
656.572	0.0146892
656.650	0.0146304
656.728	0.0146688
656.807	0.0145963
656.885	0.0145515
656.963	0.0145345
657.041	0.0143793
657.119	0.0144435
657.197	0.0143580
657.275	0.0141898
657.353	0.0142625
657.432	0.0142822
657.510	0.0142015
657.588	0.0142739
657.666	0.0143642
657.744	0.0142925
657.822	0.0143835
657.900	0.0143423
657.978	0.0143561
658.057	0.0142921
658.135	0.0143415
658.213	0.0142036
658.291	0.0143920
658.369	0.0143320
658.447	0.0144361
658.525	0.0144469
658.603	0.0144525
658.682	0.0144502
658.760	0.0143375
658.838	0.0143848
658.916	0.0143404
658.994	0.0143645
659.072	0.0144304
659.150	0.0144154
659.228	0.0143095
659.307	0.0142747
659.385	0.0143872
659.463	0.0144463
659.541	0.0144218
659.619	0.0144941
659.697	0.0143848
659.775	0.0144122
659.853	0.0144262
659.932	0.0145529
660.010	0.0145361
660.088	0.0146264
660.166	0.0144757
660.244	0.0144736
660.322	0.0145153
660.400	0.0144689
660.478	0.0144833
660.557	0.0144833
660.635	0.0143839
660.713	0.0144650
660.791	0.0142906
660.869	0.0142081
660.947	0.0142630
661.025	0.0141579
661.103	0.0138873
661.182	0.0139455
661.260	0.0140018
661.338	0.0139320
661.416	0.0140034
661.494	0.0138419
661.572	0.0138098
661.650	0.0138995
661.728	0.0139703
661.807	0.0138557
661.885	0.0139597
661.963	0.0139608
662.041	0.0142329
662.119	0.0142580
662.197	0.0142822
662.275	0.0143961
662.353	0.0145374
662.432	0.0146571
662.510	0.0147279
662.588	0.0148997
662.666	0.0148351
662.744	0.0151215
662.822	0.0152271
662.900	0.0150423
662.978	0.0152809
663.057	0.0152635
663.135	0.0152772
663.213	0.0152753
663.291	0.0152236
663.369	0.0153151
663.447	0.0151962
663.525	0.0150882
663.603	0.0147966
663.682	0.0149529
663.760	0.0147900
663.838	0.0144936
663.916	0.0143031
663.994	0.0141531
664.072	0.0138795
664.150	0.0137817
664.228	0.0135651
664.307	0.0133974
664.385	0.0132957
664.463	0.0131368
664.541	0.0130494
664.619	0.0130999
664.697	0.0130199
664.775	0.0128430
664.853	0.0129855
664.932	0.0130118
665.010	0.0130022
665.088	0.0129692
665.166	0.0132448
665.244	0.0133296
665.322	0.0134174
665.400	0.0136506
665.478	0.0140154
665.557	0.0142065
665.635	0.0143646
665.713	0.0145724
665.791	0.0149157
665.869	0.0152604
665.947	0.0156174
666.025	0.0157164
666.103	0.0159844
666.182	0.0161764
666.260	0.0164079
666.338	0.0166852
666.416	0.0168050
666.494	0.0168834
666.572	0.0169656
666.650	0.0169569
666.728	0.0170120
666.807	0.0169273
666.885	0.0167760
666.963	0.0166346
667.041	0.0163829
667.119	0.0160453
667.197	0.0156767
667.275	0.0151912
667.353	0.0148201
667.432	0.0143530
667.510	0.0139507
667.588	0.0133825
667.666	0.0129714
667.744	0.0125355
667.822	0.0121342
667.900	0.0117355
667.978	0.0113232
668.057	0.0112345
668.135	0.0109795
668.213	0.0109242
668.291	0.0108449
668.369	0.0108576
668.447	0.0109245
668.525	0.0110940
668.603	0.0112553
668.682	0.0116033
668.760	0.0118088
668.838	0.0121498
668.916	0.0124249
668.994	0.0129410
669.072	0.0134739
669.150	0.0141055
669.228	0.0145349
669.307	0.0150998
669.385	0.0156879
669.463	0.0162959
669.541	0.0166789
669.619	0.0171490
669.697	0.0175826
669.775	0.0179403
669.853	0.0182544
669.932	0.0184835
670.010	0.0186205
670.088	0.0186584
670.166	0.0185459
670.244	0.0184333
670.322	0.0183762
670.400	0.0180920
670.478	0.0177051
670.557	0.0174039
670.635	0.0170508
670.713	0.0165809
670.791	0.0159822
670.869	0.0153744
670.947	0.0148381
671.025	0.0143164
671.103	0.0137705
671.182	0.0130809
671.260	0.0124266
671.338	0.0120058
671.416	0.0114228
671.494	0.0109555
671.572	0.0106348
671.650	0.0102277
671.728	0.00997948
671.807	0.00986885
671.885	0.00987251
671.963	0.00985985
672.041	0.00983101
672.119	0.0100467
672.197	0.0102444
672.275	0.0106090
672.353	0.0110724
672.432	0.0114852
672.510	0.0117943
672.588	0.0122504
672.666	0.0127087
672.744	0.0135178
672.822	0.0140557
672.900	0.0145837
672.978	0.0151884
673.057	0.0156018
673.135	0.0160783
673.213	0.0165456
673.291	0.0169824
673.369	0.0170746
673.447	0.0174297
673.525	0.0177699
673.603	0.0177674
673.682	0.0178271
673.760	0.0177972
673.838	0.0176570
673.916	0.0176162
673.994	0.0175826
674.072	0.0173419
674.150	0.0170682
674.228	0.0167866
674.307	0.0167346
674.385	0.0163364
674.463	0.0159512
674.541	0.0156958
674.619	0.0153654
674.697	0.0149382
674.775	0.0144769
674.853	0.0142503
674.932	0.0140386
675.010	0.0136130
675.088	0.0133373
675.166	0.0133544
675.244	0.0131791
675.322	0.0130741
675.400	0.0130323
675.478	0.0130373
675.557	0.0129468
675.635	0.0129427
675.713	0.0129478
675.791	0.0130124
675.869	0.0130428
675.947	0.0130590
676.025	0.0130312
676.103	0.0131087
676.182	0.0130514
676.260	0.0129395
676.338	0.0129304
676.416	0.0128890
676.494	0.0129301
676.572	0.0129375
676.650	0.0129468
676.728	0.0128419
676.807	0.0127793
676.885	0.0126966
676.963	0.0129364
677.041	0.0127926
677.119	0.0128233
677.197	0.0128937
677.275	0.0131203
677.353	0.0132134
677.432	0.0132762
677.510	0.0132646
677.588	0.0135660
677.666	0.0139093
677.744	0.0140607
677.822	0.0143546
677.900	0.0147290
677.978	0.0150421
678.057	0.0154002
678.135	0.0156941
678.213	0.0158270
678.291	0.0162878
678.369	0.0164732
678.447	0.0166660
678.525	0.0170105
678.603	0.0172633
678.682	0.0173569
678.760	0.0174490
678.838	0.0174651
678.916	0.0176448
678.994	0.0176276
679.072	0.0175932
679.150	0.0174637
679.228	0.0173255
679.307	0.0169774
679.385	0.0166570
679.463	0.0162688
679.541	0.0161053
679.619	0.0156374
679.697	0.0152578
679.775	0.0147381
679.853	0.0144106
679.932	0.0140495
680.010	0.0136186
680.088	0.0133466
680.166	0.0129836
680.244	0.0126223
680.322	0.0123647
680.400	0.0122415
680.478	0.0119756
680.557	0.0116338
680.635	0.0115797
680.713	0.0114120
680.791	0.0115347
680.869	0.0114309
680.947	0.0114143
681.025	0.0114810
681.103	0.0117214
681.182	0.0118380
681.260	0.0119563
681.338	0.0120856
681.416	0.0123649
681.494	0.0126562
681.572	0.0128547
681.650	0.0131938
681.728	0.0134377
681.807	0.0138100
681.885	0.0140106
681.963	0.0142088
682.041	0.0145206
682.119	0.0146861
682.197	0.0150378
682.275	0.0150808
682.353	0.0152075
682.432	0.0154210
682.510	0.0154887
682.588	0.0155235
682.666	0.0157824
682.744	0.0159055
682.822	0.0158909
682.900	0.0160159
682.978	0.0159492
683.057	0.0162054
683.135	0.0161678
683.213	0.0160183
683.291	0.0161983
683.369	0.0162730
683.447	0.0160873
683.525	0.0161310
683.603	0.0161984
683.682	0.0161562
683.760	0.0160761
683.838	0.0159924
683.916	0.0159119
683.994	0.0156297
684.072	0.0155817
684.150	0.0154187
684.228	0.0151966
684.307	0.0149319
684.385	0.0148029
684.463	0.0146738
684.541	0.0144984
684.619	0.0142040
684.697	0.0139540
684.775	0.0137879
684.853	0.0136567
684.932	0.0135091
685.010	0.0131871
685.088	0.0130682
685.166	0.0128951
685.244	0.0128757
685.322	0.0127505
685.400	0.0126386
685.478	0.0126916
685.557	0.0125008
685.635	0.0126069
685.713	0.0124436
685.791	0.0125358
685.869	0.0125504
685.947	0.0127159
686.025	0.0129197
686.103	0.0131197
686.182	0.0131589
686.260	0.0133524
686.338	0.0136311
686.416	0.0139254
686.494	0.0141222
686.572	0.0142976
686.650	0.0144300
686.728	0.0146541
686.807	0.0147858
686.885	0.0149065
686.963	0.0150227
687.041	0.0152356
687.119	0.0152358
687.197	0.0154225
687.275	0.0155135
687.353	0.0156071
687.432	0.0158733
687.510	0.0157878
687.588	0.0158403
687.666	0.0160845
687.744	0.0160030
687.822	0.0159987
687.900	0.0159215
687.978	0.0159683
688.057	0.0157928
688.135	0.0155669
688.213	0.0155990
688.291	0.0154671
688.369	0.0151797
688.447	0.0148555
688.525	0.0147437
688.603	0.0144776
688.682	0.0145267
688.760	0.0140500
688.838	0.0140751
688.916	0.0139169
688.994	0.0136379
689.072	0.0135188
689.150	0.0134869
689.228	0.0132865
689.307	0.0132944
689.385	0.0134690
689.463	0.0133592
689.541	0.0133426
689.619	0.0134279
689.697	0.0134752
689.775	0.0135597
689.853	0.0137675
689.932	0.0137145
690.010	0.0137384
690.088	0.0141178
690.166	0.0142397
690.244	0.0144388
690.322	0.0145938
690.400	0.0145568
690.478	0.0147771
690.557	0.0151953
690.635	0.0152519
690.713	0.0152980
690.791	0.0154193
690.869	0.0155916
690.947	0.0156406
691.025	0.0155865
691.103	0.0155464
691.182	0.0156064
691.260	0.0154028
691.338	0.0152386
691.416	0.0152316
691.494	0.0150529
691.572	0.0150027
691.650	0.0149505
691.728	0.0145624
691.807	0.0144264
691.885	0.0141540
691.963	0.0140636
692.041	0.0139301
692.119	0.0137553
692.197	0.0136456
692.275	0.0136575
692.353	0.0135719
692.432	0.0133864
692.510	0.0134777
692.588	0.0134472
692.666	0.0135555
692.744	0.0135300
692.822	0.0135009
692.900	0.0135130
692.978	0.0136788
693.057	0.0137378
693.135	0.0139262
693.213	0.0140421
693.291	0.0141608
693.369	0.0144167
693.447	0.0143773
693.525	0.0145045
693.603	0.0144872
693.682	0.0146462
693.760	0.0147569
693.838	0.0147599
693.916	0.0147965
693.994	0.0147916
694.072	0.0148885
694.150	0.0147898
694.228	0.0147411
694.307	0.0147594
694.385	0.0147216
694.463	0.0146801
694.541	0.0145221
694.619	0.0145306
694.697	0.0144117
694.775	0.0144040
694.853	0.0143574
694.932	0.0142406
695.010	0.0141920
695.088	0.0142229
695.166	0.0139924
695.244	0.0141197
695.322	0.0141520
695.400	0.0141539
695.478	0.0140471
695.557	0.0141554
695.635	0.0140733
695.713	0.0142577
695.791	0.0142658
695.869	0.0143763
695.947	0.0142443
696.025	0.0142247
696.103	0.0142457
696.182	0.0144853
696.260	0.0144872
696.338	0.0143414
696.416	0.0144815
696.494	0.0145018
696.572	0.0144949
696.650	0.0144425
696.728	0.0145489
696.807	0.0146345
696.885	0.0145612
696.963	0.0146614
697.041	0.0146921
697.119	0.0146405
697.197	0.0146253
697.275	0.0146463
697.353	0.0145608
697.432	0.0147236
697.510	0.0144474
697.588	0.0144933
697.666	0.0144884
697.744	0.0145348
697.822	0.0144640
697.900	0.0144173
697.978	0.0144875
698.057	0.0144516
698.135	0.0143682
698.213	0.0143315
698.291	0.0143205
698.369	0.0142308
698.447	0.0141052
698.525	0.0143059
698.603	0.0142741
698.682	0.0143668
698.760	0.0143624
698.838	0.0143282
698.916	0.0145104
698.994	0.0145107
699.072	0.0145078
699.150	0.0145597
699.228	0.0146513
699.307	0.0146956
699.385	0.0146194
699.463	0.0148480
699.541	0.0147873
699.619	0.0147733
699.697	0.0148504
699.775	0.0148116
699.853	0.0147492
699.932	0.0145847
700.010	0.0145480
700.088	0.0144266
700.166	0.0142607
700.244	0.0141924
700.322	0.0140446
700.400	0.0137305
700.478	0.0136665
700.557	0.0135229
700.635	0.0134256
700.713	0.0131724
700.791	0.0130571
700.869	0.0129867
700.947	0.0126653
701.025	0.0127248
701.103	0.0126846
701.182	0.0127111
701.260	0.0127033
701.338	0.0127055
701.416	0.0127877
701.494	0.0128640
701.572	0.0130971
701.650	0.0132684
701.728	0.0133743
701.807	0.0138770
701.885	0.0138879
701.963	0.0139703
702.041	0.0143690
702.119	0.0147062
702.197	0.0149415
702.275	0.0151933
702.353	0.0154610
702.432	0.0156447
702.510	0.0159600
702.588	0.0161921
702.666	0.0164092
702.744	0.0166245
702.822	0.0165422
702.900	0.0167090
702.978	0.0168485
703.057	0.0168875
703.135	0.0170144
703.213	0.0169040
703.291	0.0169053
703.369	0.0166438
703.447	0.0165173
703.525	0.0165365
703.603	0.0162956
703.682	0.0159193
703.760	0.0158157
703.838	0.0154758
703.916	0.0151063
703.994	0.0148831
704.072	0.0145429
704.150	0.0142390
704.228	0.0139629
704.307	0.0135075
704.385	0.0131107
704.463	0.0128044
704.541	0.0125758
704.619	0.0123283
704.697	0.0120096
704.775	0.0117869
704.853	0.0118752
704.932	0.0115577
705.010	0.0113377
705.088	0.0112464
705.166	0.0112390
705.244	0.0113055
705.322	0.0115600
705.400	0.0115505
705.478	0.0116763
705.557	0.0118165
705.635	0.0121144
705.713	0.0122330
705.791	0.0124738
705.869	0.0127480
705.947	0.0130226
706.025	0.0132261
706.103	0.0135760
706.182	0.0138005
706.260	0.0141022
706.338	0.0143319
706.416	0.0144164
706.494	0.0146980
706.572	0.0148830
706.650	0.0151075
706.728	0.0151519
706.807	0.0154382
706.885	0.0156554
706.963	0.0156933
707.041	0.0157915
707.119	0.0158130
707.197	0.0159274
707.275	0.0159937
707.353	0.0160303
707.432	0.0159834
707.510	0.0159969
707.588	0.0159406
707.666	0.0161044
707.744	0.0157790
707.822	0.0157547
707.900	0.0157578
707.978	0.0158598
708.057	0.0155600
708.135	0.0154692
708.213	0.0153750
708.291	0.0153019
708.369	0.0153065
708.447	0.0151099
708.525	0.0151227
708.603	0.0150751
708.682	0.0149464
708.760	0.0147698
708.838	0.0146397
708.916	0.0148348
708.994	0.0146746
709.072	0.0145112
709.150	0.0144039
709.228	0.0143530
709.307	0.0143762
709.385	0.0141512
709.463	0.0140691
709.541	0.0142018
709.619	0.0141251
709.697	0.0139440
709.775	0.0139080
709.853	0.0139266
709.932	0.0139937
710.010	0.0139384
710.088	0.0138460
710.166	0.0138213
710.244	0.0136831
710.322	0.0137859
710.400	0.0138367
710.478	0.0138630
710.557	0.0136906
710.635	0.0136578
710.713	0.0137379
710.791	0.0136324
710.869	0.0136051
710.947	0.0135564
711.025	0.0135280
711.103	0.0135001
711.182	0.0135809
711.260	0.0135464
711.338	0.0135247
711.416	0.0135506
711.494	0.0136042
711.572	0.0137246
711.650	0.0137630
711.728	0.0138838
711.807	0.0141479
711.885	0.0142717
711.963	0.0143638
712.041	0.0145933
712.119	0.0147076
712.197	0.0148041
712.275	0.0149342
712.353	0.0150921
712.432	0.0152846
712.510	0.0154329
712.588	0.0154268
712.666	0.0155454
712.744	0.0155185
712.822	0.0154360
712.900	0.0154138
712.978	0.0153547
713.057	0.0152956
713.135	0.0153584
713.213	0.0150997
713.291	0.0149947
713.369	0.0148708
713.447	0.0146033
713.525	0.0145145
713.603	0.0144511
713.682	0.0143409
713.760	0.0142606
713.838	0.0141194
713.916	0.0139573
713.994	0.0140434
714.072	0.0140870
714.150	0.0138940
714.228	0.0138865
714.307	0.0139758
714.385	0.0139314
714.463	0.0140541
714.541	0.0139763
714.619	0.0141429
714.697	0.0142508
714.775	0.0144205
714.853	0.0144679
714.932	0.0144575
715.010	0.0145416
715.088	0.0148080
715.166	0.0148308
715.244	0.0149047
715.322	0.0148816
715.400	0.0150172
715.478	0.0150417
715.557	0.0151472
715.635	0.0151049
715.713	0.0150596
715.791	0.0151257
715.869	0.0149812
715.947	0.0148763
716.025	0.0150383
716.103	0.0149380
716.182	0.0147729
716.260	0.0147798
716.338	0.0146446
716.416	0.0145162
716.494	0.0145015
716.572	0.0144004
716.650	0.0143513
716.728	0.0143079
716.807	0.0139542
716.885	0.0138501
716.963	0.0137670
717.041	0.0136399
717.119	0.0136201
717.197	0.0135034
717.275	0.0134969
717.353	0.0132463
717.432	0.0132321
717.510	0.0131966
717.588	0.0132452
717.666	0.0131692
717.744	0.0131636
717.822	0.0132722
717.900	0.0133272
717.978	0.0133778
718.057	0.0133969
718.135	0.0134913
718.213	0.0135653
718.291	0.0136551
718.369	0.0138728
718.447	0.0137510
718.525	0.0137738
718.603	0.0139229
718.682	0.0138784
718.760	0.0140347
718.838	0.0140048
718.916	0.0140475
718.994	0.0140812
719.072	0.0142108
719.150	0.0141383
719.228	0.0141922
719.307	0.0140871
719.385	0.0144525
719.463	0.0144930
719.541	0.0145241
719.619	0.0144810
719.697	0.0145065
719.775	0.0146231
719.853	0.0145904
719.932	0.0147441
720.010	0.0148400
720.088	0.0148460
720.166	0.0149786
720.244	0.0147847
720.322	0.0151452
720.400	0.0151441
720.478	0.0152283
720.557	0.0153389
720.635	0.0152083
720.713	0.0153144
720.791	0.0152342
720.869	0.0152936
720.947	0.0154491
721.025	0.0152097
721.103	0.0152272
721.182	0.0152629
721.260	0.0150822
721.338	0.0149855
721.416	0.0149134
721.494	0.0148694
721.572	0.0148759
721.650	0.0147460
721.728	0.0145923
721.807	0.0146568
721.885	0.0146241
721.963	0.0145005
722.041	0.0145002
722.119	0.0144388
722.197	0.0143562
722.275	0.0143884
722.353	0.0143983
722.432	0.0142588
722.510	0.0141370
722.588	0.0141180
722.666	0.0139871
722.744	0.0141479
722.822	0.0140582
722.900	0.0139669
722.978	0.0139352
723.057	0.0139468
723.135	0.0137919
723.213	0.0136993
723.291	0.0136834
723.369	0.0136495
723.447	0.0134396
723.525	0.0134262
723.603	0.0132528
723.682	0.0133069
723.760	0.0133251
723.838	0.0130888
723.916	0.0131308
723.994	0.0130686
724.072	0.0130884
724.150	0.0130654
724.228	0.0130804
724.307	0.0131210
724.385	0.0132093
724.463	0.0132623
724.541	0.0133300
724.619	0.0134185
724.697	0.0134547
724.775	0.0135868
724.853	0.0137188
724.932	0.0138983
725.010	0.0139954
725.088	0.0140267
725.166	0.0139539
725.244	0.0142434
725.322	0.0144800
725.400	0.0145552
725.478	0.0147000
725.557	0.0146973
725.635	0.0147205
725.713	0.0148658
725.791	0.0150618
725.869	0.0151115
725.947	0.0150007
726.025	0.0152810
726.103	0.0154001
726.182	0.0153310
726.260	0.0153921
726.338	0.0154648
726.416	0.0155388
726.494	0.0156351
726.572	0.0157041
726.650	0.0156773
726.728	0.0154679
726.807	0.0155943
726.885	0.0155451
726.963	0.0156538
727.041	0.0154756
727.119	0.0154893
727.197	0.0154398
727.275	0.0151233
727.353	0.0151671
727.432	0.0147804
727.510	0.0147209
727.588	0.0146444
727.666	0.0145702
727.744	0.0142750
727.822	0.0141451
727.900	0.0140332
727.978	0.0137029
728.057	0.0136169
728.135	0.0137019
728.213	0.0136053
728.291	0.0133450
728.369	0.0131522
728.447	0.0132299
728.525	0.0132669
728.603	0.0132584
728.682	0.0133292
728.760	0.0133565
728.838	0.0133519
728.916	0.0133469
728.994	0.0135133
729.072	0.0137273
729.150	0.0136874
729.228	0.0139101
729.307	0.0138709
729.385	0.0140836
729.463	0.0141846
729.541	0.0142933
729.619	0.0143694
729.697	0.0144301
729.775	0.0145827
729.853	0.0146235
729.932	0.0144943
730.010	0.0145815
730.088	0.0146311
730.166	0.0146513
730.244	0.0146064
730.322	0.0147229
730.400	0.0148319
730.478	0.0145808
730.557	0.0147031
730.635	0.0144862
730.713	0.0146334
730.791	0.0146888
730.869	0.0145932
730.947	0.0145158
731.025	0.0144968
731.103	0.0146252
731.182	0.0145039
731.260	0.0143272
731.338	0.0143346
731.416	0.0143289
731.494	0.0141811
731.572	0.0142602
731.650	0.0141917
731.728	0.0141952
731.807	0.0141706
731.885	0.0140864
731.963	0.0140807
732.041	0.0140804
732.119	0.0139473
732.197	0.0140375
732.275	0.0140388
732.353	0.0139758
732.432	0.0140195
732.510	0.0140546
732.588	0.0140891
732.666	0.0141807
732.744	0.0142345
732.822	0.0142787
732.900	0.0143835
732.978	0.0143526
733.057	0.0144761
733.135	0.0145397
733.213	0.0146034
733.291	0.0147846
733.369	0.0148214
733.447	0.0147105
733.525	0.0147934
733.603	0.0148405
733.682	0.0149750
733.760	0.0149522
733.838	0.0149005
733.916	0.0148936
733.994	0.0149506
734.072	0.0150202
734.150	0.0149561
734.228	0.0149120
734.307	0.0148067
734.385	0.0148447
734.463	0.0148021
734.541	0.0146533
734.619	0.0145481
734.697	0.0145595
734.775	0.0143478
734.853	0.0143584
734.932	0.0142545
735.010	0.0144508
735.088	0.0142672
735.166	0.0142575
735.244	0.0143200
735.322	0.0141839
735.400	0.0141055
735.478	0.0142144
735.557	0.0141780
735.635	0.0141823
735.713	0.0140602
735.791	0.0142606
735.869	0.0142971
735.947	0.0141967
736.025	0.0142792
736.103	0.0142873
736.182	0.0142461
736.260	0.0142075
736.338	0.0143694
736.416	0.0141776
736.494	0.0140553
736.572	0.0141266
736.650	0.0141639
736.728	0.0142197
736.807	0.0142827
736.885	0.0139214
736.963	0.0140220
737.041	0.0140456
737.119	0.0140688
737.197	0.0139915
737.275	0.0139915
737.353	0.0138570
737.432	0.0139220
737.510	0.0138911
737.588	0.0139905
737.666	0.0139719
737.744	0.0139233
737.822	0.0139238
737.900	0.0140754
737.978	0.0142014
738.057	0.0141250
738.135	0.0142605
738.213	0.0143215
738.291	0.0142533
738.369	0.0142475
738.447	0.0143781
738.525	0.0144607
738.603	0.0144452
738.682	0.0144688
738.760	0.0144519
738.838	0.0145325
738.916	0.0143351
738.994	0.0146351
739.072	0.0146280
739.150	0.0145154
739.228	0.0145729
739.307	0.0144416
739.385	0.0144246
739.463	0.0145913
739.541	0.0144873
739.619	0.0143938
739.697	0.0146870
739.775	0.0146097
739.853	0.0145032
739.932	0.0146381
740.010	0.0144676
740.088	0.0145017
740.166	0.0147067
740.244	0.0146142
740.322	0.0144623
740.400	0.0144910
740.478	0.0144437
740.557	0.0144132
740.635	0.0144145
740.713	0.0143199
740.791	0.0142917
740.869	0.0143066
740.947	0.0141912
741.025	0.0142037
741.103	0.0141419
741.182	0.0140430
741.260	0.0139832
741.338	0.0140369
741.416	0.0140498
741.494	0.0139475
741.572	0.0140065
741.650	0.0140053
741.728	0.0140095
741.807	0.0140093
741.885	0.0140180
741.963	0.0141129
742.041	0.0141027
742.119	0.0141955
742.197	0.0142970
742.275	0.0143029
742.353	0.0143771
742.432	0.0143674
742.510	0.0142444
742.588	0.0143186
742.666	0.0143692
742.744	0.0143101
742.822	0.0143973
742.900	0.0144625
742.978	0.0145135
743.057	0.0143099
743.135	0.0143195
743.213	0.0143246
743.291	0.0142969
743.369	0.0142505
743.447	0.0142839
743.525	0.0142012
743.603	0.0140944
743.682	0.0141725
743.760	0.0140277
743.838	0.0142122
743.916	0.0142195
743.994	0.0141865
744.072	0.0140868
744.150	0.0141649
744.228	0.0142052
744.307	0.0141241
744.385	0.0139490
744.463	0.0141763
744.541	0.0140607
744.619	0.0141466
744.697	0.0141158
744.775	0.0141351
744.853	0.0141634
744.932	0.0141774
745.010	0.0142565
745.088	0.0142268
745.166	0.0143175
745.244	0.0142137
745.322	0.0142403
745.400	0.0142896
745.478	0.0142239
745.557	0.0143332
745.635	0.0142603
745.713	0.0143249
745.791	0.0143893
745.869	0.0143344
745.947	0.0142931
746.025	0.0142889
746.103	0.0143559
746.182	0.0142865
746.260	0.0143431
746.338	0.0143814
746.416	0.0142937
746.494	0.0143787
746.572	0.0143312
746.650	0.0143365
746.728	0.0144289
746.807	0.0143679
746.885	0.0143722
746.963	0.0144550
747.041	0.0143121
747.119	0.0143734
747.197	0.0143294
747.275	0.0143262
747.353	0.0144974
747.432	0.0145644
747.510	0.0143667
747.588	0.0144895
747.666	0.0144100
747.744	0.0143453
747.822	0.0144543
747.900	0.0145013
747.978	0.0143861
748.057	0.0143845
748.135	0.0144962
748.213	0.0144621
748.291	0.0144640
748.369	0.0144846
748.447	0.0144547
748.525	0.0144859
748.603	0.0146062
748.682	0.0146145
748.760	0.0145174
748.838	0.0145742
748.916	0.0146369
748.994	0.0146148
749.072	0.0145651
749.150	0.0147412
749.228	0.0146648
749.307	0.0147068
749.385	0.0145919
749.463	0.0146079
749.541	0.0145224
749.619	0.0145734
749.697	0.0146066
749.775	0.0145049
749.853	0.0143740
749.932	0.0144991
750.010	0.0142754
750.088	0.0142978
750.166	0.0142768
750.244	0.0143973
750.322	0.0141408
750.400	0.0140286
750.478	0.0140602
750.557	0.0141308
750.635	0.0140125
750.713	0.0138785
750.791	0.0140737
750.869	0.0140356
750.947	0.0139017
751.025	0.0140369
751.103	0.0139590
751.182	0.0139688
751.260	0.0139378
751.338	0.0138208
751.416	0.0139909
751.494	0.0140164
751.572	0.0139422
751.650	0.0139132
751.728	0.0139688
751.807	0.0141574
751.885	0.0141031
751.963	0.0141000
752.041	0.0140917
752.119	0.0141786
752.197	0.0143283
752.275	0.0142018
752.353	0.0141969
752.432	0.0142182
752.510	0.0142650
752.588	0.0144031
752.666	0.0143679
752.744	0.0143201
752.822	0.0144672
752.900	0.0143732
752.978	0.0144885
753.057	0.0143933
753.135	0.0144728
753.213	0.0145070
753.291	0.0145993
753.369	0.0146467
753.447	0.0146931
753.525	0.0146431
753.603	0.0146436
753.682	0.0146513
753.760	0.0146612
753.838	0.0147218
753.916	0.0144659
753.994	0.0145744
754.072	0.0147178
754.150	0.0146263
754.228	0.0147018
754.307	0.0146368
754.385	0.0147292
754.463	0.0145721
754.541	0.0146949
754.619	0.0146351
754.697	0.0145839
754.775	0.0147900
754.853	0.0146038
754.932	0.0145401
755.010	0.0146198
755.088	0.0145522
755.166	0.0144813
755.244	0.0145041
755.322	0.0144416
755.400	0.0144937
755.478	0.0143348
755.557	0.0144048
755.635	0.0142698
755.713	0.0141748
755.791	0.0142532
755.869	0.0142101
755.947	0.0142525
756.025	0.0141292
756.103	0.0141174
756.182	0.0141215
756.260	0.0140696
756.338	0.0141172
756.416	0.0141522
756.494	0.0141749
756.572	0.0140105
756.650	0.0141617
756.728	0.0142912
756.807	0.0140839
756.885	0.0140754
756.963	0.0141409
757.041	0.0141257
757.119	0.0142431
757.197	0.0140855
757.275	0.0141353
757.353	0.0141585
757.432	0.0140897
757.510	0.0140204
757.588	0.0141563
757.666	0.0142456
757.744	0.0141531
757.822	0.0142403
757.900	0.0143291
757.978	0.0140996
758.057	0.0143196
758.135	0.0142396
758.213	0.0142971
758.291	0.0143232
758.369	0.0143247
758.447	0.0144054
758.525	0.0144308
758.603	0.0144151
758.682	0.0144459
758.760	0.0144691
758.838	0.0144850
758.916	0.0145058
758.994	0.0146178
759.072	0.0144823
759.150	0.0146468
759.228	0.0147397
759.307	0.0145722
759.385	0.0145550
759.463	0.0144622
759.541	0.0144231
759.619	0.0143503
759.697	0.0145586
759.775	0.0144331
759.853	0.0142788
759.932	0.0144449
760.010	0.0143636
760.088	0.0142563
760.166	0.0143684
760.244	0.0143557
760.322	0.0142702
760.400	0.0142741
760.478	0.0144122
760.557	0.0143274
760.635	0.0143001
760.713	0.0143108
760.791	0.0142261
760.869	0.0141782
760.947	0.0142979
761.025	0.0143487
761.103	0.0141628
761.182	0.0143329
761.260	0.0143187
761.338	0.0143314
761.416	0.0144373
761.494	0.0142558
761.572	0.0142034
761.650	0.0143007
761.728	0.0143805
761.807	0.0143506
761.885	0.0143739
761.963	0.0144070
762.041	0.0144524
762.119	0.0144443
762.197	0.0143462
762.275	0.0145285
762.353	0.0144956
762.432	0.0145602
762.510	0.0146344
762.588	0.0146460
762.666	0.0148392
762.744	0.0148090
762.822	0.0148386
762.900	0.0148738
762.978	0.0147664
763.057	0.0149573
763.135	0.0149631
763.213	0.0149338
763.291	0.0147694
763.369	0.0148207
763.447	0.0149831
763.525	0.0148143
763.603	0.0147663
763.682	0.0146499
763.760	0.0146111
763.838	0.0145241
763.916	0.0144392
763.994	0.0143977
764.072	0.0144138
764.150	0.0142188
764.228	0.0141155
764.307	0.0139776
764.385	0.0140600
764.463	0.0137827
764.541	0.0137614
764.619	0.0136964
764.697	0.0136697
764.775	0.0136150
764.853	0.0137173
764.932	0.0136243
765.010	0.0135036
765.088	0.0135907
765.166	0.0136417
765.244	0.0138079
765.322	0.0137379
765.400	0.0136162
765.478	0.0137876
765.557	0.0138439
765.635	0.0139855
765.713	0.0137777
765.791	0.0141162
765.869	0.0141238
765.947	0.0142617
766.025	0.0143751
766.103	0.0144285
766.182	0.0144764
766.260	0.0144321
766.338	0.0144969
766.416	0.0146178
766.494	0.0147572
766.572	0.0148235
766.650	0.0147937
766.728	0.0148454
766.807	0.0148722
766.885	0.0148754
766.963	0.0148893
767.041	0.0148988
767.119	0.0148853
767.197	0.0149408
767.275	0.0147406
767.353	0.0147788
767.432	0.0147781
767.510	0.0148637
767.588	0.0147889
767.666	0.0145723
767.744	0.0145396
767.822	0.0145160
767.900	0.0144742
767.978	0.0144178
768.057	0.0141760
768.135	0.0141020
768.213	0.0141116
768.291	0.0140343
768.369	0.0139631
768.447	0.0140356
768.525	0.0140482
768.603	0.0139437
768.682	0.0138179
768.760	0.0139329
768.838	0.0139172
768.916	0.0138319
768.994	0.0140766
769.072	0.0138892
769.150	0.0139852
769.228	0.0140867
769.307	0.0144156
769.385	0.0143134
769.463	0.0143910
769.541	0.0143494
769.619	0.0145251
769.697	0.0143993
769.775	0.0145887
769.853	0.0146725
769.932	0.0146416
770.010	0.0148046
770.088	0.0147766
770.166	0.0147636
770.244	0.0147684
770.322	0.0149104
770.400	0.0146907
770.478	0.0147838
770.557	0.0147432
770.635	0.0147533
770.713	0.0146681
770.791	0.0147126
770.869	0.0146708
770.947	0.0147077
771.025	0.0145255
771.103	0.0143971
771.182	0.0143632
771.260	0.0143934
771.338	0.0143026
771.416	0.0141742
771.494	0.0142845
771.572	0.0142933
771.650	0.0141054
771.728	0.0141852
771.807	0.0139874
771.885	0.0140913
771.963	0.0140454
772.041	0.0139918
772.119	0.0139177
772.197	0.0140028
772.275	0.0139568
772.353	0.0139856
772.432	0.0138142
772.510	0.0139882
772.588	0.0139442
772.666	0.0139835
772.744	0.0139188
772.822	0.0141615
772.900	0.0139729
772.978	0.0138830
773.057	0.0139441
773.135	0.0141311
773.213	0.0140771
773.291	0.0140421
773.369	0.0140544
773.447	0.0142427
773.525	0.0141454
773.603	0.0141194
773.682	0.0141063
773.760	0.0141115
773.838	0.0140856
773.916	0.0141960
773.994	0.0142439
774.072	0.0143102
774.150	0.0142455
774.228	0.0143099
774.307	0.0143816
774.385	0.0143562
774.463	0.0144083
774.541	0.0144506
774.619	0.0145336
774.697	0.0145424
774.775	0.0145431
774.853	0.0146471
774.932	0.0146362
775.010	0.0146301
775.088	0.0146640
775.166	0.0144357
775.244	0.0148083
775.322	0.0147160
775.400	0.0147314
775.478	0.0147907
775.557	0.0148067
775.635	0.0149622
775.713	0.0148563
775.791	0.0147775
775.869	0.0148373
775.947	0.0147239
776.025	0.0147739
776.103	0.0148397
776.182	0.0148396
776.260	0.0148795
776.338	0.0148325
776.416	0.0148259
776.494	0.0147291
776.572	0.0145370
776.650	0.0144646
776.728	0.0143797
776.807	0.0144099
776.885	0.0143465
776.963	0.0143476
777.041	0.0143330
777.119	0.0142812
777.197	0.0141798
777.275	0.0140844
777.353	0.0138519
777.432	0.0140866
777.510	0.0141866
777.588	0.0140665
777.666	0.0139400
777.744	0.0140739
777.822	0.0138727
777.900	0.0140477
777.978	0.0140601
778.057	0.0139965
778.135	0.0141042
778.213	0.0141012
778.291	0.0140487
778.369	0.0140876
778.447	0.0140917
778.525	0.0142626
778.603	0.0142383
778.682	0.0142627
778.760	0.0144021
778.838	0.0143177
778.916	0.0143334
778.994	0.0144685
779.072	0.0144438
779.150	0.0143228
779.228	0.0146016
779.307	0.0145211
779.385	0.0144653
779.463	0.0147038
779.541	0.0145007
779.619	0.0145729
779.697	0.0147348
779.775	0.0146284
779.853	0.0146016
779.932	0.0145597
780.010	0.0146436
780.088	0.0144918
780.166	0.0145083
780.244	0.0146283
780.322	0.0146211
780.400	0.0146153
780.478	0.0146225
780.557	0.0144364
780.635	0.0145707
780.713	0.0145126
780.791	0.0145579
780.869	0.0145800
780.947	0.0144900
781.025	0.0144935
781.103	0.0144050
781.182	0.0143363
781.260	0.0144251
781.338	0.0143938
781.416	0.0144517
781.494	0.0143539
781.572	0.0143307
781.650	0.0143883
781.728	0.0143632
781.807	0.0143342
781.885	0.0143426
781.963	0.0143962
782.041	0.0143642
782.119	0.0142319
782.197	0.0142386
782.275	0.0142323
782.353	0.0144777
782.432	0.0143206
782.510	0.0142888
782.588	0.0142719
782.666	0.0144915
782.744	0.0143496
782.822	0.0144537
782.900	0.0145194
782.978	0.0143783
783.057	0.0144367
783.135	0.0145449
783.213	0.0144994
783.291	0.0145477
783.369	0.0145669
783.447	0.0146243
783.525	0.0145185
783.603	0.0144920
783.682	0.0146823
783.760	0.0143153
783.838	0.0145372
783.916	0.0144831
783.994	0.0143980
784.072	0.0144458
784.150	0.0143629
784.228	0.0143237
784.307	0.0143497
784.385	0.0141987
784.463	0.0143572
784.541	0.0142609
784.619	0.0142949
784.697	0.0143172
784.775	0.0142460
784.853	0.0141360
784.932	0.0140530
785.010	0.0142861
785.088	0.0141897
785.166	0.0142273
785.244	0.0142188
785.322	0.0142306
785.400	0.0142052
785.478	0.0140833
785.557	0.0142798
785.635	0.0142188
785.713	0.0141566
785.791	0.0142976
785.869	0.0141492
785.947	0.0140899
786.025	0.0141090
786.103	0.0141084
786.182	0.0141302
786.260	0.0141148
786.338	0.0141446
786.416	0.0141752
786.494	0.0141106
786.572	0.0142454
786.650	0.0141544
786.728	0.0142507
786.807	0.0143264
786.885	0.0142967
786.963	0.0144259
787.041	0.0144144
787.119	0.0143277
787.197	0.0144740
787.275	0.0145540
787.353	0.0146400
787.432	0.0145755
787.510	0.0145780
787.588	0.0146196
787.666	0.0147290
787.744	0.0147679
787.822	0.0147836
787.900	0.0148283
787.978	0.0146561
788.057	0.0148186
788.135	0.0146323
788.213	0.0147293
788.291	0.0148339
788.369	0.0148172
788.447	0.0146227
788.525	0.0145518
788.603	0.0144891
788.682	0.0145381
788.760	0.0145968
788.838	0.0146160
788.916	0.0144044
788.994	0.0142725
789.072	0.0141815
789.150	0.0142635
789.228	0.0142416
789.307	0.0142053
789.385	0.0142286
789.463	0.0142203
789.541	0.0142578
789.619	0.0143150
789.697	0.0142231
789.775	0.0142299
789.853	0.0143801
789.932	0.0142178
790.010	0.0144315
790.088	0.0144962
790.166	0.0145710
790.244	0.0145639
790.322	0.0145398
790.400	0.0146563
790.478	0.0147698
790.557	0.0146336
790.635	0.0147144
790.713	0.0147952
790.791	0.0147558
790.869	0.0146858
790.947	0.0146322
791.025	0.0147752
791.103	0.0147865
791.182	0.0146815
791.260	0.0145670
791.338	0.0146389
791.416	0.0146313
791.494	0.0146069
791.572	0.0145612
791.650	0.0144481
791.728	0.0143871
791.807	0.0144053
791.885	0.0144268
791.963	0.0142757
792.041	0.0143246
792.119	0.0144412
792.197	0.0141719
792.275	0.0143486
792.353	0.0143290
792.432	0.0143188
792.510	0.0142886
792.588	0.0142841
792.666	0.0141786
792.744	0.0143481
792.822	0.0143354
792.900	0.0143190
792.978	0.0143380
793.057	0.0144756
793.135	0.0144291
793.213	0.0143402
793.291	0.0143764
793.369	0.0143739
793.447	0.0145242
793.525	0.0145604
793.603	0.0144096
793.682	0.0143549
793.760	0.0143999
793.838	0.0142864
793.916	0.0143706
793.994	0.0143338
794.072	0.0142903
794.150	0.0143904
794.228	0.0144683
794.307	0.0141563
794.385	0.0142355
794.463	0.0144076
794.541	0.0142274
794.619	0.0142245
794.697	0.0141998
794.775	0.0142899
794.853	0.0141594
794.932	0.0142200
795.010	0.0142722
795.088	0.0141971
795.166	0.0143445
795.244	0.0142000
795.322	0.0143872
795.400	0.0143481
795.478	0.0142575
795.557	0.0145094
795.635	0.0145490
795.713	0.0144945
795.791	0.0146178
795.869	0.0146351
795.947	0.0145461
796.025	0.0146294
796.103	0.0147626
796.182	0.0147773
796.260	0.0147397
796.338	0.0146180
796.416	0.0145897
796.494	0.0146865
796.572	0.0146410
796.650	0.0144852
796.728	0.0143578
796.807	0.0143650
796.885	0.0145026
796.963	0.0143575
797.041	0.0142881
797.119	0.0140405
797.197	0.0142168
797.275	0.0142552
797.353	0.0140729
797.432	0.0140112
797.510	0.0140202
797.588	0.0139797
797.666	0.0140778
797.744	0.0139284
797.822	0.0139274
797.900	0.0139031
797.978	0.0140550
798.057	0.0140736
798.135	0.0139931
798.213	0.0140371
798.291	0.0141741
798.369	0.0141576
798.447	0.0143592
798.525	0.0142209
798.603	0.0144271
798.682	0.0144794
798.760	0.0145156
798.838	0.0145695
798.916	0.0145821
798.994	0.0145821
799.072	0.0146286
799.150	0.0146499
799.228	0.0148465
799.307	0.0148154
799.385	0.0148916
799.463	0.0149439
799.541	0.0148403
799.619	0.0148915
799.697	0.0148374
799.775	0.0148171
799.853	0.0149010
799.932	0.0149036
800.010	0.0148423
800.088	0.0149007
800.166	0.0146549
800.244	0.0145502
800.322	0.0147427
800.400	0.0145448
800.478	0.0145309
800.557	0.0145121
800.635	0.0144425
800.713	0.0145118
800.791	0.0144201
800.869	0.0144343
800.947	0.0143102
801.025	0.0141932
801.103	0.0141719
801.182	0.0141635
801.260	0.0140812
801.338	0.0140554
801.416	0.0140768
801.494	0.0139902
801.572	0.0139437
801.650	0.0138153
801.728	0.0139735
801.807	0.0139905
801.885	0.0138520
801.963	0.0138107
802.041	0.0139761
802.119	0.0139338
802.197	0.0141149
802.275	0.0142197
802.353	0.0140965
802.432	0.0140033
802.510	0.0140427
802.588	0.0141145
802.666	0.0142654
802.744	0.0140411
802.822	0.0142413
802.900	0.0142332
802.978	0.0141767
803.057	0.0144296
803.135	0.0143620
803.213	0.0144336
803.291	0.0145625
803.369	0.0144711
803.447	0.0144899
803.525	0.0146009
803.603	0.0146237
803.682	0.0147116
803.760	0.0145557
803.838	0.0145898
803.916	0.0147058
803.994	0.0146785
804.072	0.0146335
804.150	0.0147786
804.228	0.0147218
804.307	0.0146138
804.385	0.0146311
804.463	0.0146261
804.541	0.0145777
804.619	0.0145221
804.697	0.0143924
804.775	0.0144771
804.853	0.0144383
804.932	0.0143858
805.010	0.0143256
805.088	0.0145042
805.166	0.0143811
805.244	0.0144065
805.322	0.0144733
805.400	0.0145499
805.478	0.0145945
805.557	0.0143665
805.635	0.0145074
805.713	0.0145121
805.791	0.0144553
805.869	0.0145357
805.947	0.0145236
806.025	0.0146164
806.103	0.0145036
806.182	0.0145012
806.260	0.0143320
806.338	0.0143608
806.416	0.0143092
806.494	0.0141498
806.572	0.0142392
806.650	0.0142548
806.728	0.0140378
806.807	0.0139535
806.885	0.0140372
806.963	0.0139655
807.041	0.0141890
807.119	0.0139346
807.197	0.0138430
807.275	0.0140941
807.353	0.0139484
807.432	0.0139632
807.510	0.0139679
807.588	0.0139439
807.666	0.0139951
807.744	0.0140264
807.822	0.0140437
807.900	0.0140863
807.978	0.0141373
808.057	0.0138644
808.135	0.0140224
808.213	0.0140176
808.291	0.0141553
808.369	0.0142307
808.447	0.0139508
808.525	0.0140865
808.603	0.0141381
808.682	0.0141233
808.760	0.0140932
808.838	0.0141942
808.916	0.0143105
808.994	0.0143152
809.072	0.0142686
809.150	0.0142375
809.228	0.0143138
809.307	0.0145651
809.385	0.0146021
809.463	0.0145988
809.541	0.0147829
809.619	0.0147794
809.697	0.0147652
809.775	0.0147255
809.853	0.0147620
809.932	0.0148470
810.010	0.0146256
810.088	0.0146832
810.166	0.0147887
810.244	0.0146416
810.322	0.0144128
810.400	0.0143160
810.478	0.0143796
810.557	0.0143711
810.635	0.0142625
810.713	0.0141171
810.791	0.0141206
810.869	0.0140580
810.947	0.0140179
811.025	0.0140506
811.103	0.0141282
811.182	0.0140830
811.260	0.0141115
811.338	0.0142683
811.416	0.0144958
811.494	0.0143700
811.572	0.0145341
811.650	0.0146532
811.728	0.0147034
811.807	0.0149083
811.885	0.0149335
811.963	0.0148866
812.041	0.0148421
812.119	0.0149245
812.197	0.0150107
812.275	0.0150219
812.353	0.0149948
812.432	0.0148347
812.510	0.0148121
812.588	0.0147514
812.666	0.0146666
812.744	0.0148013
812.822	0.0147022
812.900	0.0144340
812.978	0.0144319
813.057	0.0143285
813.135	0.0143049
813.213	0.0142595
813.291	0.0141894
813.369	0.0140903
813.447	0.0140334
813.525	0.0140862
813.603	0.0140796
813.682	0.0139428
813.760	0.0139339
813.838	0.0140693
813.916	0.0141424
813.994	0.0140525
814.072	0.0140689
814.150	0.0141031
814.228	0.0141048
814.307	0.0143041
814.385	0.0142279
814.463	0.0143420
814.541	0.0143290
814.619	0.0142158
814.697	0.0143204
814.775	0.0142652
814.853	0.0144742
814.932	0.0145051
815.010	0.0146118
815.088	0.0143317
815.166	0.0144217
815.244	0.0144013
815.322	0.0145067
815.400	0.0145363
815.478	0.0144358
815.557	0.0144984
815.635	0.0145885
815.713	0.0144376
815.791	0.0145212
815.869	0.0145532
815.947	0.0145271
816.025	0.0144815
816.103	0.0142996
816.182	0.0142278
816.260	0.0143329
816.338	0.0143372
816.416	0.0144166
816.494	0.0144738
816.572	0.0143587
816.650	0.0143463
816.728	0.0145260
816.807	0.0143362
816.885	0.0143394
816.963	0.0144551
817.041	0.0145618
817.119	0.0146156
817.197	0.0146681
817.275	0.0146313
817.353	0.0145657
817.432	0.0145676
817.510	0.0147602
817.588	0.0146311
817.666	0.0147495
817.744	0.0147502
817.822	0.0147665
817.900	0.0147086
817.978	0.0146187
818.057	0.0147172
818.135	0.0145130
818.213	0.0145120
818.291	0.0143992
818.369	0.0144051
818.447	0.0142829
818.525	0.0142782
818.603	0.0141452
818.682	0.0140493
818.760	0.0138886
818.838	0.0139142
818.916	0.0138413
818.994	0.0136439
819.072	0.0137641
819.150	0.0137462
819.228	0.0136521
819.307	0.0136919
819.385	0.0138433
819.463	0.0138984
819.541	0.0140053
819.619	0.0139756
819.697	0.0139960
819.775	0.0142963
819.853	0.0143005
819.932	0.0145390
820.010	0.0144569
820.088	0.0146573
820.166	0.0145975
820.244	0.0147084
820.322	0.0147993
820.400	0.0147077
820.478	0.0146592
820.557	0.0147033
820.635	0.0145011
820.713	0.0145511
820.791	0.0145547
820.869	0.0143929
820.947	0.0142811
821.025	0.0141734
821.103	0.0139984
821.182	0.0139049
821.260	0.0139244
821.338	0.0140324
821.416	0.0138942
821.494	0.0139214
821.572	0.0137447
821.650	0.0137597
821.728	0.0139830
821.807	0.0140054
821.885	0.0138663
821.963	0.0139356
822.041	0.0141466
822.119	0.0141831
822.197	0.0141840
822.275	0.0142847
822.353	0.0143506
822.432	0.0143855
822.510	0.0143980
822.588	0.0146162
822.666	0.0147319
822.744	0.0146764
822.822	0.0147225
822.900	0.0147569
822.978	0.0148113
823.057	0.0148775
823.135	0.0148369
823.213	0.0149802
823.291	0.0149236
823.369	0.0148643
823.447	0.0149315
823.525	0.0148547
823.603	0.0146845
823.682	0.0146873
823.760	0.0146265
823.838	0.0144883
823.916	0.0144281
823.994	0.0143138
824.072	0.0142286
824.150	0.0141553
824.228	0.0140848
824.307	0.0140028
824.385	0.0137801
824.463	0.0138506
824.541	0.0137492
824.619	0.0136964
824.697	0.0137929
824.775	0.0136632
824.853	0.0135809
824.932	0.0136340
825.010	0.0138538
825.088	0.0140642
825.166	0.0139172
825.244	0.0141315
825.322	0.0140810
825.400	0.0141617
825.478	0.0143892
825.557	0.0146507
825.635	0.0145649
825.713	0.0148029
825.791	0.0147347
825.869	0.0147887
825.947	0.0147353
826.025	0.0148663
826.103	0.0148825
826.182	0.0148119
826.260	0.0145627
826.338	0.0146475
826.416	0.0145913
826.494	0.0144388
826.572	0.0143165
826.650	0.0142130
826.728	0.0141981
826.807	0.0140652
826.885	0.0139777
826.963	0.0137968
827.041	0.0138095
827.119	0.0138039
827.197	0.0136376
827.275	0.0137202
827.353	0.0137394
827.432	0.0138576
827.510	0.0139042
827.588	0.0139693
827.666	0.0141968
827.744	0.0143517
827.822	0.0143320
827.900	0.0143947
827.978	0.0144164
828.057	0.0145985
828.135	0.0147115
828.213	0.0146765
828.291	0.0148728
828.369	0.0148418
828.447	0.0148809
828.525	0.0147929
828.603	0.0148770
828.682	0.0147512
828.760	0.0147094
828.838	0.0144877
828.916	0.0144693
828.994	0.0144231
829.072	0.0144324
829.150	0.0142649
829.228	0.0141411
829.307	0.0140717
829.385	0.0142014
829.463	0.0140659
829.541	0.0139423
829.619	0.0140285
829.697	0.0140601
829.775	0.0139449
829.853	0.0140469
829.932	0.0140549
830.010	0.0140698
830.088	0.0141472
830.166	0.0143056
830.244	0.0143653
830.322	0.0143636
830.400	0.0144257
830.478	0.0145266
830.557	0.0146508
830.635	0.0146253
830.713	0.0147162
830.791	0.0146806
830.869	0.0146309
830.947	0.0146970
831.025	0.0147410
831.103	0.0147498
831.182	0.0145359
831.260	0.0145908
831.338	0.0144189
831.416	0.0144089
831.494	0.0143416
831.572	0.0143460
831.650	0.0142212
831.728	0.0141593
831.807	0.0141302
831.885	0.0139019
831.963	0.0139373
832.041	0.0137625
832.119	0.0138831
832.197	0.0138790
832.275	0.0139385
832.353	0.0139903
832.432	0.0139915
832.510	0.0141033
832.588	0.0139582
832.666	0.0140239
832.744	0.0143150
832.822	0.0143877
832.900	0.0144492
832.978	0.0144597
833.057	0.0146249
833.135	0.0146283
833.213	0.0146626
833.291	0.0146444
833.369	0.0147832
833.447	0.0148624
833.525	0.0146913
833.603	0.0147801
833.682	0.0147188
833.760	0.0145517
833.838	0.0146051
833.916	0.0144827
833.994	0.0143980
834.072	0.0144306
834.150	0.0144288
834.228	0.0143394
834.307	0.0142046
834.385	0.0141271
834.463	0.0141145
834.541	0.0141248
834.619	0.0141100
834.697	0.0141297
834.775	0.0140203
834.853	0.0141384
834.932	0.0141936
835.010	0.0141280
835.088	0.0141512
835.166	0.0142757
835.244	0.0142770
835.322	0.0141010
835.400	0.0142612
835.478	0.0143582
835.557	0.0143766
835.635	0.0145083
835.713	0.0145374
835.791	0.0145599
835.869	0.0146261
835.947	0.0147417
836.025	0.0146853
836.103	0.0147530
836.182	0.0146536
836.260	0.0147370
836.338	0.0147410
836.416	0.0148707
836.494	0.0147723
836.572	0.0146708
836.650	0.0145993
836.728	0.0145922
836.807	0.0146011
836.885	0.0145547
836.963	0.0144156
837.041	0.0143124
837.119	0.0143944
837.197	0.0142294
837.275	0.0143194
837.353	0.0142193
837.432	0.0141665
837.510	0.0141263
837.588	0.0141419
837.666	0.0139706
837.744	0.0142241
837.822	0.0140630
837.900	0.0138705
837.978	0.0139549
838.057	0.0139699
838.135	0.0140914
838.213	0.0141351
838.291	0.0141457
838.369	0.0141360
838.447	0.0141658
838.525	0.0142329
838.603	0.0142666
838.682	0.0142184
838.760	0.0143929
838.838	0.0142966
838.916	0.0142359
838.994	0.0142599
839.072	0.0142598
839.150	0.0144196
839.228	0.0144337
839.307	0.0143629
839.385	0.0143309
839.463	0.0142773
839.541	0.0142671
839.619	0.0143800
839.697	0.0142902
839.775	0.0142987
839.853	0.0143379
839.932	0.0143996
840.010	0.0143439
840.088	0.0143266
840.166	0.0144150
840.244	0.0142162
840.322	0.0144337
840.400	0.0143385
840.478	0.0145415
840.557	0.0145116
840.635	0.0145186
840.713	0.0145127
840.791	0.0144711
840.869	0.0145346
840.947	0.0145989
841.025	0.0146114
841.103	0.0146564
841.182	0.0145448
841.260	0.0144895
841.338	0.0146073
841.416	0.0146159
841.494	0.0145089
841.572	0.0144090
841.650	0.0144536
841.728	0.0143677
841.807	0.0143848
841.885	0.0143124
841.963	0.0143645
842.041	0.0143629
842.119	0.0141178
842.197	0.0140572
842.275	0.0141998
842.353	0.0143238
842.432	0.0142409
842.510	0.0142775
842.588	0.0141824
842.666	0.0141464
842.744	0.0142668
842.822	0.0142623
842.900	0.0141306
842.978	0.0142120
843.057	0.0140559
843.135	0.0142039
843.213	0.0142409
843.291	0.0143439
843.369	0.0142159
843.447	0.0141226
843.525	0.0145045
843.603	0.0143894
843.682	0.0143015
843.760	0.0144365
843.838	0.0144611
843.916	0.0144411
843.994	0.0143794
844.072	0.0143884
844.150	0.0144124
844.228	0.0144382
844.307	0.0144398
844.385	0.0144565
844.463	0.0144980
844.541	0.0144401
844.619	0.0146172
844.697	0.0142974
844.775	0.0143269
844.853	0.0143149
844.932	0.0143678
845.010	0.0143253
845.088	0.0143298
845.166	0.0144446
845.244	0.0142898
845.322	0.0143414
845.400	0.0144827
845.478	0.0144003
845.557	0.0143564
845.635	0.0143921
845.713	0.0144965
845.791	0.0144614
845.869	0.0144633
845.947	0.0145103
846.025	0.0143264
846.103	0.0145180
846.182	0.0144315
846.260	0.0143684
846.338	0.0144239
846.416	0.0144637
846.494	0.0144388
846.572	0.0143519
846.650	0.0144593
846.728	0.0142981
846.807	0.0142613
846.885	0.0143923
846.963	0.0143845
847.041	0.0143374
847.119	0.0143240
847.197	0.0143749
847.275	0.0142963
847.353	0.0143613
847.432	0.0143484
847.510	0.0143863
847.588	0.0143803
847.666	0.0143533
847.744	0.0144268
847.822	0.0145138
847.900	0.0143631
847.978	0.0144182
848.057	0.0143556
848.135	0.0144173
848.213	0.0143567
848.291	0.0144672
848.369	0.0144144
848.447	0.0145122
848.525	0.0143516
848.603	0.0142226
848.682	0.0142654
848.760	0.0142680
848.838	0.0143372
848.916	0.0143560
848.994	0.0142016
849.072	0.0141224
849.150	0.0143218
849.228	0.0142308
849.307	0.0142490
849.385	0.0142912
849.463	0.0141858
849.541	0.0141872
849.619	0.0142422
849.697	0.0142447
849.775	0.0142484
849.853	0.0141940
849.932	0.0142299
850.010	0.0141875
850.088	0.0141627
850.166	0.0143933
850.244	0.0143053
850.322	0.0142390
850.400	0.0144247
850.478	0.0142340
850.557	0.0142794
850.635	0.0142495
850.713	0.0145145
850.791	0.0144735
850.869	0.0144910
850.947	0.0145156
851.025	0.0144904
851.103	0.0146826
851.182	0.0146106
851.260	0.0145742
851.338	0.0145986
851.416	0.0145932
851.494	0.0145111
851.572	0.0144833
851.650	0.0144091
851.728	0.0146433
851.807	0.0146272
851.885	0.0144819
851.963	0.0144088
852.041	0.0145606
852.119	0.0144022
852.197	0.0144654
852.275	0.0141847
852.353	0.0142868
852.432	0.0144044
852.510	0.0142725
852.588	0.0142259
852.666	0.0141277
852.744	0.0141495
852.822	0.0141982
852.900	0.0142382
852.978	0.0142624
853.057	0.0142216
853.135	0.0142023
853.213	0.0143368
853.291	0.0144762
853.369	0.0142234
853.447	0.0143088
853.525	0.0143857
853.603	0.0143645
853.682	0.0143266
853.760	0.0145637
853.838	0.0144191
853.916	0.0144729
853.994	0.0145132
854.072	0.0144173
854.150	0.0143764
854.228	0.0143065
854.307	0.0144980
854.385	0.0143927
854.463	0.0143665
854.541	0.0145238
854.619	0.0144994
854.697	0.0144437
854.775	0.0144118
854.853	0.0145142
854.932	0.0145601
855.010	0.0145831
855.088	0.0144479
855.166	0.0143363
855.244	0.0144473
855.322	0.0143917
855.400	0.0144503
855.478	0.0145221
855.557	0.0143744
855.635	0.0143604
855.713	0.0143347
855.791	0.0142558
855.869	0.0143258
855.947	0.0143480
856.025	0.0142526
856.103	0.0141346
856.182	0.0142679
856.260	0.0141416
856.338	0.0140611
856.416	0.0140976
856.494	0.0141007
856.572	0.0141923
856.650	0.0142569
856.728	0.0140525
856.807	0.0142565
856.885	0.0141637
856.963	0.0142313
857.041	0.0142439
857.119	0.0142242
857.197	0.0141890
857.275	0.0144576
857.353	0.0143549
857.432	0.0144493
857.510	0.0146163
857.588	0.0145704
857.666	0.0145633
857.744	0.0145652
857.822	0.0145617
857.900	0.0145663
857.978	0.0144357
858.057	0.0145724
858.135	0.0144743
858.213	0.0145329
858.291	0.0147061
858.369	0.0147367
858.447	0.0146916
858.525	0.0146810
858.603	0.0146172
858.682	0.0146187
858.760	0.0144913
858.838	0.0143769
858.916	0.0144924
858.994	0.0145501
859.072	0.0143747
859.150	0.0143549
859.228	0.0143571
859.307	0.0142429
859.385	0.0142188
859.463	0.0141985
859.541	0.0141469
859.619	0.0141874
859.697	0.0140604
859.775	0.0141369
859.853	0.0141380
859.932	0.0140436
860.010	0.0140790
860.088	0.0142516
860.166	0.0141747
860.244	0.0142509
860.322	0.0141080
860.400	0.0141691
860.478	0.0142433
860.557	0.0143211
860.635	0.0142025
860.713	0.0142875
860.791	0.0142190
860.869	0.0144724
860.947	0.0143913
861.025	0.0142697
861.103	0.0143441
861.182	0.0144934
861.260	0.0144980
861.338	0.0144254
861.416	0.0144382
861.494	0.0145166
861.572	0.0145431
861.650	0.0145386
861.728	0.0144838
861.807	0.0144868
861.885	0.0144962
861.963	0.0143461
862.041	0.0143862
862.119	0.0144252
862.197	0.0144308
862.275	0.0143336
862.353	0.0144367
862.432	0.0143537
862.510	0.0143176
862.588	0.0145758
862.666	0.0143466
862.744	0.0143133
862.822	0.0142964
862.900	0.0143665
862.978	0.0144155
863.057	0.0143871
863.135	0.0143954
863.213	0.0144093
863.291	0.0143163
863.369	0.0143341
863.447	0.0143513
863.525	0.0144197
863.603	0.0142911
863.682	0.0142813
863.760	0.0143253
863.838	0.0143880
863.916	0.0144669
863.994	0.0143319
864.072	0.0143919
864.150	0.0142883
864.228	0.0143954
864.307	0.0145293
864.385	0.0144259
864.463	0.0144012
864.541	0.0144907
864.619	0.0145153
864.697	0.0145064
864.775	0.0145287
864.853	0.0144698
864.932	0.0146480
865.010	0.0144402
865.088	0.0144238
865.166	0.0144205
865.244	0.0145335
865.322	0.0143712
865.400	0.0143935
865.478	0.0142960
865.557	0.0143342
865.635	0.0143139
865.713	0.0143037
865.791	0.0142927
865.869	0.0142929
865.947	0.0143523
866.025	0.0143092
866.103	0.0142654
866.182	0.0143276
866.260	0.0143833
866.338	0.0143137
866.416	0.0143243
866.494	0.0142349
866.572	0.0143616
866.650	0.0142168
866.728	0.0142759
866.807	0.0142577
866.885	0.0142959
866.963	0.0144243
867.041	0.0142480
867.119	0.0141499
867.197	0.0143575
867.275	0.0144049
867.353	0.0143246
867.432	0.0142937
867.510	0.0143025
867.588	0.0143245
867.666	0.0141799
867.744	0.0143239
867.822	0.0143050
867.900	0.0142322
867.978	0.0142719
868.057	0.0143620
868.135	0.0141450
868.213	0.0142382
868.291	0.0140153
868.369	0.0142610
868.447	0.0141090
868.525	0.0140662
868.603	0.0142487
868.682	0.0141508
868.760	0.0141734
868.838	0.0142094
868.916	0.0142249
868.994	0.0140844
869.072	0.0142210
869.150	0.0142851
869.228	0.0143092
869.307	0.0143481
869.385	0.0142574
869.463	0.0143948
869.541	0.0143983
869.619	0.0143428
869.697	0.0145158
869.775	0.0145197
869.853	0.0144209
869.932	0.0144579
870.010	0.0144923
870.088	0.0146519
870.166	0.0144629
870.244	0.0145134
870.322	0.0145488
870.400	0.0146246
870.478	0.0146292
870.557	0.0145792
870.635	0.0144977
870.713	0.0144994
870.791	0.0145737
870.869	0.0145018
870.947	0.0143404
871.025	0.0143362
871.103	0.0142706
871.182	0.0142829
871.260	0.0142781
871.338	0.0142688
871.416	0.0141775
871.494	0.0142217
871.572	0.0142141
871.650	0.0140561
871.728	0.0140279
871.807	0.0140955
871.885	0.0141808
871.963	0.0141435
872.041	0.0140845
872.119	0.0140726
872.197	0.0140731
872.275	0.0140228
872.353	0.0140910
872.432	0.0140576
872.510	0.0140484
872.588	0.0142138
872.666	0.0141183
872.744	0.0141203
872.822	0.0141004
872.900	0.0142199
872.978	0.0140535
873.057	0.0142178
873.135	0.0142433
873.213	0.0143036
873.291	0.0141878
873.369	0.0143783
873.447	0.0144697
873.525	0.0145076
873.603	0.0143347
873.682	0.0143972
873.760	0.0145612
873.838	0.0143803
873.916	0.0145293
873.994	0.0145630
874.072	0.0146369
874.150	0.0145975
874.228	0.0145126
874.307	0.0144807
874.385	0.0145583
874.463	0.0145501
874.541	0.0144584
874.619	0.0144703
874.697	0.0143524
874.775	0.0145919
874.853	0.0145664
874.932	0.0144753
875.010	0.0145007
875.088	0.0144367
875.166	0.0143906
875.244	0.0145465
875.322	0.0144751
875.400	0.0145593
875.478	0.0145416
875.557	0.0145584
875.635	0.0143565
875.713	0.0143568
875.791	0.0142725
875.869	0.0143367
875.947	0.0142774
876.025	0.0142784
876.103	0.0142848
876.182	0.0143130
876.260	0.0142374
876.338	0.0141970
876.416	0.0141648
876.494	0.0142503
876.572	0.0142081
876.650	0.0141112
876.728	0.0141174
876.807	0.0142255
876.885	0.0142692
876.963	0.0144019
877.041	0.0145815
877.119	0.0144764
877.197	0.0145479
877.275	0.0145193
877.353	0.0145443
877.432	0.0146793
877.510	0.0145596
877.588	0.0146609
877.666	0.0146495
877.744	0.0146081
877.822	0.0146161
877.900	0.0145637
877.978	0.0146037
878.057	0.0147765
878.135	0.0145959
878.213	0.0147150
878.291	0.0146346
878.369	0.0146747
878.447	0.0145679
878.525	0.0146057
878.603	0.0145708
878.682	0.0144158
878.760	0.0145534
878.838	0.0145289
878.916	0.0143956
878.994	0.0144286
879.072	0.0143752
879.150	0.0142864
879.228	0.0142964
879.307	0.0144379
879.385	0.0143327
879.463	0.0144749
879.541	0.0143747
879.619	0.0143888
879.697	0.0143120
879.775	0.0142448
879.853	0.0143262
879.932	0.0144009
880.010	0.0143021
880.088	0.0143114
880.166	0.0142827
880.244	0.0144199
880.322	0.0143206
880.400	0.0143701
880.478	0.0143580
880.557	0.0143837
880.635	0.0143722
880.713	0.0142934
880.791	0.0143128
880.869	0.0143384
880.947	0.0144451
881.025	0.0145749
881.103	0.0143309
881.182	0.0141785
881.260	0.0144001
881.338	0.0143871
881.416	0.0143729
881.494	0.0142155
881.572	0.0143574
881.650	0.0143759
881.728	0.0143430
881.807	0.0143907
881.885	0.0143079
881.963	0.0144075
882.041	0.0143590
882.119	0.0143585
882.197	0.0145293
882.275	0.0143340
882.353	0.0145568
882.432	0.0142502
882.510	0.0144355
882.588	0.0144850
882.666	0.0144825
882.744	0.0143657
882.822	0.0143759
882.900	0.0143181
882.978	0.0143669
883.057	0.0142774
883.135	0.0142794
883.213	0.0142908
883.291	0.0140926
883.369	0.0142417
883.447	0.0143015
883.525	0.0142815
883.603	0.0142190
883.682	0.0142020
883.760	0.0142258
883.838	0.0141653
883.916	0.0141965
883.994	0.0142696
884.072	0.0142118
884.150	0.0142629
884.228	0.0143791
884.307	0.0141959
884.385	0.0142883
884.463	0.0143414
884.541	0.0142639
884.619	0.0143446
884.697	0.0143109
884.775	0.0144099
884.853	0.0144556
884.932	0.0143379
885.010	0.0144994
885.088	0.0145040
885.166	0.0144547
885.244	0.0144617
885.322	0.0145042
885.400	0.0145010
885.478	0.0144646
885.557	0.0145595
885.635	0.0145419
885.713	0.0144205
885.791	0.0145827
885.869	0.0144487
885.947	0.0145583
886.025	0.0144992
886.103	0.0144752
886.182	0.0145199
886.260	0.0144080
886.338	0.0144038
886.416	0.0144306
886.494	0.0144657
886.572	0.0142200
886.650	0.0141643
886.728	0.0142890
886.807	0.0142724
886.885	0.0144025
886.963	0.0143571
887.041	0.0141830
887.119	0.0142650
887.197	0.0141161
887.275	0.0140446
887.353	0.0142133
887.432	0.0141978
887.510	0.0142381
887.588	0.0141336
887.666	0.0141939
887.744	0.0142549
887.822	0.0142322
887.900	0.0142138
887.978	0.0142701
888.057	0.0142671
888.135	0.0141004
888.213	0.0142467
888.291	0.0143439
888.369	0.0142619
888.447	0.0140827
888.525	0.0140129
888.603	0.0142686
888.682	0.0141570
888.760	0.0141328
888.838	0.0141512
888.916	0.0142168
888.994	0.0142011
889.072	0.0142770
889.150	0.0142097
889.228	0.0142793
889.307	0.0142823
889.385	0.0143852
889.463	0.0143740
889.541	0.0143249
889.619	0.0143058
889.697	0.0143468
889.775	0.0145111
889.853	0.0144991
889.932	0.0145911
890.010	0.0146954
890.088	0.0145596
890.166	0.0146931
890.244	0.0144891
890.322	0.0146090
890.400	0.0145133
890.478	0.0144504
890.557	0.0145036
890.635	0.0145950
890.713	0.0144646
890.791	0.0145360
890.869	0.0143991
890.947	0.0145509
891.025	0.0143484
891.103	0.0145396
891.182	0.0144648
891.260	0.0144613
891.338	0.0145269
891.416	0.0143698
891.494	0.0144067
891.572	0.0144937
891.650	0.0142935
891.728	0.0143430
891.807	0.0143029
891.885	0.0143648
891.963	0.0141640
892.041	0.0142134
892.119	0.0141499
892.197	0.0141719
892.275	0.0141222
892.353	0.0141429
892.432	0.0140562
892.510	0.0140871
892.588	0.0141029
892.666	0.0141306
892.744	0.0139502
892.822	0.0141544
892.900	0.0140405
892.978	0.0139694
893.057	0.0140894
893.135	0.0142023
893.213	0.0141277
893.291	0.0142331
893.369	0.0143056
893.447	0.0143275
893.525	0.0141858
893.603	0.0143538
893.682	0.0144301
893.760	0.0145482
893.838	0.0144125
893.916	0.0144494
893.994	0.0143536
894.072	0.0144531
894.150	0.0146339
894.228	0.0144677
894.307	0.0145375
894.385	0.0145861
894.463	0.0145036
894.541	0.0145824
894.619	0.0146548
894.697	0.0145240
894.775	0.0144946
894.853	0.0145309
894.932	0.0145333
895.010	0.0146606
895.088	0.0145379
895.166	0.0145499
895.244	0.0145779
895.322	0.0143842
895.400	0.0143929
895.478	0.0143593
895.557	0.0142570
895.635	0.0143156
895.713	0.0143480
895.791	0.0142330
895.869	0.0141146
895.947	0.0142510
896.025	0.0141914
896.103	0.0141014
896.182	0.0141301
896.260	0.0141097
896.338	0.0141472
896.416	0.0140659
896.494	0.0141387
896.572	0.0141090
896.650	0.0140704
896.728	0.0141445
896.807	0.0140465
896.885	0.0142915
896.963	0.0142688
897.041	0.0141566
897.119	0.0142731
897.197	0.0142913
897.275	0.0141676
897.353	0.0142731
897.432	0.0143361
897.510	0.0144308
897.588	0.0143338
897.666	0.0145639
897.744	0.0144980
897.822	0.0144902
897.900	0.0144196
897.978	0.0144093
898.057	0.0143074
898.135	0.0143315
898.213	0.0145399
898.291	0.0144975
898.369	0.0144847
898.447	0.0145293
898.525	0.0146149
898.603	0.0144854
898.682	0.0144768
898.760	0.0145582
898.838	0.0144212
898.916	0.0145147
898.994	0.0145326
899.072	0.0145226
899.150	0.0145188
899.228	0.0145396
899.307	0.0145261
899.385	0.0145853
899.463	0.0145456
899.541	0.0143686
899.619	0.0144560
899.697	0.0143488
899.775	0.0143293
899.853	0.0144159
899.932	0.0143262
900.010	0.0142268
900.088	0.0143578
900.166	0.0145074
900.244	0.0143550
900.322	0.0143377
900.400	0.0143367
900.478	0.0144152
900.557	0.0142534
900.635	0.0144530
900.713	0.0144063
900.791	0.0143694
900.869	0.0144691
900.947	0.0142945
901.025	0.0144061
901.103	0.0142423
901.182	0.0143308
901.260	0.0144447
901.338	0.0143736
901.416	0.0144991
901.494	0.0144221
901.572	0.0145721
901.650	0.0145288
901.728	0.0144410
901.807	0.0145846
901.885	0.0144825
901.963	0.0144015
902.041	0.0145177
902.119	0.0144363
902.197	0.0144508
902.275	0.0143825
902.353	0.0143732
902.432	0.0142992
902.510	0.0144019
902.588	0.0144131
902.666	0.0143501
902.744	0.0144246
902.822	0.0143948
902.900	0.0144353
902.978	0.0144448
903.057	0.0143640
903.135	0.0144209
903.213	0.0143777
903.291	0.0144564
903.369	0.0143452
903.447	0.0143625
903.525	0.0143332
903.603	0.0143114
903.682	0.0142772
903.760	0.0144569
903.838	0.0145148
903.916	0.0144527
903.994	0.0145028
904.072	0.0142454
904.150	0.0143090
904.228	0.0143044
904.307	0.0143967
904.385	0.0143755
904.463	0.0144782
904.541	0.0143813
904.619	0.0143011
904.697	0.0143155
904.775	0.0142335
904.853	0.0142980
904.932	0.0142532
905.010	0.0140755
905.088	0.0140119
905.166	0.0141278
905.244	0.0141625
905.322	0.0140200
905.400	0.0140932
905.478	0.0141444
905.557	0.0141679
905.635	0.0139687
905.713	0.0140413
905.791	0.0140071
905.869	0.0140619
905.947	0.0140791
906.025	0.0140448
906.103	0.0142584
906.182	0.0141726
906.260	0.0141822
906.338	0.0142902
906.416	0.0143113
906.494	0.0144102
906.572	0.0143404
906.650	0.0143700
906.728	0.0143256
906.807	0.0144713
906.885	0.0143210
906.963	0.0145086
907.041	0.0143014
907.119	0.0144383
907.197	0.0143804
907.275	0.0145054
907.353	0.0144263
907.432	0.0144646
907.510	0.0145210
907.588	0.0145049
907.666	0.0146145
907.744	0.0145320
907.822	0.0144595
907.900	0.0147068
907.978	0.0143925
908.057	0.0144621
908.135	0.0145678
908.213	0.0144971
908.291	0.0144273
908.369	0.0144926
908.447	0.0145654
908.525	0.0146543
908.603	0.0144677
908.682	0.0144373
908.760	0.0145890
908.838	0.0145472
908.916	0.0145325
908.994	0.0145041
909.072	0.0143968
909.150	0.0144883
909.228	0.0145583
909.307	0.0145758
909.385	0.0143781
909.463	0.0144051
909.541	0.0145261
909.619	0.0144075
909.697	0.0145357
909.775	0.0144361
909.853	0.0144424
909.932	0.0145197
910.010	0.0143285
910.088	0.0143630
910.166	0.0144417
910.244	0.0143314
910.322	0.0144236
910.400	0.0143250
910.478	0.0144209
910.557	0.0142358
910.635	0.0141433
910.713	0.0142297
910.791	0.0142657
910.869	0.0143341
910.947	0.0142860
911.025	0.0142782
911.103	0.0142307
911.182	0.0142428
911.260	0.0143431
911.338	0.0142619
911.416	0.0141396
911.494	0.0143277
911.572	0.0142404
911.650	0.0143933
911.728	0.0144599
911.807	0.0143923
911.885	0.0143168
911.963	0.0144561
912.041	0.0144791
912.119	0.0144372
912.197	0.0144255
912.275	0.0145963
912.353	0.0145217
912.432	0.0145216
912.510	0.0146129
912.588	0.0145998
912.666	0.0145718
912.744	0.0145830
912.822	0.0145973
912.900	0.0144818
912.978	0.0146156
913.057	0.0146076
913.135	0.0145628
913.213	0.0145107
913.291	0.0146151
913.369	0.0145662
913.447	0.0145042
913.525	0.0144868
913.603	0.0144403
913.682	0.0144403
913.760	0.0145609
913.838	0.0144830
913.916	0.0144630
913.994	0.0145658
914.072	0.0145232
914.150	0.0145240
914.228	0.0146429
914.307	0.0145451
914.385	0.0144987
914.463	0.0145660
914.541	0.0145616
914.619	0.0144378
914.697	0.0145078
914.775	0.0144971
914.853	0.0143822
914.932	0.0142744
915.010	0.0143336
915.088	0.0143523
915.166	0.0143580
915.244	0.0143730
915.322	0.0142990
915.400	0.0143668
915.478	0.0141600
915.557	0.0141898
915.635	0.0141895
915.713	0.0141987
915.791	0.0143113
915.869	0.0142152
915.947	0.0142221
916.025	0.0142158
916.103	0.0143001
916.182	0.0142127
916.260	0.0142421
916.338	0.0142724
916.416	0.0143839
916.494	0.0144733
916.572	0.0144417
916.650	0.0144362
916.728	0.0145168
916.807	0.0145847
916.885	0.0144942
916.963	0.0144159
917.041	0.0145477
917.119	0.0146055
917.197	0.0145027
917.275	0.0145762
917.353	0.0144621
917.432	0.0145385
917.510	0.0146857
917.588	0.0145341
917.666	0.0146203
917.744	0.0144521
917.822	0.0144830
917.900	0.0145541
917.978	0.0145195
918.057	0.0144601
918.135	0.0143311
918.213	0.0143450
918.291	0.0145262
918.369	0.0144145
918.447	0.0144323
918.525	0.0143793
918.603	0.0142331
918.682	0.0143034
918.760	0.0142934
918.838	0.0142815
918.916	0.0143143
918.994	0.0141295
919.072	0.0142924
919.150	0.0142684
919.228	0.0142776
919.307	0.0142088
919.385	0.0142210
919.463	0.0141557
919.541	0.0143252
919.619	0.0144105
919.697	0.0142989
919.775	0.0141853
919.853	0.0144263
919.932	0.0144356
920.010	0.0143134
920.088	0.0144792
920.166	0.0143149
920.244	0.0144247
920.322	0.0145511
920.400	0.0144398
920.478	0.0144915
920.557	0.0145647
920.635	0.0145502
920.713	0.0145192
920.791	0.0144265
920.869	0.0144872
920.947	0.0143647
921.025	0.0146159
921.103	0.0145121
921.182	0.0146059
921.260	0.0145374
921.338	0.0143706
921.416	0.0144321
921.494	0.0143508
921.572	0.0144068
921.650	0.0143727
921.728	0.0143389
921.807	0.0143305
921.885	0.0142642
921.963	0.0142561
922.041	0.0143366
922.119	0.0144556
922.197	0.0141427
922.275	0.0144193
922.353	0.0143896
922.432	0.0143426
922.510	0.0143193
922.588	0.0142966
922.666	0.0144038
922.744	0.0143980
922.822	0.0143183
922.900	0.0143736
922.978	0.0144421
923.057	0.0144876
923.135	0.0144173
923.213	0.0143307
923.291	0.0143752
923.369	0.0144830
923.447	0.0143357
923.525	0.0143028
923.603	0.0144825
923.682	0.0143488
923.760	0.0144662
923.838	0.0144580
923.916	0.0144772
923.994	0.0145260
924.072	0.0144527
924.150	0.0141495
924.228	0.0142496
924.307	0.0144646
924.385	0.0143277
924.463	0.0142308
924.541	0.0145022
924.619	0.0144205
924.697	0.0143417
924.775	0.0145486
924.853	0.0143874
924.932	0.0144988
925.010	0.0144637
925.088	0.0144840
925.166	0.0145318
925.244	0.0144327
925.322	0.0144553
925.400	0.0143919
925.478	0.0143922
925.557	0.0143543
925.635	0.0144660
925.713	0.0144389
925.791	0.0144693
925.869	0.0145506
925.947	0.0144717
926.025	0.0144143
926.103	0.0144170
926.182	0.0143940
926.260	0.0144868
926.338	0.0144072
926.416	0.0143864
926.494	0.0142987
926.572	0.0143670
926.650	0.0145542
926.728	0.0145750
926.807	0.0143957
926.885	0.0144556
926.963	0.0144599
927.041	0.0143972
927.119	0.0144805
927.197	0.0145968
927.275	0.0144345
927.353	0.0143346
927.432	0.0144901
927.510	0.0143891
927.588	0.0143341
927.666	0.0142558
927.744	0.0143912
927.822	0.0144198
927.900	0.0143376
927.978	0.0145084
928.057	0.0144868
928.135	0.0142841
928.213	0.0144149
928.291	0.0143578
928.369	0.0143230
928.447	0.0142952
928.525	0.0144091
928.603	0.0143694
928.682	0.0143340
928.760	0.0143530
928.838	0.0142887
928.916	0.0143578
928.994	0.0143504
929.072	0.0143887
929.150	0.0143166
929.228	0.0143776
929.307	0.0145154
929.385	0.0142844
929.463	0.0143793
929.541	0.0143718
929.619	0.0143713
929.697	0.0143793
929.775	0.0143979
929.853	0.0144627
929.932	0.0144862
930.010	0.0144514
930.088	0.0144151
930.166	0.0143620
930.244	0.0143849
930.322	0.0144395
930.400	0.0144785
930.478	0.0144616
930.557	0.0143877
930.635	0.0142863
930.713	0.0143627
930.791	0.0143538
930.869	0.0144193
930.947	0.0144200
931.025	0.0142694
931.103	0.0142403
931.182	0.0142085
931.260	0.0142796
931.338	0.0142342
931.416	0.0142876
931.494	0.0141259
931.572	0.0143583
931.650	0.0143546
931.728	0.0144129
931.807	0.0143424
931.885	0.0144167
931.963	0.0144575
932.041	0.0143421
932.119	0.0142601
932.197	0.0142926
932.275	0.0144268
932.353	0.0144322
932.432	0.0143208
932.510	0.0143877
932.588	0.0143533
932.666	0.0145457
932.744	0.0144817
932.822	0.0144847
932.900	0.0145303
932.978	0.0144022
933.057	0.0143962
933.135	0.0144450
933.213	0.0145801
933.291	0.0146961
933.369	0.0143673
933.447	0.0144561
933.525	0.0144405
933.603	0.0144673
933.682	0.0144237
933.760	0.0143629
933.838	0.0143366
933.916	0.0144471
933.994	0.0143801
934.072	0.0143530
934.150	0.0144193
934.228	0.0142390
934.307	0.0143064
934.385	0.0144289
934.463	0.0143984
934.541	0.0143690
934.619	0.0143379
934.697	0.0143727
934.775	0.0143940
934.853	0.0144290
934.932	0.0142912
935.010	0.0141930
935.088	0.0144167
935.166	0.0144057
935.244	0.0143250
935.322	0.0143690
935.400	0.0143502
935.478	0.0143805
935.557	0.0143954
935.635	0.0144861
935.713	0.0143233
935.791	0.0144550
935.869	0.0144700
935.947	0.0144220
936.025	0.0145204
936.103	0.0144063
936.182	0.0145149
936.260	0.0144849
936.338	0.0144262
936.416	0.0146600
936.494	0.0146384
936.572	0.0145419
936.650	0.0144976
936.728	0.0145010
936.807	0.0146176
936.885	0.0145813
936.963	0.0145341
937.041	0.0145561
937.119	0.0146138
937.197	0.0146459
937.275	0.0145982
937.353	0.0146268
937.432	0.0145649
937.510	0.0145361
937.588	0.0145989
937.666	0.0146124
937.744	0.0146000
937.822	0.0145693
937.900	0.0146382
937.978	0.0144248
938.057	0.0144530
938.135	0.0144079
938.213	0.0143974
938.291	0.0144434
938.369	0.0143909
938.447	0.0143609
938.525	0.0145187
938.603	0.0144109
938.682	0.0143777
938.760	0.0141982
938.838	0.0142321
938.916	0.0141484
938.994	0.0143071
939.072	0.0142660
939.150	0.0142365
939.228	0.0143480
939.307	0.0142737
939.385	0.0141936
939.463	0.0141546
939.541	0.0141769
939.619	0.0143306
939.697	0.0140972
939.775	0.0142164
939.853	0.0143688
939.932	0.0142195
940.010	0.0142271
940.088	0.0143248
940.166	0.0144705
940.244	0.0142001
940.322	0.0143661
940.400	0.0145244
940.478	0.0144184
940.557	0.0142664
940.635	0.0145374
940.713	0.0143996
940.791	0.0144431
940.869	0.0145212
940.947	0.0146477
941.025	0.0144778
941.103	0.0145387
941.182	0.0145975
941.260	0.0144956
941.338	0.0144329
941.416	0.0146133
941.494	0.0143091
941.572	0.0144568
941.650	0.0144923
941.728	0.0144273
941.807	0.0144529
941.885	0.0143657
941.963	0.0144527
942.041	0.0144532
942.119	0.0144124
942.197	0.0144556
942.275	0.0142580
942.353	0.0143362
942.432	0.0142918
942.510	0.0143137
942.588	0.0143544
942.666	0.0142463
942.744	0.0143745
942.822	0.0143953
942.900	0.0142297
942.978	0.0142280
943.057	0.0143805
943.135	0.0143745
943.213	0.0144108
943.291	0.0142894
943.369	0.0142439
943.447	0.0144031
943.525	0.0143153
943.603	0.0143910
943.682	0.0142056
943.760	0.0143803
943.838	0.0143932
943.916	0.0143601
943.994	0.0143579
944.072	0.0143894
944.150	0.0142322
944.228	0.0142129
944.307	0.0142432
944.385	0.0144386
944.463	0.0144869
944.541	0.0143322
944.619	0.0143312
944.697	0.0144641
944.775	0.0143087
944.853	0.0144971
944.932	0.0143672
945.010	0.0143112
945.088	0.0142122
945.166	0.0143672
945.244	0.0141876
945.322	0.0142945
945.400	0.0143373
945.478	0.0143043
945.557	0.0144013
945.635	0.0142974
945.713	0.0143190
945.791	0.0143521
945.869	0.0143758
945.947	0.0144354
946.025	0.0143202
946.103	0.0144022
946.182	0.0144080
946.260	0.0144257
946.338	0.0145385
946.416	0.0144417
946.494	0.0143697
946.572	0.0144429
946.650	0.0146372
946.728	0.0145017
946.807	0.0145760
946.885	0.0145122
946.963	0.0145081
947.041	0.0144639
947.119	0.0144315
947.197	0.0144941
947.275	0.0143819
947.353	0.0143559
947.432	0.0144458
947.510	0.0143223
947.588	0.0143224
947.666	0.0143987
947.744	0.0143526
947.822	0.0143484
947.900	0.0143531
947.978	0.0145422
948.057	0.0143466
948.135	0.0142637
948.213	0.0143198
948.291	0.0145050
948.369	0.0144233
948.447	0.0144888
948.525	0.0144437
948.603	0.0142880
948.682	0.0143919
948.760	0.0144315
948.838	0.0142768
948.916	0.0142534
948.994	0.0143954
949.072	0.0144526
949.150	0.0144724
949.228	0.0144871
949.307	0.0144162
949.385	0.0144141
949.463	0.0144585
949.541	0.0144231
949.619	0.0143438
949.697	0.0144396
949.775	0.0144971
949.853	0.0143679
949.932	0.0144269
950.010	0.0145308
950.088	0.0144475
950.166	0.0146239
950.244	0.0144197
950.322	0.0144028
950.400	0.0143482
950.478	0.0143407
950.557	0.0143694
950.635	0.0143831
950.713	0.0143082
950.791	0.0144173
950.869	0.0143954
950.947	0.0143526
951.025	0.0142909
951.103	0.0141522
951.182	0.0143275
951.260	0.0142974
951.338	0.0142725
951.416	0.0143861
951.494	0.0141489
951.572	0.0141796
951.650	0.0142464
951.728	0.0142501
951.807	0.0141093
951.885	0.0142606
951.963	0.0143262
952.041	0.0142310
952.119	0.0141050
952.197	0.0142632
952.275	0.0141763
952.353	0.0142059
952.432	0.0142898
952.510	0.0142767
952.588	0.0142995
952.666	0.0142374
952.744	0.0142630
952.822	0.0142965
952.900	0.0141827
952.978	0.0142917
953.057	0.0142432
953.135	0.0143576
953.213	0.0142409
953.291	0.0142653
953.369	0.0143224
953.447	0.0141172
953.525	0.0142334
953.603	0.0142921
953.682	0.0143127
953.760	0.0144516
953.838	0.0142683
953.916	0.0142735
953.994	0.0143580
954.072	0.0143589
954.150	0.0143501
954.228	0.0144668
954.307	0.0143555
954.385	0.0144270
954.463	0.0144688
954.541	0.0143927
954.619	0.0142647
954.697	0.0144963
954.775	0.0144965
954.853	0.0143251
954.932	0.0143803
955.010	0.0144437
955.088	0.0144016
955.166	0.0143795
955.244	0.0143005
955.322	0.0142817
955.400	0.0143037
955.478	0.0143327
955.557	0.0142313
955.635	0.0141380
955.713	0.0144354
955.791	0.0142664
955.869	0.0141837
955.947	0.0142570
956.025	0.0142362
956.103	0.0142072
956.182	0.0141736
956.260	0.0142677
956.338	0.0142115
956.416	0.0142419
956.494	0.0142077
956.572	0.0142834
956.650	0.0142571
956.728	0.0143139
956.807	0.0142773
956.885	0.0143513
956.963	0.0142290
957.041	0.0143322
957.119	0.0144022
957.197	0.0143553
957.275	0.0143522
957.353	0.0144185
957.432	0.0143980
957.510	0.0144444
957.588	0.0143520
957.666	0.0144244
957.744	0.0145628
957.822	0.0143323
957.900	0.0144873
957.978	0.0144849
958.057	0.0143913
958.135	0.0145220
958.213	0.0145601
958.291	0.0143554
958.369	0.0144332
958.447	0.0146973
958.525	0.0145866
958.603	0.0146458
958.682	0.0145010
958.760	0.0145436
958.838	0.0145962
958.916	0.0146198
958.994	0.0144206
959.072	0.0144933
959.150	0.0145774
959.228	0.0144450
959.307	0.0145116
959.385	0.0144070
959.463	0.0145792
959.541	0.0144003
959.619	0.0144859
959.697	0.0144904
959.775	0.0143391
959.853	0.0145033
959.932	0.0143304
960.010	0.0143610
960.088	0.0144366
960.166	0.0143133
960.244	0.0143584
960.322	0.0143008
960.400	0.0144273
960.478	0.0143977
960.557	0.0142446
960.635	0.0143206
960.713	0.0142866
960.791	0.0143292
960.869	0.0144974
960.947	0.0144720
961.025	0.0142907
961.103	0.0143810
961.182	0.0143218
961.260	0.0143488
961.338	0.0142889
961.416	0.0143874
961.494	0.0143613
961.572	0.0144273
961.650	0.0144031
961.728	0.0144544
961.807	0.0143276
961.885	0.0144971
961.963	0.0144262
962.041	0.0143034
962.119	0.0143615
962.197	0.0145641
962.275	0.0144958
962.353	0.0143603
962.432	0.0145013
962.510	0.0143755
962.588	0.0143317
962.666	0.0145053
962.744	0.0144315
962.822	0.0144083
962.900	0.0144489
962.978	0.0145647
963.057	0.0144697
963.135	0.0145707
963.213	0.0143546
963.291	0.0144086
963.369	0.0145882
963.447	0.0143042
963.525	0.0145083
963.603	0.0144248
963.682	0.0144244
963.760	0.0144170
963.838	0.0142818
963.916	0.0143614
963.994	0.0144788
964.072	0.0144448
964.150	0.0144138
964.228	0.0143826
964.307	0.0142672
964.385	0.0141877
964.463	0.0143716
964.541	0.0142890
964.619	0.0142233
964.697	0.0141483
964.775	0.0141230
964.853	0.0142423
964.932	0.0143111
965.010	0.0141586
965.088	0.0140212
965.166	0.0141158
965.244	0.0141624
965.322	0.0140820
965.400	0.0141572
965.478	0.0142559
965.557	0.0142834
965.635	0.0141903
965.713	0.0142764
965.791	0.0143044
965.869	0.0143063
965.947	0.0143297
966.025	0.0142509
966.103	0.0144091
966.182	0.0144876
966.260	0.0145731
966.338	0.0145296
966.416	0.0145895
966.494	0.0145155
966.572	0.0146250
966.650	0.0146613
966.728	0.0145999
966.807	0.0145408
966.885	0.0146204
966.963	0.0145061
967.041	0.0144952
967.119	0.0145870
967.197	0.0145905
967.275	0.0145603
967.353	0.0144748
967.432	0.0146842
967.510	0.0145648
967.588	0.0145505
967.666	0.0144495
967.744	0.0143522
967.822	0.0143990
967.900	0.0143031
967.978	0.0145067
968.057	0.0143695
968.135	0.0143524
968.213	0.0142447
968.291	0.0143188
968.369	0.0143219
968.447	0.0142535
968.525	0.0143046
968.603	0.0142688
968.682	0.0142480
968.760	0.0140282
968.838	0.0142392
968.916	0.0141935
968.994	0.0142266
969.072	0.0142476
969.150	0.0142220
969.228	0.0142488
969.307	0.0142716
969.385	0.0142517
969.463	0.0141899
969.541	0.0140548
969.619	0.0141194
969.697	0.0141853
969.775	0.0142437
969.853	0.0141479
969.932	0.0140992
