05/14/2022	19:39:21	Ver.	4.1	UNKNOWN
Optical Delay	650.009681	Delta X		0.078125	Sweeps	1	Scan Rate	0/0
Coordinates	Axis 1	NaN	Axis 2	NaN	Axis 3	NaN	Axis 4	NaN	Axis 5	NaN	Axis 6	0.000000
TX Power	0.000000	RX Power	0.000000

650.010	0.0142899
650.088	0.0140934
650.166	0.0141659
650.244	0.0141418
650.322	0.0139117
650.400	0.0140515
650.478	0.0140755
650.557	0.0140120
650.635	0.0140027
650.713	0.0140208
650.791	0.0139685
650.869	0.0140140
650.947	0.0140735
651.025	0.0140604
651.103	0.0141589
651.182	0.0141355
651.260	0.0141130
651.338	0.0140721
651.416	0.0142267
651.494	0.0142197
651.572	0.0143084
651.650	0.0143297
651.728	0.0143339
651.807	0.0143214
651.885	0.0143102
651.963	0.0142667
652.041	0.0143151
652.119	0.0141995
652.197	0.0142155
652.275	0.0143880
652.353	0.0143719
652.432	0.0142139
652.510	0.0143044
652.588	0.0142841
652.666	0.0142271
652.744	0.0142940
652.822	0.0143443
652.900	0.0144872
652.978	0.0143545
653.057	0.0144447
653.135	0.0144742
653.213	0.0142710
653.291	0.0143679
653.369	0.0143441
653.447	0.0143879
653.525	0.0142583
653.603	0.0141502
653.682	0.0143588
653.760	0.0143821
653.838	0.0140994
653.916	0.0141132
653.994	0.0141637
654.072	0.0141047
654.150	0.0139506
654.228	0.0139361
654.307	0.0138804
654.385	0.0139300
654.463	0.0140088
654.541	0.0138599
654.619	0.0140987
654.697	0.0140797
654.775	0.0142341
654.853	0.0143147
654.932	0.0143194
655.010	0.0143250
655.088	0.0142165
655.166	0.0143741
655.244	0.0143752
655.322	0.0144702
655.400	0.0143996
655.478	0.0142755
655.557	0.0143394
655.635	0.0142519
655.713	0.0143085
655.791	0.0142865
655.869	0.0142355
655.947	0.0141768
656.025	0.0140400
656.103	0.0140792
656.182	0.0141018
656.260	0.0139661
656.338	0.0140823
656.416	0.0140457
656.494	0.0139300
656.572	0.0138704
656.650	0.0139668
656.728	0.0140760
656.807	0.0139884
656.885	0.0140034
656.963	0.0140903
657.041	0.0142031
657.119	0.0141975
657.197	0.0142238
657.275	0.0143288
657.353	0.0141383
657.432	0.0142355
657.510	0.0143446
657.588	0.0142648
657.666	0.0143942
657.744	0.0143182
657.822	0.0142667
657.900	0.0142565
657.978	0.0141930
658.057	0.0142203
658.135	0.0140880
658.213	0.0140242
658.291	0.0140452
658.369	0.0138394
658.447	0.0136612
658.525	0.0136645
658.603	0.0136876
658.682	0.0135437
658.760	0.0136156
658.838	0.0137117
658.916	0.0135617
658.994	0.0136659
659.072	0.0137628
659.150	0.0137122
659.228	0.0138589
659.307	0.0139397
659.385	0.0140102
659.463	0.0141688
659.541	0.0144193
659.619	0.0146291
659.697	0.0145313
659.775	0.0146259
659.853	0.0147149
659.932	0.0148144
660.010	0.0148536
660.088	0.0149377
660.166	0.0147350
660.244	0.0147498
660.322	0.0146975
660.400	0.0146562
660.478	0.0146106
660.557	0.0146126
660.635	0.0143992
660.713	0.0142715
660.791	0.0142663
660.869	0.0141133
660.947	0.0138666
661.025	0.0138508
661.103	0.0136864
661.182	0.0135316
661.260	0.0134018
661.338	0.0132573
661.416	0.0131824
661.494	0.0129819
661.572	0.0128779
661.650	0.0128337
661.728	0.0128860
661.807	0.0129081
661.885	0.0129200
661.963	0.0129624
662.041	0.0129292
662.119	0.0130323
662.197	0.0132214
662.275	0.0134065
662.353	0.0137611
662.432	0.0137253
662.510	0.0139376
662.588	0.0141446
662.666	0.0142738
662.744	0.0144683
662.822	0.0147854
662.900	0.0148138
662.978	0.0148802
663.057	0.0150874
663.135	0.0153158
663.213	0.0153906
663.291	0.0154153
663.369	0.0153928
663.447	0.0153989
663.525	0.0154623
663.603	0.0154209
663.682	0.0155140
663.760	0.0155137
663.838	0.0154984
663.916	0.0153088
663.994	0.0152192
664.072	0.0150594
664.150	0.0150695
664.228	0.0149507
664.307	0.0147482
664.385	0.0145406
664.463	0.0142376
664.541	0.0141702
664.619	0.0139121
664.697	0.0136336
664.775	0.0131504
664.853	0.0130035
664.932	0.0127187
665.010	0.0124826
665.088	0.0122229
665.166	0.0119762
665.244	0.0117664
665.322	0.0115083
665.400	0.0114466
665.478	0.0112793
665.557	0.0114382
665.635	0.0113773
665.713	0.0112993
665.791	0.0114452
665.869	0.0116190
665.947	0.0118979
666.025	0.0121577
666.103	0.0125233
666.182	0.0128683
666.260	0.0133014
666.338	0.0138189
666.416	0.0141318
666.494	0.0147787
666.572	0.0152883
666.650	0.0158204
666.728	0.0163102
666.807	0.0168362
666.885	0.0171601
666.963	0.0176682
667.041	0.0180791
667.119	0.0183092
667.197	0.0183707
667.275	0.0185329
667.353	0.0184165
667.432	0.0183011
667.510	0.0180667
667.588	0.0177709
667.666	0.0176460
667.744	0.0173230
667.822	0.0168095
667.900	0.0165828
667.978	0.0160628
668.057	0.0155378
668.135	0.0150443
668.213	0.0143869
668.291	0.0138371
668.369	0.0132691
668.447	0.0127132
668.525	0.0118862
668.603	0.0115285
668.682	0.0110858
668.760	0.0105595
668.838	0.00992943
668.916	0.00979134
668.994	0.00967949
669.072	0.00955185
669.150	0.00937813
669.228	0.00952225
669.307	0.00952011
669.385	0.00997070
669.463	0.0102106
669.541	0.0104731
669.619	0.0109191
669.697	0.0113162
669.775	0.0118673
669.853	0.0123145
669.932	0.0128046
670.010	0.0132653
670.088	0.0137891
670.166	0.0142184
670.244	0.0146256
670.322	0.0150079
670.400	0.0155457
670.478	0.0159381
670.557	0.0162637
670.635	0.0164780
670.713	0.0169833
670.791	0.0173817
670.869	0.0176331
670.947	0.0180414
671.025	0.0179771
671.103	0.0181275
671.182	0.0182046
671.260	0.0184164
671.338	0.0183308
671.416	0.0184088
671.494	0.0182770
671.572	0.0180740
671.650	0.0178458
671.728	0.0175181
671.807	0.0170721
671.885	0.0166489
671.963	0.0163089
672.041	0.0159100
672.119	0.0152328
672.197	0.0149820
672.275	0.0141950
672.353	0.0138486
672.432	0.0133603
672.510	0.0129422
672.588	0.0123429
672.666	0.0118269
672.744	0.0114292
672.822	0.0108767
672.900	0.0103946
672.978	0.0101122
673.057	0.00970947
673.135	0.00956902
673.213	0.00932152
673.291	0.00918472
673.369	0.00914711
673.447	0.00922646
673.525	0.00928421
673.603	0.00946114
673.682	0.00962555
673.760	0.0101899
673.838	0.0105323
673.916	0.0109842
673.994	0.0115739
674.072	0.0120780
674.150	0.0125150
674.228	0.0132175
674.307	0.0137505
674.385	0.0142343
674.463	0.0148395
674.541	0.0153541
674.619	0.0160085
674.697	0.0163290
674.775	0.0167075
674.853	0.0174097
674.932	0.0176620
675.010	0.0178500
675.088	0.0182069
675.166	0.0184988
675.244	0.0185410
675.322	0.0185036
675.400	0.0184051
675.478	0.0182815
675.557	0.0183328
675.635	0.0179842
675.713	0.0177437
675.791	0.0175552
675.869	0.0170536
675.947	0.0168986
676.025	0.0163476
676.103	0.0161003
676.182	0.0156668
676.260	0.0152562
676.338	0.0147761
676.416	0.0144170
676.494	0.0141127
676.572	0.0137469
676.650	0.0131390
676.728	0.0128851
676.807	0.0124909
676.885	0.0121252
676.963	0.0118013
677.041	0.0115884
677.119	0.0113173
677.197	0.0112292
677.275	0.0113634
677.353	0.0112705
677.432	0.0113575
677.510	0.0113223
677.588	0.0115479
677.666	0.0117346
677.744	0.0118149
677.822	0.0121273
677.900	0.0123846
677.978	0.0124825
678.057	0.0125359
678.135	0.0127332
678.213	0.0130893
678.291	0.0132287
678.369	0.0134177
678.447	0.0134866
678.525	0.0136210
678.603	0.0139450
678.682	0.0142365
678.760	0.0143147
678.838	0.0144743
678.916	0.0147237
678.994	0.0147740
679.072	0.0149888
679.150	0.0150848
679.228	0.0151762
679.307	0.0152242
679.385	0.0151499
679.463	0.0151131
679.541	0.0150893
679.619	0.0151262
679.697	0.0151496
679.775	0.0149526
679.853	0.0149847
679.932	0.0148729
680.010	0.0147424
680.088	0.0147369
680.166	0.0146848
680.244	0.0148494
680.322	0.0148276
680.400	0.0147314
680.478	0.0147600
680.557	0.0147929
680.635	0.0148087
680.713	0.0145637
680.791	0.0146312
680.869	0.0147465
680.947	0.0147334
681.025	0.0144542
681.103	0.0145804
681.182	0.0143892
681.260	0.0145041
681.338	0.0144516
681.416	0.0143503
681.494	0.0143475
681.572	0.0144860
681.650	0.0144529
681.728	0.0143847
681.807	0.0142921
681.885	0.0143007
681.963	0.0144292
682.041	0.0143089
682.119	0.0143098
682.197	0.0141609
682.275	0.0140865
682.353	0.0139622
682.432	0.0140099
682.510	0.0136591
682.588	0.0136455
682.666	0.0136458
682.744	0.0135056
682.822	0.0134232
682.900	0.0134344
682.978	0.0134628
683.057	0.0134766
683.135	0.0135203
683.213	0.0132861
683.291	0.0133683
683.369	0.0133652
683.447	0.0131313
683.525	0.0131342
683.603	0.0131527
683.682	0.0129854
683.760	0.0128582
683.838	0.0127554
683.916	0.0125426
683.994	0.0124720
684.072	0.0124236
684.150	0.0124249
684.228	0.0123020
684.307	0.0121243
684.385	0.0123856
684.463	0.0125098
684.541	0.0125031
684.619	0.0126395
684.697	0.0127177
684.775	0.0130488
684.853	0.0132363
684.932	0.0133263
685.010	0.0135329
685.088	0.0136662
685.166	0.0139092
685.244	0.0141185
685.322	0.0144869
685.400	0.0145590
685.478	0.0148425
685.557	0.0150404
685.635	0.0153574
685.713	0.0156591
685.791	0.0157807
685.869	0.0160392
685.947	0.0162940
686.025	0.0163556
686.103	0.0164590
686.182	0.0167469
686.260	0.0167645
686.338	0.0168651
686.416	0.0169871
686.494	0.0168516
686.572	0.0168352
686.650	0.0167265
686.728	0.0164954
686.807	0.0164571
686.885	0.0161998
686.963	0.0159717
687.041	0.0157540
687.119	0.0155630
687.197	0.0153265
687.275	0.0150319
687.353	0.0149101
687.432	0.0146611
687.510	0.0144199
687.588	0.0141588
687.666	0.0138779
687.744	0.0135165
687.822	0.0134565
687.900	0.0129099
687.978	0.0126927
688.057	0.0122443
688.135	0.0119619
688.213	0.0117204
688.291	0.0114811
688.369	0.0113980
688.447	0.0111225
688.525	0.0109695
688.603	0.0109241
688.682	0.0108413
688.760	0.0109336
688.838	0.0109926
688.916	0.0110324
688.994	0.0112476
689.072	0.0114046
689.150	0.0115677
689.228	0.0117372
689.307	0.0121532
689.385	0.0124004
689.463	0.0126304
689.541	0.0127537
689.619	0.0131810
689.697	0.0135457
689.775	0.0138737
689.853	0.0141154
689.932	0.0144060
690.010	0.0148234
690.088	0.0151112
690.166	0.0153075
690.244	0.0156229
690.322	0.0158598
690.400	0.0160797
690.478	0.0165134
690.557	0.0164324
690.635	0.0166856
690.713	0.0169377
690.791	0.0169196
690.869	0.0170061
690.947	0.0169965
691.025	0.0168451
691.103	0.0169558
691.182	0.0166418
691.260	0.0165999
691.338	0.0163131
691.416	0.0159605
691.494	0.0156660
691.572	0.0154492
691.650	0.0151657
691.728	0.0148745
691.807	0.0144615
691.885	0.0141924
691.963	0.0138852
692.041	0.0135589
692.119	0.0133412
692.197	0.0132482
692.275	0.0129556
692.353	0.0127457
692.432	0.0127291
692.510	0.0125062
692.588	0.0124897
692.666	0.0123228
692.744	0.0123392
692.822	0.0123892
692.900	0.0122289
692.978	0.0122280
693.057	0.0122866
693.135	0.0123830
693.213	0.0124788
693.291	0.0123878
693.369	0.0125230
693.447	0.0126715
693.525	0.0127251
693.603	0.0131078
693.682	0.0131603
693.760	0.0135098
693.838	0.0136949
693.916	0.0140714
693.994	0.0143488
694.072	0.0144859
694.150	0.0148603
694.228	0.0149300
694.307	0.0151198
694.385	0.0152107
694.463	0.0152916
694.541	0.0154074
694.619	0.0152638
694.697	0.0152778
694.775	0.0152864
694.853	0.0149888
694.932	0.0148249
695.010	0.0147018
695.088	0.0143594
695.166	0.0142228
695.244	0.0140405
695.322	0.0138094
695.400	0.0136661
695.478	0.0132959
695.557	0.0133540
695.635	0.0130210
695.713	0.0130175
695.791	0.0129172
695.869	0.0128886
695.947	0.0130634
696.025	0.0130603
696.103	0.0131644
696.182	0.0132887
696.260	0.0134482
696.338	0.0135650
696.416	0.0138952
696.494	0.0140202
696.572	0.0143217
696.650	0.0143739
696.728	0.0145271
696.807	0.0146853
696.885	0.0150153
696.963	0.0151473
697.041	0.0152429
697.119	0.0154491
697.197	0.0154850
697.275	0.0155065
697.353	0.0154935
697.432	0.0155710
697.510	0.0155827
697.588	0.0156084
697.666	0.0156198
697.744	0.0155058
697.822	0.0153971
697.900	0.0153158
697.978	0.0150945
698.057	0.0149854
698.135	0.0148685
698.213	0.0147112
698.291	0.0145580
698.369	0.0145228
698.447	0.0143024
698.525	0.0140810
698.603	0.0139824
698.682	0.0136575
698.760	0.0134086
698.838	0.0133440
698.916	0.0130692
698.994	0.0131059
699.072	0.0130254
699.150	0.0129154
699.228	0.0129386
699.307	0.0129790
699.385	0.0128882
699.463	0.0132227
699.541	0.0131986
699.619	0.0133286
699.697	0.0134112
699.775	0.0134930
699.853	0.0135198
699.932	0.0135323
700.010	0.0135510
700.088	0.0135298
700.166	0.0134396
700.244	0.0134521
700.322	0.0134143
700.400	0.0135137
700.478	0.0134093
700.557	0.0135127
700.635	0.0133748
700.713	0.0132606
700.791	0.0134156
700.869	0.0133984
700.947	0.0135886
701.025	0.0138585
701.103	0.0138646
701.182	0.0139787
701.260	0.0141046
701.338	0.0142875
701.416	0.0143851
701.494	0.0145317
701.572	0.0147830
701.650	0.0148512
701.728	0.0149347
701.807	0.0150723
701.885	0.0151402
701.963	0.0153082
702.041	0.0151595
702.119	0.0152269
702.197	0.0152494
702.275	0.0150889
702.353	0.0151128
702.432	0.0151729
702.510	0.0149425
702.588	0.0147571
702.666	0.0147367
702.744	0.0144515
702.822	0.0143302
702.900	0.0141872
702.978	0.0139959
703.057	0.0137921
703.135	0.0138712
703.213	0.0136032
703.291	0.0134084
703.369	0.0133946
703.447	0.0131993
703.525	0.0131132
703.603	0.0130702
703.682	0.0130929
703.760	0.0129945
703.838	0.0130682
703.916	0.0129480
703.994	0.0130271
704.072	0.0132417
704.150	0.0134582
704.228	0.0136053
704.307	0.0135725
704.385	0.0140017
704.463	0.0142244
704.541	0.0143268
704.619	0.0145719
704.697	0.0149226
704.775	0.0151157
704.853	0.0153088
704.932	0.0154264
705.010	0.0154092
705.088	0.0155647
705.166	0.0155176
705.244	0.0156124
705.322	0.0155824
705.400	0.0154288
705.478	0.0154305
705.557	0.0153127
705.635	0.0151309
705.713	0.0149815
705.791	0.0147734
705.869	0.0146541
705.947	0.0143073
706.025	0.0141908
706.103	0.0139491
706.182	0.0136540
706.260	0.0136385
706.338	0.0134528
706.416	0.0132049
706.494	0.0130041
706.572	0.0127916
706.650	0.0127087
706.728	0.0125972
706.807	0.0125066
706.885	0.0125200
706.963	0.0124222
707.041	0.0122635
707.119	0.0124267
707.197	0.0124763
707.275	0.0125327
707.353	0.0127273
707.432	0.0129131
707.510	0.0132628
707.588	0.0133630
707.666	0.0135573
707.744	0.0136956
707.822	0.0138855
707.900	0.0141444
707.978	0.0142434
708.057	0.0144861
708.135	0.0146899
708.213	0.0148508
708.291	0.0149536
708.369	0.0150361
708.447	0.0151752
708.525	0.0154196
708.603	0.0155340
708.682	0.0156367
708.760	0.0156487
708.838	0.0156947
708.916	0.0156258
708.994	0.0155094
709.072	0.0156559
709.150	0.0156184
709.228	0.0154479
709.307	0.0152239
709.385	0.0151291
709.463	0.0150842
709.541	0.0149413
709.619	0.0148849
709.697	0.0146489
709.775	0.0144141
709.853	0.0142941
709.932	0.0142959
710.010	0.0139250
710.088	0.0138685
710.166	0.0135807
710.244	0.0136610
710.322	0.0135505
710.400	0.0134666
710.478	0.0132815
710.557	0.0129941
710.635	0.0130910
710.713	0.0129447
710.791	0.0129539
710.869	0.0128979
710.947	0.0128437
711.025	0.0127077
711.103	0.0127847
711.182	0.0127008
711.260	0.0126616
711.338	0.0129633
711.416	0.0129667
711.494	0.0131033
711.572	0.0132108
711.650	0.0132429
711.728	0.0132112
711.807	0.0134383
711.885	0.0135902
711.963	0.0138016
712.041	0.0138992
712.119	0.0139350
712.197	0.0142447
712.275	0.0143295
712.353	0.0145002
712.432	0.0146538
712.510	0.0147316
712.588	0.0149356
712.666	0.0149292
712.744	0.0150224
712.822	0.0152338
712.900	0.0153108
712.978	0.0153694
713.057	0.0154395
713.135	0.0153057
713.213	0.0154001
713.291	0.0154871
713.369	0.0154745
713.447	0.0154116
713.525	0.0152647
713.603	0.0151653
713.682	0.0150092
713.760	0.0149869
713.838	0.0148621
713.916	0.0146451
713.994	0.0143455
714.072	0.0143377
714.150	0.0142719
714.228	0.0143938
714.307	0.0140684
714.385	0.0138967
714.463	0.0139214
714.541	0.0137659
714.619	0.0136503
714.697	0.0134095
714.775	0.0135238
714.853	0.0133720
714.932	0.0132359
715.010	0.0131168
715.088	0.0129500
715.166	0.0130166
715.244	0.0129691
715.322	0.0129452
715.400	0.0129288
715.478	0.0130746
715.557	0.0130497
715.635	0.0130420
715.713	0.0131422
715.791	0.0132755
715.869	0.0134290
715.947	0.0134249
716.025	0.0136028
716.103	0.0137714
716.182	0.0137562
716.260	0.0139912
716.338	0.0141560
716.416	0.0140646
716.494	0.0142465
716.572	0.0141747
716.650	0.0144135
716.728	0.0144906
716.807	0.0145155
716.885	0.0146333
716.963	0.0146490
717.041	0.0148069
717.119	0.0147726
717.197	0.0148156
717.275	0.0147997
717.353	0.0149576
717.432	0.0149294
717.510	0.0147978
717.588	0.0150035
717.666	0.0149370
717.744	0.0147139
717.822	0.0147496
717.900	0.0147951
717.978	0.0147343
718.057	0.0147268
718.135	0.0147587
718.213	0.0146777
718.291	0.0147652
718.369	0.0146730
718.447	0.0147668
718.525	0.0147450
718.603	0.0146103
718.682	0.0145674
718.760	0.0144984
718.838	0.0144955
718.916	0.0144970
718.994	0.0144508
719.072	0.0143011
719.150	0.0142863
719.228	0.0141867
719.307	0.0140274
719.385	0.0139549
719.463	0.0139892
719.541	0.0138531
719.619	0.0137724
719.697	0.0138403
719.775	0.0137035
719.853	0.0138110
719.932	0.0137505
720.010	0.0134875
720.088	0.0135724
720.166	0.0136937
720.244	0.0135909
720.322	0.0136159
720.400	0.0136918
720.478	0.0135864
720.557	0.0135041
720.635	0.0136870
720.713	0.0136816
720.791	0.0137477
720.869	0.0136909
720.947	0.0135678
721.025	0.0137406
721.103	0.0137289
721.182	0.0138034
721.260	0.0137862
721.338	0.0138898
721.416	0.0139082
721.494	0.0139687
721.572	0.0141326
721.650	0.0140547
721.728	0.0142387
721.807	0.0142054
721.885	0.0143488
721.963	0.0145117
722.041	0.0144883
722.119	0.0143643
722.197	0.0145519
722.275	0.0146258
722.353	0.0145805
722.432	0.0146934
722.510	0.0146067
722.588	0.0145226
722.666	0.0146349
722.744	0.0145030
722.822	0.0145153
722.900	0.0143311
722.978	0.0144536
723.057	0.0144151
723.135	0.0143367
723.213	0.0142294
723.291	0.0143515
723.369	0.0142712
723.447	0.0142286
723.525	0.0144603
723.603	0.0143304
723.682	0.0144558
723.760	0.0143911
723.838	0.0145042
723.916	0.0145728
723.994	0.0143842
724.072	0.0143326
724.150	0.0143331
724.228	0.0142365
724.307	0.0143552
724.385	0.0141693
724.463	0.0141067
724.541	0.0140395
724.619	0.0138866
724.697	0.0139987
724.775	0.0139117
724.853	0.0138101
724.932	0.0137904
725.010	0.0138200
725.088	0.0140339
725.166	0.0138496
725.244	0.0137878
725.322	0.0137255
725.400	0.0137278
725.478	0.0140256
725.557	0.0138794
725.635	0.0139144
725.713	0.0139194
725.791	0.0139407
725.869	0.0140521
725.947	0.0139360
726.025	0.0139999
726.103	0.0140076
726.182	0.0139506
726.260	0.0139530
726.338	0.0140651
726.416	0.0141422
726.494	0.0140738
726.572	0.0140751
726.650	0.0142241
726.728	0.0139607
726.807	0.0142181
726.885	0.0141709
726.963	0.0141080
727.041	0.0140131
727.119	0.0140545
727.197	0.0141848
727.275	0.0141978
727.353	0.0139567
727.432	0.0140221
727.510	0.0141645
727.588	0.0141644
727.666	0.0141833
727.744	0.0141636
727.822	0.0143510
727.900	0.0142294
727.978	0.0143136
728.057	0.0143356
728.135	0.0145027
728.213	0.0144688
728.291	0.0144456
728.369	0.0145804
728.447	0.0147048
728.525	0.0146161
728.603	0.0146400
728.682	0.0148238
728.760	0.0148110
728.838	0.0149011
728.916	0.0147823
728.994	0.0148799
729.072	0.0148183
729.150	0.0149037
729.228	0.0148180
729.307	0.0147189
729.385	0.0146521
729.463	0.0144587
729.541	0.0143843
729.619	0.0143531
729.697	0.0141327
729.775	0.0140671
729.853	0.0140427
729.932	0.0137804
730.010	0.0135317
730.088	0.0137375
730.166	0.0135857
730.244	0.0133395
730.322	0.0132964
730.400	0.0133172
730.478	0.0132690
730.557	0.0132259
730.635	0.0134334
730.713	0.0133926
730.791	0.0132951
730.869	0.0133265
730.947	0.0134669
731.025	0.0134489
731.103	0.0134885
731.182	0.0136047
731.260	0.0137305
731.338	0.0138068
731.416	0.0138773
731.494	0.0139165
731.572	0.0139354
731.650	0.0139471
731.728	0.0139579
731.807	0.0140921
731.885	0.0141903
731.963	0.0143816
732.041	0.0144743
732.119	0.0144360
732.197	0.0143796
732.275	0.0145907
732.353	0.0147948
732.432	0.0147282
732.510	0.0146955
732.588	0.0147897
732.666	0.0150992
732.744	0.0151476
732.822	0.0150010
732.900	0.0150603
732.978	0.0150291
733.057	0.0151567
733.135	0.0150961
733.213	0.0149681
733.291	0.0151926
733.369	0.0150653
733.447	0.0148653
733.525	0.0148845
733.603	0.0148859
733.682	0.0148263
733.760	0.0146970
733.838	0.0144386
733.916	0.0143906
733.994	0.0142501
734.072	0.0140909
734.150	0.0139428
734.228	0.0139439
734.307	0.0138783
734.385	0.0136849
734.463	0.0135807
734.541	0.0136756
734.619	0.0136267
734.697	0.0135226
734.775	0.0136581
734.853	0.0134532
734.932	0.0134978
735.010	0.0135560
735.088	0.0135930
735.166	0.0135068
735.244	0.0134473
735.322	0.0136702
735.400	0.0136513
735.478	0.0136765
735.557	0.0137288
735.635	0.0137077
735.713	0.0137916
735.791	0.0140054
735.869	0.0138779
735.947	0.0139501
736.025	0.0140458
736.103	0.0138796
736.182	0.0139658
736.260	0.0140763
736.338	0.0139955
736.416	0.0140811
736.494	0.0140587
736.572	0.0141828
736.650	0.0140875
736.728	0.0140993
736.807	0.0141113
736.885	0.0140645
736.963	0.0141528
737.041	0.0140560
737.119	0.0140573
737.197	0.0139939
737.275	0.0140330
737.353	0.0141383
737.432	0.0140804
737.510	0.0142507
737.588	0.0141314
737.666	0.0141737
737.744	0.0141946
737.822	0.0142909
737.900	0.0143468
737.978	0.0144919
738.057	0.0145659
738.135	0.0145944
738.213	0.0146931
738.291	0.0146842
738.369	0.0147685
738.447	0.0146693
738.525	0.0148700
738.603	0.0149474
738.682	0.0148207
738.760	0.0150103
738.838	0.0149928
738.916	0.0149082
738.994	0.0146721
739.072	0.0148370
739.150	0.0146368
739.228	0.0146718
739.307	0.0145602
739.385	0.0145963
739.463	0.0145421
739.541	0.0145248
739.619	0.0143849
739.697	0.0144716
739.775	0.0144376
739.853	0.0142699
739.932	0.0141970
740.010	0.0142623
740.088	0.0141991
740.166	0.0140812
740.244	0.0139561
740.322	0.0139294
740.400	0.0139069
740.478	0.0139755
740.557	0.0138829
740.635	0.0139224
740.713	0.0138371
740.791	0.0136762
740.869	0.0136231
740.947	0.0134872
741.025	0.0136014
741.103	0.0134993
741.182	0.0135068
741.260	0.0136293
741.338	0.0135542
741.416	0.0135650
741.494	0.0136385
741.572	0.0135848
741.650	0.0136716
741.728	0.0136710
741.807	0.0136842
741.885	0.0138278
741.963	0.0137905
742.041	0.0137604
742.119	0.0138467
742.197	0.0139279
742.275	0.0139747
742.353	0.0141513
742.432	0.0140279
742.510	0.0142725
742.588	0.0143206
742.666	0.0143301
742.744	0.0144337
742.822	0.0144067
742.900	0.0143562
742.978	0.0142801
743.057	0.0141711
743.135	0.0143845
743.213	0.0142595
743.291	0.0142348
743.369	0.0143101
743.447	0.0142107
743.525	0.0142834
743.603	0.0143715
743.682	0.0143481
743.760	0.0143789
743.838	0.0142219
743.916	0.0141782
743.994	0.0142038
744.072	0.0142442
744.150	0.0141870
744.228	0.0142220
744.307	0.0142353
744.385	0.0140641
744.463	0.0141998
744.541	0.0142679
744.619	0.0141161
744.697	0.0142355
744.775	0.0142176
744.853	0.0141589
744.932	0.0140264
745.010	0.0141237
745.088	0.0143077
745.166	0.0142817
745.244	0.0142754
745.322	0.0145273
745.400	0.0143977
745.478	0.0144103
745.557	0.0146423
745.635	0.0146814
745.713	0.0145296
745.791	0.0146970
745.869	0.0147023
745.947	0.0146432
746.025	0.0146312
746.103	0.0146670
746.182	0.0146514
746.260	0.0144798
746.338	0.0145564
746.416	0.0145074
746.494	0.0146074
746.572	0.0144463
746.650	0.0144508
746.728	0.0146129
746.807	0.0143958
746.885	0.0143863
746.963	0.0145096
747.041	0.0143847
747.119	0.0144082
747.197	0.0145359
747.275	0.0144981
747.353	0.0144856
747.432	0.0143851
747.510	0.0144129
747.588	0.0143573
747.666	0.0143571
747.744	0.0144093
747.822	0.0143752
747.900	0.0141889
747.978	0.0142241
748.057	0.0141406
748.135	0.0140795
748.213	0.0141900
748.291	0.0141488
748.369	0.0140301
748.447	0.0139745
748.525	0.0138627
748.603	0.0138315
748.682	0.0139235
748.760	0.0137964
748.838	0.0138828
748.916	0.0138756
748.994	0.0138608
749.072	0.0137282
749.150	0.0138954
749.228	0.0138441
749.307	0.0139491
749.385	0.0139541
749.463	0.0138988
749.541	0.0138960
749.619	0.0139760
749.697	0.0139790
749.775	0.0139687
749.853	0.0140408
749.932	0.0139637
750.010	0.0140324
750.088	0.0141583
750.166	0.0141646
750.244	0.0141406
750.322	0.0141942
750.400	0.0141546
750.478	0.0141824
750.557	0.0141780
750.635	0.0143182
750.713	0.0142438
750.791	0.0143646
750.869	0.0144305
750.947	0.0144024
751.025	0.0144136
751.103	0.0143884
751.182	0.0142976
751.260	0.0142505
751.338	0.0143699
751.416	0.0142760
751.494	0.0142469
751.572	0.0142448
751.650	0.0140923
751.728	0.0141743
751.807	0.0141962
751.885	0.0139903
751.963	0.0139622
752.041	0.0142165
752.119	0.0141168
752.197	0.0141164
752.275	0.0141936
752.353	0.0142059
752.432	0.0141859
752.510	0.0142319
752.588	0.0142061
752.666	0.0141566
752.744	0.0143157
752.822	0.0143304
752.900	0.0142574
752.978	0.0142294
753.057	0.0143005
753.135	0.0143814
753.213	0.0143225
753.291	0.0142313
753.369	0.0142122
753.447	0.0142710
753.525	0.0142278
753.603	0.0141296
753.682	0.0142630
753.760	0.0141156
753.838	0.0141088
753.916	0.0139860
753.994	0.0140228
754.072	0.0140864
754.150	0.0140560
754.228	0.0139507
754.307	0.0139953
754.385	0.0141513
754.463	0.0139111
754.541	0.0139802
754.619	0.0138319
754.697	0.0139589
754.775	0.0139556
754.853	0.0138799
754.932	0.0138550
755.010	0.0140036
755.088	0.0139882
755.166	0.0139800
755.244	0.0139414
755.322	0.0139590
755.400	0.0137981
755.478	0.0137971
755.557	0.0137013
755.635	0.0138216
755.713	0.0139803
755.791	0.0139086
755.869	0.0138973
755.947	0.0138548
756.025	0.0136269
756.103	0.0138615
756.182	0.0139796
756.260	0.0140434
756.338	0.0140729
756.416	0.0140107
756.494	0.0142158
756.572	0.0141523
756.650	0.0140527
756.728	0.0141991
756.807	0.0140417
756.885	0.0140615
756.963	0.0141167
757.041	0.0140998
757.119	0.0141159
757.197	0.0140621
757.275	0.0141186
757.353	0.0140536
757.432	0.0140430
757.510	0.0139630
757.588	0.0139803
757.666	0.0139816
757.744	0.0140144
757.822	0.0140488
757.900	0.0141312
757.978	0.0140069
758.057	0.0141721
758.135	0.0141367
758.213	0.0143176
758.291	0.0143312
758.369	0.0142309
758.447	0.0142434
758.525	0.0145160
758.603	0.0144739
758.682	0.0144274
758.760	0.0145314
758.838	0.0145059
758.916	0.0145787
758.994	0.0146076
759.072	0.0145225
759.150	0.0145095
759.228	0.0145200
759.307	0.0145974
759.385	0.0144268
759.463	0.0146774
759.541	0.0145528
759.619	0.0145937
759.697	0.0145116
759.775	0.0145148
759.853	0.0145499
759.932	0.0146191
760.010	0.0146119
760.088	0.0145813
760.166	0.0143794
760.244	0.0143711
760.322	0.0144516
760.400	0.0144915
760.478	0.0143515
760.557	0.0143573
760.635	0.0144386
760.713	0.0144183
760.791	0.0143797
760.869	0.0143127
760.947	0.0143421
761.025	0.0144549
761.103	0.0143463
761.182	0.0140829
761.260	0.0141323
761.338	0.0141255
761.416	0.0140284
761.494	0.0140107
761.572	0.0139233
761.650	0.0139764
761.728	0.0137946
761.807	0.0138553
761.885	0.0137234
761.963	0.0137330
762.041	0.0136745
762.119	0.0137880
762.197	0.0137272
762.275	0.0136234
762.353	0.0135867
762.432	0.0136752
762.510	0.0136987
762.588	0.0137315
762.666	0.0136690
762.744	0.0137180
762.822	0.0138244
762.900	0.0140143
762.978	0.0140035
763.057	0.0139069
763.135	0.0140444
763.213	0.0141116
763.291	0.0141124
763.369	0.0143652
763.447	0.0144336
763.525	0.0142718
763.603	0.0143569
763.682	0.0144127
763.760	0.0146441
763.838	0.0143681
763.916	0.0144895
763.994	0.0145849
764.072	0.0144890
764.150	0.0144444
764.228	0.0143919
764.307	0.0144234
764.385	0.0143307
764.463	0.0143086
764.541	0.0144917
764.619	0.0143535
764.697	0.0142732
764.775	0.0141327
764.853	0.0143470
764.932	0.0142646
765.010	0.0140245
765.088	0.0140266
765.166	0.0140181
765.244	0.0140386
765.322	0.0140916
765.400	0.0140342
765.478	0.0139483
765.557	0.0139449
765.635	0.0138834
765.713	0.0139529
765.791	0.0139768
765.869	0.0140259
765.947	0.0139383
766.025	0.0140594
766.103	0.0139877
766.182	0.0139425
766.260	0.0141425
766.338	0.0141016
766.416	0.0138711
766.494	0.0140568
766.572	0.0142214
766.650	0.0142062
766.728	0.0142590
766.807	0.0141984
766.885	0.0143777
766.963	0.0142438
767.041	0.0144339
767.119	0.0145430
767.197	0.0145909
767.275	0.0145924
767.353	0.0148047
767.432	0.0148805
767.510	0.0146633
767.588	0.0149982
767.666	0.0149280
767.744	0.0147346
767.822	0.0148470
767.900	0.0149423
767.978	0.0149836
768.057	0.0148727
768.135	0.0147765
768.213	0.0147934
768.291	0.0147693
768.369	0.0145049
768.447	0.0146395
768.525	0.0144607
768.603	0.0143848
768.682	0.0142995
768.760	0.0140707
768.838	0.0140974
768.916	0.0140466
768.994	0.0138262
769.072	0.0138785
769.150	0.0137274
769.228	0.0137414
769.307	0.0136187
769.385	0.0136318
769.463	0.0135235
769.541	0.0135268
769.619	0.0132766
769.697	0.0131954
769.775	0.0132657
769.853	0.0133807
769.932	0.0134768
770.010	0.0133132
770.088	0.0133227
770.166	0.0134150
770.244	0.0133108
770.322	0.0134708
770.400	0.0135854
770.478	0.0135505
770.557	0.0136093
770.635	0.0136973
770.713	0.0137798
770.791	0.0138548
770.869	0.0138245
770.947	0.0139612
771.025	0.0140367
771.103	0.0139957
771.182	0.0140651
771.260	0.0140778
771.338	0.0142180
771.416	0.0142242
771.494	0.0143329
771.572	0.0143532
771.650	0.0142182
771.728	0.0144458
771.807	0.0145571
771.885	0.0144894
771.963	0.0143433
772.041	0.0145395
772.119	0.0144691
772.197	0.0144082
772.275	0.0144066
772.353	0.0145634
772.432	0.0143929
772.510	0.0143169
772.588	0.0143850
772.666	0.0144026
772.744	0.0142898
772.822	0.0143880
772.900	0.0143111
772.978	0.0142287
773.057	0.0140414
773.135	0.0141194
773.213	0.0141193
773.291	0.0139096
773.369	0.0139714
773.447	0.0139759
773.525	0.0140218
773.603	0.0138734
773.682	0.0137077
773.760	0.0138304
773.838	0.0139836
773.916	0.0138014
773.994	0.0137720
774.072	0.0138211
774.150	0.0139254
774.228	0.0137888
774.307	0.0140917
774.385	0.0140509
774.463	0.0138760
774.541	0.0139682
774.619	0.0138362
774.697	0.0139712
774.775	0.0140126
774.853	0.0140755
774.932	0.0138401
775.010	0.0139134
775.088	0.0139813
775.166	0.0139587
775.244	0.0140364
775.322	0.0140018
775.400	0.0139388
775.478	0.0139502
775.557	0.0139671
775.635	0.0139059
775.713	0.0139705
775.791	0.0139079
775.869	0.0138229
775.947	0.0138708
776.025	0.0138873
776.103	0.0138242
776.182	0.0137366
776.260	0.0139316
776.338	0.0138805
776.416	0.0139098
776.494	0.0138986
776.572	0.0139841
776.650	0.0139800
776.728	0.0139721
776.807	0.0139105
776.885	0.0142729
776.963	0.0140971
777.041	0.0139781
777.119	0.0139611
777.197	0.0141495
777.275	0.0140081
777.353	0.0141001
777.432	0.0140427
777.510	0.0140837
777.588	0.0139114
777.666	0.0140359
777.744	0.0139983
777.822	0.0140073
777.900	0.0140463
777.978	0.0140867
778.057	0.0140874
778.135	0.0140820
778.213	0.0140123
778.291	0.0141959
778.369	0.0142141
778.447	0.0142830
778.525	0.0142014
778.603	0.0142148
778.682	0.0141300
778.760	0.0143083
778.838	0.0141571
778.916	0.0140735
778.994	0.0141671
779.072	0.0142765
779.150	0.0143198
779.228	0.0144019
779.307	0.0143191
779.385	0.0141559
779.463	0.0143300
779.541	0.0141683
779.619	0.0141915
779.697	0.0143478
779.775	0.0143526
779.853	0.0142030
779.932	0.0141610
780.010	0.0141433
780.088	0.0139806
780.166	0.0140295
780.244	0.0141685
780.322	0.0140980
780.400	0.0140410
780.478	0.0139683
780.557	0.0140865
780.635	0.0141100
780.713	0.0140925
780.791	0.0140519
780.869	0.0140153
780.947	0.0140950
781.025	0.0140353
781.103	0.0140408
781.182	0.0141084
781.260	0.0141508
781.338	0.0142889
781.416	0.0142180
781.494	0.0141588
781.572	0.0142916
781.650	0.0142709
781.728	0.0142549
781.807	0.0143155
781.885	0.0143998
781.963	0.0142225
782.041	0.0142921
782.119	0.0142605
782.197	0.0143737
782.275	0.0143385
782.353	0.0143577
782.432	0.0144247
782.510	0.0144499
782.588	0.0145801
782.666	0.0144866
782.744	0.0144202
782.822	0.0144386
782.900	0.0145263
782.978	0.0145521
783.057	0.0146349
783.135	0.0143758
783.213	0.0143714
783.291	0.0145002
783.369	0.0143710
783.447	0.0143039
783.525	0.0142166
783.603	0.0143198
783.682	0.0142673
783.760	0.0142628
783.838	0.0143063
783.916	0.0140945
783.994	0.0140781
784.072	0.0141373
784.150	0.0140645
784.228	0.0138953
784.307	0.0141404
784.385	0.0141459
784.463	0.0140709
784.541	0.0139494
784.619	0.0138483
784.697	0.0138878
784.775	0.0138031
784.853	0.0138036
784.932	0.0138463
785.010	0.0136687
785.088	0.0138917
785.166	0.0136703
785.244	0.0136043
785.322	0.0135726
785.400	0.0135114
785.478	0.0134706
785.557	0.0135741
785.635	0.0135519
785.713	0.0133664
785.791	0.0135093
785.869	0.0135034
785.947	0.0135500
786.025	0.0135715
786.103	0.0136297
786.182	0.0136896
786.260	0.0136458
786.338	0.0136912
786.416	0.0136186
786.494	0.0138174
786.572	0.0139530
786.650	0.0138998
786.728	0.0141334
786.807	0.0140432
786.885	0.0140931
786.963	0.0142602
787.041	0.0143047
787.119	0.0143987
787.197	0.0145282
787.275	0.0144924
787.353	0.0145687
787.432	0.0146858
787.510	0.0147184
787.588	0.0146570
787.666	0.0147414
787.744	0.0146965
787.822	0.0147111
787.900	0.0147547
787.978	0.0146606
788.057	0.0146922
788.135	0.0147894
788.213	0.0146461
788.291	0.0146391
788.369	0.0145632
788.447	0.0146897
788.525	0.0145443
788.603	0.0145895
788.682	0.0145824
788.760	0.0145174
788.838	0.0143964
788.916	0.0143384
788.994	0.0142175
789.072	0.0141217
789.150	0.0140279
789.228	0.0139641
789.307	0.0141144
789.385	0.0139393
789.463	0.0137798
789.541	0.0136912
789.619	0.0137130
789.697	0.0137183
789.775	0.0136691
789.853	0.0137056
789.932	0.0136932
790.010	0.0137083
790.088	0.0137173
790.166	0.0137979
790.244	0.0136920
790.322	0.0136354
790.400	0.0137944
790.478	0.0137881
790.557	0.0137235
790.635	0.0135852
790.713	0.0137107
790.791	0.0136784
790.869	0.0136240
790.947	0.0136566
791.025	0.0136822
791.103	0.0137376
791.182	0.0136076
791.260	0.0136086
791.338	0.0136634
791.416	0.0137640
791.494	0.0138827
791.572	0.0137797
791.650	0.0137351
791.728	0.0135718
791.807	0.0139355
791.885	0.0140089
791.963	0.0138810
792.041	0.0139017
792.119	0.0139755
792.197	0.0139317
792.275	0.0138833
792.353	0.0139345
792.432	0.0141771
792.510	0.0142410
792.588	0.0142958
792.666	0.0141658
792.744	0.0142728
792.822	0.0143637
792.900	0.0144792
792.978	0.0143826
793.057	0.0143228
793.135	0.0144041
793.213	0.0143975
793.291	0.0144779
793.369	0.0144134
793.447	0.0143916
793.525	0.0143636
793.603	0.0142780
793.682	0.0143612
793.760	0.0141099
793.838	0.0141678
793.916	0.0142948
793.994	0.0142419
794.072	0.0143416
794.150	0.0141599
794.228	0.0142364
794.307	0.0141657
794.385	0.0143883
794.463	0.0143481
794.541	0.0143597
794.619	0.0144198
794.697	0.0144176
794.775	0.0143606
794.853	0.0143688
794.932	0.0142715
795.010	0.0143977
795.088	0.0140765
795.166	0.0142079
795.244	0.0141775
795.322	0.0140161
795.400	0.0140421
795.478	0.0140340
795.557	0.0138455
795.635	0.0138634
795.713	0.0137229
795.791	0.0138120
795.869	0.0137694
795.947	0.0136752
796.025	0.0135424
796.103	0.0135804
796.182	0.0136944
796.260	0.0137200
796.338	0.0137045
796.416	0.0136789
796.494	0.0137776
796.572	0.0138377
796.650	0.0139523
796.728	0.0140800
796.807	0.0141315
796.885	0.0141441
796.963	0.0141526
797.041	0.0142379
797.119	0.0141579
797.197	0.0143597
797.275	0.0142989
797.353	0.0143287
797.432	0.0142774
797.510	0.0143004
797.588	0.0143287
797.666	0.0142903
797.744	0.0142617
797.822	0.0141076
797.900	0.0141808
797.978	0.0141299
798.057	0.0142611
798.135	0.0143248
798.213	0.0140092
798.291	0.0142082
798.369	0.0143232
798.447	0.0142149
798.525	0.0142012
798.603	0.0142367
798.682	0.0144172
798.760	0.0142989
798.838	0.0142587
798.916	0.0144254
798.994	0.0143819
799.072	0.0143709
799.150	0.0145168
799.228	0.0143529
799.307	0.0145152
799.385	0.0144942
799.463	0.0144260
799.541	0.0144275
799.619	0.0143994
799.697	0.0143738
799.775	0.0142693
799.853	0.0142349
799.932	0.0143293
800.010	0.0141478
800.088	0.0142415
800.166	0.0140524
800.244	0.0140357
800.322	0.0140001
800.400	0.0140016
800.478	0.0139114
800.557	0.0140366
800.635	0.0138837
800.713	0.0138430
800.791	0.0138042
800.869	0.0137766
800.947	0.0138841
801.025	0.0137672
801.103	0.0137943
801.182	0.0138871
801.260	0.0136774
801.338	0.0138578
801.416	0.0139564
801.494	0.0139115
801.572	0.0138799
801.650	0.0139726
801.728	0.0141010
801.807	0.0140375
801.885	0.0140050
801.963	0.0140186
802.041	0.0141374
802.119	0.0142375
802.197	0.0142827
802.275	0.0143071
802.353	0.0143242
802.432	0.0143129
802.510	0.0142839
802.588	0.0142290
802.666	0.0144609
802.744	0.0142606
802.822	0.0141807
802.900	0.0140991
802.978	0.0141811
803.057	0.0140096
803.135	0.0141331
803.213	0.0139179
803.291	0.0138499
803.369	0.0138342
803.447	0.0138519
803.525	0.0137084
803.603	0.0138703
803.682	0.0139194
803.760	0.0140637
803.838	0.0140397
803.916	0.0139651
803.994	0.0141638
804.072	0.0141983
804.150	0.0141453
804.228	0.0140447
804.307	0.0141444
804.385	0.0140656
804.463	0.0140463
804.541	0.0140820
804.619	0.0141860
804.697	0.0141195
804.775	0.0141692
804.853	0.0141081
804.932	0.0141239
805.010	0.0143169
805.088	0.0143108
805.166	0.0143102
805.244	0.0142779
805.322	0.0144852
805.400	0.0142706
805.478	0.0143262
805.557	0.0142820
805.635	0.0143814
805.713	0.0143021
805.791	0.0142542
805.869	0.0142334
805.947	0.0141335
806.025	0.0141705
806.103	0.0140601
806.182	0.0139029
806.260	0.0138836
806.338	0.0138920
806.416	0.0138038
806.494	0.0136748
806.572	0.0137252
806.650	0.0137754
806.728	0.0137679
806.807	0.0136519
806.885	0.0137987
806.963	0.0139974
807.041	0.0139788
807.119	0.0141296
807.197	0.0140718
807.275	0.0141029
807.353	0.0142010
807.432	0.0142017
807.510	0.0140692
807.588	0.0141443
807.666	0.0143056
807.744	0.0141281
807.822	0.0142029
807.900	0.0139957
807.978	0.0140514
808.057	0.0140900
808.135	0.0140054
808.213	0.0139985
808.291	0.0140183
808.369	0.0142854
808.447	0.0141108
808.525	0.0140701
808.603	0.0141808
808.682	0.0141232
808.760	0.0141553
808.838	0.0144402
808.916	0.0144466
808.994	0.0144672
809.072	0.0144233
809.150	0.0144541
809.228	0.0145291
809.307	0.0144865
809.385	0.0145465
809.463	0.0146186
809.541	0.0146090
809.619	0.0145932
809.697	0.0146551
809.775	0.0146700
809.853	0.0145566
809.932	0.0146210
810.010	0.0144839
810.088	0.0145604
810.166	0.0144901
810.244	0.0144685
810.322	0.0142934
810.400	0.0143323
810.478	0.0143471
810.557	0.0141946
810.635	0.0139820
810.713	0.0140732
810.791	0.0139201
810.869	0.0139377
810.947	0.0139009
811.025	0.0138664
811.103	0.0138435
811.182	0.0138587
811.260	0.0139054
811.338	0.0137072
811.416	0.0137965
811.494	0.0139682
811.572	0.0137575
811.650	0.0137457
811.728	0.0138242
811.807	0.0136787
811.885	0.0136451
811.963	0.0136118
812.041	0.0136418
812.119	0.0135106
812.197	0.0136280
812.275	0.0137120
812.353	0.0139148
812.432	0.0138160
812.510	0.0138971
812.588	0.0139414
812.666	0.0140768
812.744	0.0142051
812.822	0.0143667
812.900	0.0144843
812.978	0.0144859
813.057	0.0145792
813.135	0.0146690
813.213	0.0147968
813.291	0.0146723
813.369	0.0146075
813.447	0.0147238
813.525	0.0146157
813.603	0.0147349
813.682	0.0146986
813.760	0.0144749
813.838	0.0145146
813.916	0.0143218
813.994	0.0143185
814.072	0.0142753
814.150	0.0141254
814.228	0.0140926
814.307	0.0139990
814.385	0.0138267
814.463	0.0136911
814.541	0.0138493
814.619	0.0136783
814.697	0.0137804
814.775	0.0136852
814.853	0.0137646
814.932	0.0139423
815.010	0.0138008
815.088	0.0139164
815.166	0.0141290
815.244	0.0140974
815.322	0.0140467
815.400	0.0141773
815.478	0.0143006
815.557	0.0143161
815.635	0.0143495
815.713	0.0144726
815.791	0.0144601
815.869	0.0145240
815.947	0.0144224
816.025	0.0144633
816.103	0.0144142
816.182	0.0142434
816.260	0.0141428
816.338	0.0140726
816.416	0.0140669
816.494	0.0139249
816.572	0.0139232
816.650	0.0138869
816.728	0.0137704
816.807	0.0136399
816.885	0.0136565
816.963	0.0135014
817.041	0.0135533
817.119	0.0135055
817.197	0.0136913
817.275	0.0136338
817.353	0.0135719
817.432	0.0136585
817.510	0.0137915
817.588	0.0139700
817.666	0.0138688
817.744	0.0140170
817.822	0.0142451
817.900	0.0143091
817.978	0.0144543
818.057	0.0145018
818.135	0.0144962
818.213	0.0145683
818.291	0.0146388
818.369	0.0148096
818.447	0.0147095
818.525	0.0145954
818.603	0.0146081
818.682	0.0145775
818.760	0.0144676
818.838	0.0143497
818.916	0.0142994
818.994	0.0143472
819.072	0.0143092
819.150	0.0142043
819.228	0.0142899
819.307	0.0141729
819.385	0.0140208
819.463	0.0141244
819.541	0.0140462
819.619	0.0140029
819.697	0.0139698
819.775	0.0139532
819.853	0.0137544
819.932	0.0138505
820.010	0.0137784
820.088	0.0139130
820.166	0.0139475
820.244	0.0138615
820.322	0.0140035
820.400	0.0142551
820.478	0.0142509
820.557	0.0144106
820.635	0.0143871
820.713	0.0145119
820.791	0.0146228
820.869	0.0148035
820.947	0.0149001
821.025	0.0147900
821.103	0.0150140
821.182	0.0148004
821.260	0.0148862
821.338	0.0149021
821.416	0.0147305
821.494	0.0146028
821.572	0.0144988
821.650	0.0143591
821.728	0.0142313
821.807	0.0140140
821.885	0.0139591
821.963	0.0137901
822.041	0.0136378
822.119	0.0136465
822.197	0.0135963
822.275	0.0134396
822.353	0.0134597
822.432	0.0136149
822.510	0.0135677
822.588	0.0137318
822.666	0.0138066
822.744	0.0139387
822.822	0.0142490
822.900	0.0141998
822.978	0.0142767
823.057	0.0144021
823.135	0.0145830
823.213	0.0147134
823.291	0.0147864
823.369	0.0147055
823.447	0.0148845
823.525	0.0148476
823.603	0.0148304
823.682	0.0148256
823.760	0.0149631
823.838	0.0147558
823.916	0.0145992
823.994	0.0147215
824.072	0.0144740
824.150	0.0145189
824.228	0.0144632
824.307	0.0144229
824.385	0.0143568
824.463	0.0143369
824.541	0.0144181
824.619	0.0141380
824.697	0.0141731
824.775	0.0141467
824.853	0.0139825
824.932	0.0139310
825.010	0.0140189
825.088	0.0138655
825.166	0.0138909
825.244	0.0140556
825.322	0.0141084
825.400	0.0140742
825.478	0.0141930
825.557	0.0140798
825.635	0.0142226
825.713	0.0143407
825.791	0.0142783
825.869	0.0142490
825.947	0.0143359
826.025	0.0142828
826.103	0.0142059
826.182	0.0142932
826.260	0.0143092
826.338	0.0139849
826.416	0.0141598
826.494	0.0141975
826.572	0.0141185
826.650	0.0141186
826.728	0.0139772
826.807	0.0140701
826.885	0.0140024
826.963	0.0139666
827.041	0.0138892
827.119	0.0139713
827.197	0.0139135
827.275	0.0138959
827.353	0.0138042
827.432	0.0139347
827.510	0.0139430
827.588	0.0141042
827.666	0.0138903
827.744	0.0139698
827.822	0.0139771
827.900	0.0140756
827.978	0.0141413
828.057	0.0142178
828.135	0.0141378
828.213	0.0142908
828.291	0.0140677
828.369	0.0143491
828.447	0.0141246
828.525	0.0141304
828.603	0.0142519
828.682	0.0142151
828.760	0.0141955
828.838	0.0140770
828.916	0.0141888
828.994	0.0140468
829.072	0.0141647
829.150	0.0141814
829.228	0.0141119
829.307	0.0141742
829.385	0.0142586
829.463	0.0142052
829.541	0.0142226
829.619	0.0142676
829.697	0.0142214
829.775	0.0142660
829.853	0.0143938
829.932	0.0142383
830.010	0.0142995
830.088	0.0141294
830.166	0.0140786
830.244	0.0140234
830.322	0.0140131
830.400	0.0138943
830.478	0.0140205
830.557	0.0138846
830.635	0.0139154
830.713	0.0138464
830.791	0.0139033
830.869	0.0137721
830.947	0.0138257
831.025	0.0139125
831.103	0.0139606
831.182	0.0139613
831.260	0.0141467
831.338	0.0140117
831.416	0.0142122
831.494	0.0142711
831.572	0.0142654
831.650	0.0143480
831.728	0.0143346
831.807	0.0145445
831.885	0.0144473
831.963	0.0143685
832.041	0.0143329
832.119	0.0142049
832.197	0.0142523
832.275	0.0142429
832.353	0.0142616
832.432	0.0141661
832.510	0.0139242
832.588	0.0139735
832.666	0.0139133
832.744	0.0137306
832.822	0.0137952
832.900	0.0137126
832.978	0.0136662
833.057	0.0134751
833.135	0.0134319
833.213	0.0135066
833.291	0.0134809
833.369	0.0133626
833.447	0.0133311
833.525	0.0134882
833.603	0.0134737
833.682	0.0135867
833.760	0.0137766
833.838	0.0136198
833.916	0.0138029
833.994	0.0140746
834.072	0.0139919
834.150	0.0140943
834.228	0.0141902
834.307	0.0144018
834.385	0.0146056
834.463	0.0146554
834.541	0.0145660
834.619	0.0146030
834.697	0.0146776
834.775	0.0144677
834.853	0.0147845
834.932	0.0146584
835.010	0.0146686
835.088	0.0147485
835.166	0.0147076
835.244	0.0145717
835.322	0.0145554
835.400	0.0147235
835.478	0.0145158
835.557	0.0144900
835.635	0.0144092
835.713	0.0143461
835.791	0.0142558
835.869	0.0142380
835.947	0.0143116
836.025	0.0141673
836.103	0.0140749
836.182	0.0139813
836.260	0.0140279
836.338	0.0139838
836.416	0.0141406
836.494	0.0140059
836.572	0.0139988
836.650	0.0139553
836.728	0.0140120
836.807	0.0139347
836.885	0.0140476
836.963	0.0139410
837.041	0.0139848
837.119	0.0139210
837.197	0.0139588
837.275	0.0139442
837.353	0.0138751
837.432	0.0138560
837.510	0.0138430
837.588	0.0138145
837.666	0.0138666
837.744	0.0139156
837.822	0.0141238
837.900	0.0139874
837.978	0.0138988
838.057	0.0140144
838.135	0.0141089
838.213	0.0141637
838.291	0.0141376
838.369	0.0142821
838.447	0.0141599
838.525	0.0142798
838.603	0.0143123
838.682	0.0144615
838.760	0.0143723
838.838	0.0143353
838.916	0.0144569
838.994	0.0143956
839.072	0.0144238
839.150	0.0145087
839.228	0.0144501
839.307	0.0143327
839.385	0.0143672
839.463	0.0144930
839.541	0.0143975
839.619	0.0144141
839.697	0.0142381
839.775	0.0142622
839.853	0.0142595
839.932	0.0143066
840.010	0.0142572
840.088	0.0142427
840.166	0.0141017
840.244	0.0141373
840.322	0.0139794
840.400	0.0141264
840.478	0.0141434
840.557	0.0140588
840.635	0.0140314
840.713	0.0139657
840.791	0.0139824
840.869	0.0140903
840.947	0.0140093
841.025	0.0139146
841.103	0.0139799
841.182	0.0139713
841.260	0.0139428
841.338	0.0140489
841.416	0.0139999
841.494	0.0138778
841.572	0.0139471
841.650	0.0139787
841.728	0.0138588
841.807	0.0141299
841.885	0.0141402
841.963	0.0140871
842.041	0.0141598
842.119	0.0141433
842.197	0.0142362
842.275	0.0142834
842.353	0.0143208
842.432	0.0144343
842.510	0.0144740
842.588	0.0144368
842.666	0.0143332
842.744	0.0144228
842.822	0.0145211
842.900	0.0145117
842.978	0.0145512
843.057	0.0145567
843.135	0.0145432
843.213	0.0146356
843.291	0.0145697
843.369	0.0145277
843.447	0.0147504
843.525	0.0144566
843.603	0.0144418
843.682	0.0144736
843.760	0.0144959
843.838	0.0143507
843.916	0.0143170
843.994	0.0142970
844.072	0.0142420
844.150	0.0140923
844.228	0.0140273
844.307	0.0141169
844.385	0.0140888
844.463	0.0140764
844.541	0.0140865
844.619	0.0141104
844.697	0.0139624
844.775	0.0139035
844.853	0.0140263
844.932	0.0140466
845.010	0.0140859
845.088	0.0140013
845.166	0.0141814
845.244	0.0141425
845.322	0.0141096
845.400	0.0140797
845.478	0.0142649
845.557	0.0142770
845.635	0.0142903
845.713	0.0143001
845.791	0.0141356
845.869	0.0141416
845.947	0.0142876
846.025	0.0144322
846.103	0.0143944
846.182	0.0143725
846.260	0.0144543
846.338	0.0145740
846.416	0.0144434
846.494	0.0145612
846.572	0.0145372
846.650	0.0145478
846.728	0.0145713
846.807	0.0145222
846.885	0.0145177
846.963	0.0144545
847.041	0.0145632
847.119	0.0144081
847.197	0.0143468
847.275	0.0143350
847.353	0.0143250
847.432	0.0142872
847.510	0.0143565
847.588	0.0142919
847.666	0.0142405
847.744	0.0142610
847.822	0.0142206
847.900	0.0143147
847.978	0.0140510
848.057	0.0140041
848.135	0.0141107
848.213	0.0140450
848.291	0.0138976
848.369	0.0139499
848.447	0.0139961
848.525	0.0138801
848.603	0.0138273
848.682	0.0138224
848.760	0.0139304
848.838	0.0139615
848.916	0.0136982
848.994	0.0138616
849.072	0.0139893
849.150	0.0140321
849.228	0.0141443
849.307	0.0141669
849.385	0.0140252
849.463	0.0139366
849.541	0.0142479
849.619	0.0141177
849.697	0.0141521
849.775	0.0140241
849.853	0.0139085
849.932	0.0140997
850.010	0.0141654
850.088	0.0141191
850.166	0.0141566
850.244	0.0141414
850.322	0.0142937
850.400	0.0143069
850.478	0.0141947
850.557	0.0143916
850.635	0.0144717
850.713	0.0144479
850.791	0.0144157
850.869	0.0143307
850.947	0.0144288
851.025	0.0144781
851.103	0.0142876
851.182	0.0144778
851.260	0.0142284
851.338	0.0142397
851.416	0.0142087
851.494	0.0141998
851.572	0.0141225
851.650	0.0140369
851.728	0.0140607
851.807	0.0140427
851.885	0.0141145
851.963	0.0140996
852.041	0.0142072
852.119	0.0140484
852.197	0.0138750
852.275	0.0138498
852.353	0.0140543
852.432	0.0140967
852.510	0.0140015
852.588	0.0139992
852.666	0.0141428
852.744	0.0139285
852.822	0.0139138
852.900	0.0139878
852.978	0.0139079
853.057	0.0138969
853.135	0.0138602
853.213	0.0140061
853.291	0.0141990
853.369	0.0140789
853.447	0.0140797
853.525	0.0140515
853.603	0.0142818
853.682	0.0142224
853.760	0.0142269
853.838	0.0142707
853.916	0.0143513
853.994	0.0143856
854.072	0.0143455
854.150	0.0143010
854.228	0.0144128
854.307	0.0143874
854.385	0.0142432
854.463	0.0144111
854.541	0.0144466
854.619	0.0142559
854.697	0.0142723
854.775	0.0143150
854.853	0.0142565
854.932	0.0141470
855.010	0.0143319
855.088	0.0142748
855.166	0.0140596
855.244	0.0139359
855.322	0.0142063
855.400	0.0141156
855.478	0.0139250
855.557	0.0140034
855.635	0.0139593
855.713	0.0139610
855.791	0.0140388
855.869	0.0140666
855.947	0.0139633
856.025	0.0140372
856.103	0.0140182
856.182	0.0139343
856.260	0.0140469
856.338	0.0139159
856.416	0.0138780
856.494	0.0140004
856.572	0.0138369
856.650	0.0140026
856.728	0.0138532
856.807	0.0137984
856.885	0.0138297
856.963	0.0138440
857.041	0.0137275
857.119	0.0140060
857.197	0.0138918
857.275	0.0139185
857.353	0.0140368
857.432	0.0140500
857.510	0.0140607
857.588	0.0138972
857.666	0.0139971
857.744	0.0139716
857.822	0.0141383
857.900	0.0141552
857.978	0.0141743
858.057	0.0139339
858.135	0.0141357
858.213	0.0141851
858.291	0.0140602
858.369	0.0139451
858.447	0.0141350
858.525	0.0140702
858.603	0.0140728
858.682	0.0141897
858.760	0.0140961
858.838	0.0142007
858.916	0.0142891
858.994	0.0142583
859.072	0.0142837
859.150	0.0143068
859.228	0.0143415
859.307	0.0142206
859.385	0.0143144
859.463	0.0142700
859.541	0.0141563
859.619	0.0140834
859.697	0.0143038
859.775	0.0141506
859.853	0.0140067
859.932	0.0141012
860.010	0.0141330
860.088	0.0139941
860.166	0.0140158
860.244	0.0140682
860.322	0.0141209
860.400	0.0141294
860.478	0.0139478
860.557	0.0139849
860.635	0.0140937
860.713	0.0141436
860.791	0.0141933
860.869	0.0141139
860.947	0.0141677
861.025	0.0141367
861.103	0.0142905
861.182	0.0141813
861.260	0.0141893
861.338	0.0141479
861.416	0.0141409
861.494	0.0142025
861.572	0.0142482
861.650	0.0142156
861.728	0.0141964
861.807	0.0142677
861.885	0.0142922
861.963	0.0141392
862.041	0.0143515
862.119	0.0143716
862.197	0.0142693
862.275	0.0143610
862.353	0.0142783
862.432	0.0141936
862.510	0.0139968
862.588	0.0140993
862.666	0.0140863
862.744	0.0142096
862.822	0.0140857
862.900	0.0139173
862.978	0.0140102
863.057	0.0140257
863.135	0.0140540
863.213	0.0139264
863.291	0.0137790
863.369	0.0139536
863.447	0.0138754
863.525	0.0137917
863.603	0.0138905
863.682	0.0138345
863.760	0.0138214
863.838	0.0137001
863.916	0.0138197
863.994	0.0138017
864.072	0.0137625
864.150	0.0139397
864.228	0.0137582
864.307	0.0138231
864.385	0.0137663
864.463	0.0138292
864.541	0.0138459
864.619	0.0137033
864.697	0.0137979
864.775	0.0136772
864.853	0.0138708
864.932	0.0138486
865.010	0.0139202
865.088	0.0138886
865.166	0.0139332
865.244	0.0141149
865.322	0.0140594
865.400	0.0141975
865.478	0.0142945
865.557	0.0142699
865.635	0.0142592
865.713	0.0143414
865.791	0.0145738
865.869	0.0145233
865.947	0.0145629
866.025	0.0145873
866.103	0.0147975
866.182	0.0145922
866.260	0.0147255
866.338	0.0146803
866.416	0.0146372
866.494	0.0147135
866.572	0.0148051
866.650	0.0147412
866.728	0.0146078
866.807	0.0146388
866.885	0.0145116
866.963	0.0144746
867.041	0.0143899
867.119	0.0144421
867.197	0.0143171
867.275	0.0143130
867.353	0.0143117
867.432	0.0143571
867.510	0.0143213
867.588	0.0141164
867.666	0.0141907
867.744	0.0141924
867.822	0.0141747
867.900	0.0140539
867.978	0.0143043
868.057	0.0140249
868.135	0.0140778
868.213	0.0142163
868.291	0.0141345
868.369	0.0140790
868.447	0.0141133
868.525	0.0140987
868.603	0.0140414
868.682	0.0139964
868.760	0.0142805
868.838	0.0141124
868.916	0.0140370
868.994	0.0141164
869.072	0.0140961
869.150	0.0141810
869.228	0.0141957
869.307	0.0140757
869.385	0.0142840
869.463	0.0141891
869.541	0.0143813
869.619	0.0144068
869.697	0.0143007
869.775	0.0143450
869.853	0.0143473
869.932	0.0143411
870.010	0.0144215
870.088	0.0143685
870.166	0.0143507
870.244	0.0143478
870.322	0.0142923
870.400	0.0142537
870.478	0.0144125
870.557	0.0143847
870.635	0.0142598
870.713	0.0142973
870.791	0.0144140
870.869	0.0141346
870.947	0.0141665
871.025	0.0143102
871.103	0.0141628
871.182	0.0141105
871.260	0.0142108
871.338	0.0141979
871.416	0.0139713
871.494	0.0140199
871.572	0.0141887
871.650	0.0140234
871.728	0.0142068
871.807	0.0142132
871.885	0.0140546
871.963	0.0141580
872.041	0.0141013
872.119	0.0141458
872.197	0.0141095
872.275	0.0142522
872.353	0.0141936
872.432	0.0142079
872.510	0.0140829
872.588	0.0141760
872.666	0.0140842
872.744	0.0142181
872.822	0.0141433
872.900	0.0141071
872.978	0.0142594
873.057	0.0141965
873.135	0.0141177
873.213	0.0141978
873.291	0.0142647
873.369	0.0142384
873.447	0.0141461
873.525	0.0142408
873.603	0.0142752
873.682	0.0141376
873.760	0.0142844
873.838	0.0142731
873.916	0.0142683
873.994	0.0142661
874.072	0.0140833
874.150	0.0141382
874.228	0.0142908
874.307	0.0141886
874.385	0.0141998
874.463	0.0141896
874.541	0.0142498
874.619	0.0142177
874.697	0.0141233
874.775	0.0141560
874.853	0.0141904
874.932	0.0141566
875.010	0.0143557
875.088	0.0142838
875.166	0.0143273
875.244	0.0143343
875.322	0.0141375
875.400	0.0142598
875.478	0.0142271
875.557	0.0142619
875.635	0.0141344
875.713	0.0141678
875.791	0.0140438
875.869	0.0140578
875.947	0.0139363
876.025	0.0139648
876.103	0.0139438
876.182	0.0138952
876.260	0.0140240
876.338	0.0140131
876.416	0.0139049
876.494	0.0139221
876.572	0.0139917
876.650	0.0140499
876.728	0.0139466
876.807	0.0138906
876.885	0.0138871
876.963	0.0141366
877.041	0.0140679
877.119	0.0141152
877.197	0.0141231
877.275	0.0142709
877.353	0.0140955
877.432	0.0142651
877.510	0.0143118
877.588	0.0143088
877.666	0.0143063
877.744	0.0142776
877.822	0.0144009
877.900	0.0143733
877.978	0.0143778
878.057	0.0141975
878.135	0.0144910
878.213	0.0144398
878.291	0.0144083
878.369	0.0143065
878.447	0.0142665
878.525	0.0142430
878.603	0.0142008
878.682	0.0141873
878.760	0.0141394
878.838	0.0141667
878.916	0.0144628
878.994	0.0142570
879.072	0.0141511
879.150	0.0141438
879.228	0.0140768
879.307	0.0140862
879.385	0.0141505
879.463	0.0142358
879.541	0.0140102
879.619	0.0140559
879.697	0.0141034
879.775	0.0138298
879.853	0.0139096
879.932	0.0140647
880.010	0.0140082
880.088	0.0139914
880.166	0.0139330
880.244	0.0138435
880.322	0.0137749
880.400	0.0139023
880.478	0.0137730
880.557	0.0138490
880.635	0.0138457
880.713	0.0139624
880.791	0.0139656
880.869	0.0138553
880.947	0.0139365
881.025	0.0140319
881.103	0.0140845
881.182	0.0141207
881.260	0.0141769
881.338	0.0141763
881.416	0.0141547
881.494	0.0140594
881.572	0.0142731
881.650	0.0142956
881.728	0.0142276
881.807	0.0141692
881.885	0.0142380
881.963	0.0142574
882.041	0.0143219
882.119	0.0142912
882.197	0.0143315
882.275	0.0145121
882.353	0.0145480
882.432	0.0143433
882.510	0.0143755
882.588	0.0143916
882.666	0.0142884
882.744	0.0142725
882.822	0.0143676
882.900	0.0143063
882.978	0.0143016
883.057	0.0142794
883.135	0.0143711
883.213	0.0142461
883.291	0.0141649
883.369	0.0141726
883.447	0.0141252
883.525	0.0142606
883.603	0.0140179
883.682	0.0141444
883.760	0.0141367
883.838	0.0141661
883.916	0.0142570
883.994	0.0142419
884.072	0.0139477
884.150	0.0140618
884.228	0.0140866
884.307	0.0140159
884.385	0.0139387
884.463	0.0141528
884.541	0.0139978
884.619	0.0139452
884.697	0.0140709
884.775	0.0140839
884.853	0.0138876
884.932	0.0139513
885.010	0.0139309
885.088	0.0139901
885.166	0.0139146
885.244	0.0139153
885.322	0.0138949
885.400	0.0139838
885.478	0.0139214
885.557	0.0140034
885.635	0.0141019
885.713	0.0141384
885.791	0.0141077
885.869	0.0142317
885.947	0.0143502
886.025	0.0142580
886.103	0.0142561
886.182	0.0143810
886.260	0.0143446
886.338	0.0141991
886.416	0.0142780
886.494	0.0141812
886.572	0.0142525
886.650	0.0144174
886.728	0.0142768
886.807	0.0140856
886.885	0.0142118
886.963	0.0142973
887.041	0.0141092
887.119	0.0139995
887.197	0.0140853
887.275	0.0142130
887.353	0.0139669
887.432	0.0140580
887.510	0.0141403
887.588	0.0140951
887.666	0.0140652
887.744	0.0141084
887.822	0.0139575
887.900	0.0139834
887.978	0.0140789
888.057	0.0140723
888.135	0.0140852
888.213	0.0139943
888.291	0.0141482
888.369	0.0141673
888.447	0.0141541
888.525	0.0141112
888.603	0.0141851
888.682	0.0142497
888.760	0.0140259
888.838	0.0140548
888.916	0.0140981
888.994	0.0140701
889.072	0.0140862
889.150	0.0141563
889.228	0.0141587
889.307	0.0139782
889.385	0.0139236
889.463	0.0140665
889.541	0.0140095
889.619	0.0139023
889.697	0.0139014
889.775	0.0139880
889.853	0.0138893
889.932	0.0139975
890.010	0.0139498
890.088	0.0138873
890.166	0.0139115
890.244	0.0140383
890.322	0.0137556
890.400	0.0140112
890.478	0.0140849
890.557	0.0139004
890.635	0.0141618
890.713	0.0140607
890.791	0.0139741
890.869	0.0140760
890.947	0.0142751
891.025	0.0141940
891.103	0.0141931
891.182	0.0142410
891.260	0.0143915
891.338	0.0143536
891.416	0.0143845
891.494	0.0145444
891.572	0.0144218
891.650	0.0144204
891.728	0.0143229
891.807	0.0143793
891.885	0.0143758
891.963	0.0142940
892.041	0.0143605
892.119	0.0143193
892.197	0.0143060
892.275	0.0143043
892.353	0.0142598
892.432	0.0141119
892.510	0.0141021
892.588	0.0142207
892.666	0.0143640
892.744	0.0142242
892.822	0.0142180
892.900	0.0140751
892.978	0.0141679
893.057	0.0140390
893.135	0.0141448
893.213	0.0141248
893.291	0.0141248
893.369	0.0140330
893.447	0.0140004
893.525	0.0140005
893.603	0.0140808
893.682	0.0141013
893.760	0.0140251
893.838	0.0140623
893.916	0.0139719
893.994	0.0140694
894.072	0.0141257
894.150	0.0140658
894.228	0.0140532
894.307	0.0140469
894.385	0.0140107
894.463	0.0139644
894.541	0.0140236
894.619	0.0140166
894.697	0.0141321
894.775	0.0141623
894.853	0.0140146
894.932	0.0141043
895.010	0.0140571
895.088	0.0141391
895.166	0.0141798
895.244	0.0140464
895.322	0.0140247
895.400	0.0140520
895.478	0.0141545
895.557	0.0142834
895.635	0.0143025
895.713	0.0141959
895.791	0.0141503
895.869	0.0141627
895.947	0.0143369
896.025	0.0141567
896.103	0.0143580
896.182	0.0143072
896.260	0.0143839
896.338	0.0144145
896.416	0.0144118
896.494	0.0144465
896.572	0.0146374
896.650	0.0146053
896.728	0.0145067
896.807	0.0144424
896.885	0.0144887
896.963	0.0146541
897.041	0.0145621
897.119	0.0145074
897.197	0.0144238
897.275	0.0145236
897.353	0.0144495
897.432	0.0143822
897.510	0.0142558
897.588	0.0142085
897.666	0.0143401
897.744	0.0142612
897.822	0.0141446
897.900	0.0143118
897.978	0.0142021
898.057	0.0140493
898.135	0.0140637
898.213	0.0141438
898.291	0.0139636
898.369	0.0139377
898.447	0.0140395
898.525	0.0139847
898.603	0.0139882
898.682	0.0140030
898.760	0.0140152
898.838	0.0140180
898.916	0.0141033
898.994	0.0140034
899.072	0.0141822
899.150	0.0142255
899.228	0.0141525
899.307	0.0142390
899.385	0.0144242
899.463	0.0143195
899.541	0.0142471
899.619	0.0143368
899.697	0.0143275
899.775	0.0143471
899.853	0.0142963
899.932	0.0143362
900.010	0.0144143
900.088	0.0144795
900.166	0.0143392
900.244	0.0144205
900.322	0.0142338
900.400	0.0143102
900.478	0.0144140
900.557	0.0143092
900.635	0.0143873
900.713	0.0143407
900.791	0.0141680
900.869	0.0142923
900.947	0.0142261
901.025	0.0143358
901.103	0.0142553
901.182	0.0141970
901.260	0.0141236
901.338	0.0140929
901.416	0.0141245
901.494	0.0140671
901.572	0.0140129
901.650	0.0141576
901.728	0.0141779
901.807	0.0141177
901.885	0.0141954
901.963	0.0140561
902.041	0.0141622
902.119	0.0141012
902.197	0.0140853
902.275	0.0140254
902.353	0.0140171
902.432	0.0140780
902.510	0.0141938
902.588	0.0140288
902.666	0.0141006
902.744	0.0142792
902.822	0.0141224
902.900	0.0141500
902.978	0.0140424
903.057	0.0142292
903.135	0.0140965
903.213	0.0138528
903.291	0.0141329
903.369	0.0142976
903.447	0.0140659
903.525	0.0141070
903.603	0.0141917
903.682	0.0141653
903.760	0.0141836
903.838	0.0141164
903.916	0.0141245
903.994	0.0141361
904.072	0.0141087
904.150	0.0140841
904.228	0.0142704
904.307	0.0142269
904.385	0.0141029
904.463	0.0141898
904.541	0.0142802
904.619	0.0142989
904.697	0.0141097
904.775	0.0141263
904.853	0.0142080
904.932	0.0141404
905.010	0.0141239
905.088	0.0142278
905.166	0.0141553
905.244	0.0141648
905.322	0.0140279
905.400	0.0140690
905.478	0.0141500
905.557	0.0140757
905.635	0.0140960
905.713	0.0141011
905.791	0.0141437
905.869	0.0141685
905.947	0.0140900
906.025	0.0142327
906.103	0.0140931
906.182	0.0142574
906.260	0.0141325
906.338	0.0142105
906.416	0.0142361
906.494	0.0142065
906.572	0.0141843
906.650	0.0141817
906.728	0.0142848
906.807	0.0141891
906.885	0.0141824
906.963	0.0142422
907.041	0.0142131
907.119	0.0140894
907.197	0.0140918
907.275	0.0140504
907.353	0.0141491
907.432	0.0140754
907.510	0.0141702
907.588	0.0140839
907.666	0.0140343
907.744	0.0140384
907.822	0.0141202
907.900	0.0140562
907.978	0.0142053
908.057	0.0141020
908.135	0.0140138
908.213	0.0140942
908.291	0.0139233
908.369	0.0140353
908.447	0.0139712
908.525	0.0140445
908.603	0.0139845
908.682	0.0140919
908.760	0.0141309
908.838	0.0140797
908.916	0.0139131
908.994	0.0140363
909.072	0.0139818
909.150	0.0140257
909.228	0.0140921
909.307	0.0141073
909.385	0.0140559
909.463	0.0140845
909.541	0.0141993
909.619	0.0141808
909.697	0.0141243
909.775	0.0143569
909.853	0.0144189
909.932	0.0142165
910.010	0.0143330
910.088	0.0144371
910.166	0.0143214
910.244	0.0143742
910.322	0.0141912
910.400	0.0143489
910.478	0.0144794
910.557	0.0145541
910.635	0.0143650
910.713	0.0143140
910.791	0.0143793
910.869	0.0142506
910.947	0.0142376
911.025	0.0142897
911.103	0.0142963
911.182	0.0143123
911.260	0.0142694
911.338	0.0142288
911.416	0.0141787
911.494	0.0141531
911.572	0.0140804
911.650	0.0142096
911.728	0.0142258
911.807	0.0140030
911.885	0.0141012
911.963	0.0139869
912.041	0.0140563
912.119	0.0140992
912.197	0.0142035
912.275	0.0140530
912.353	0.0139967
912.432	0.0140514
912.510	0.0140150
912.588	0.0140046
912.666	0.0140316
912.744	0.0139346
912.822	0.0139899
912.900	0.0140475
912.978	0.0140348
913.057	0.0139227
913.135	0.0139109
913.213	0.0139232
913.291	0.0139602
913.369	0.0138570
913.447	0.0140389
913.525	0.0140932
913.603	0.0140547
913.682	0.0140613
913.760	0.0138795
913.838	0.0140342
913.916	0.0141246
913.994	0.0142683
914.072	0.0140510
914.150	0.0141811
914.228	0.0142280
914.307	0.0140841
914.385	0.0140958
914.463	0.0142288
914.541	0.0141432
914.619	0.0140714
914.697	0.0141212
914.775	0.0141563
914.853	0.0140549
914.932	0.0141707
915.010	0.0141640
915.088	0.0141373
915.166	0.0141121
915.244	0.0142080
915.322	0.0141109
915.400	0.0142055
915.478	0.0140635
915.557	0.0141080
915.635	0.0142022
915.713	0.0142302
915.791	0.0142766
915.869	0.0143262
915.947	0.0140852
916.025	0.0142616
916.103	0.0141785
916.182	0.0142794
916.260	0.0142467
916.338	0.0141833
916.416	0.0141265
916.494	0.0142460
916.572	0.0140096
916.650	0.0142420
916.728	0.0142669
916.807	0.0142504
916.885	0.0142741
916.963	0.0143001
917.041	0.0142824
917.119	0.0142722
917.197	0.0141642
917.275	0.0142837
917.353	0.0142459
917.432	0.0141819
917.510	0.0142388
917.588	0.0143446
917.666	0.0142095
917.744	0.0141476
917.822	0.0141296
917.900	0.0141628
917.978	0.0141971
918.057	0.0140520
918.135	0.0141111
918.213	0.0141126
918.291	0.0141584
918.369	0.0140485
918.447	0.0140901
918.525	0.0140393
918.603	0.0141165
918.682	0.0141144
918.760	0.0140473
918.838	0.0142069
918.916	0.0140264
918.994	0.0140048
919.072	0.0140031
919.150	0.0139909
919.228	0.0141222
919.307	0.0138743
919.385	0.0139606
919.463	0.0140685
919.541	0.0140384
919.619	0.0141842
919.697	0.0140210
919.775	0.0141409
919.853	0.0142101
919.932	0.0141985
920.010	0.0142778
920.088	0.0142757
920.166	0.0141698
920.244	0.0142722
920.322	0.0142834
920.400	0.0142422
920.478	0.0143404
920.557	0.0142381
920.635	0.0143156
920.713	0.0143694
920.791	0.0142735
920.869	0.0141819
920.947	0.0141655
921.025	0.0142496
921.103	0.0141127
921.182	0.0141715
921.260	0.0141646
921.338	0.0141529
921.416	0.0141750
921.494	0.0140968
921.572	0.0141568
921.650	0.0142177
921.728	0.0141450
921.807	0.0141079
921.885	0.0141167
921.963	0.0141357
922.041	0.0139664
922.119	0.0139523
922.197	0.0141465
922.275	0.0139890
922.353	0.0139594
922.432	0.0141139
922.510	0.0140983
922.588	0.0141212
922.666	0.0141018
922.744	0.0142193
922.822	0.0141558
922.900	0.0140130
922.978	0.0141139
923.057	0.0143248
923.135	0.0141156
923.213	0.0141291
923.291	0.0142094
923.369	0.0141689
923.447	0.0141669
923.525	0.0142412
923.603	0.0141406
923.682	0.0140456
923.760	0.0141628
923.838	0.0142358
923.916	0.0141625
923.994	0.0140394
924.072	0.0140743
924.150	0.0141386
924.228	0.0141428
924.307	0.0141560
924.385	0.0143066
924.463	0.0141273
924.541	0.0141460
924.619	0.0143214
924.697	0.0142163
924.775	0.0142657
924.853	0.0141357
924.932	0.0143932
925.010	0.0142447
925.088	0.0142397
925.166	0.0141837
925.244	0.0142510
925.322	0.0143972
925.400	0.0142745
925.478	0.0141802
925.557	0.0142599
925.635	0.0143929
925.713	0.0143143
925.791	0.0142950
925.869	0.0144104
925.947	0.0143977
926.025	0.0144093
926.103	0.0143107
926.182	0.0145042
926.260	0.0143832
926.338	0.0144285
926.416	0.0142941
926.494	0.0141915
926.572	0.0143504
926.650	0.0143462
926.728	0.0142194
926.807	0.0142280
926.885	0.0141890
926.963	0.0141758
927.041	0.0142876
927.119	0.0141617
927.197	0.0141463
927.275	0.0141142
927.353	0.0140274
927.432	0.0140431
927.510	0.0140022
927.588	0.0140887
927.666	0.0142122
927.744	0.0141725
927.822	0.0141072
927.900	0.0140025
927.978	0.0141428
928.057	0.0141808
928.135	0.0141492
928.213	0.0139594
928.291	0.0140079
928.369	0.0141553
928.447	0.0141176
928.525	0.0138301
928.603	0.0141019
928.682	0.0140372
928.760	0.0140807
928.838	0.0140139
928.916	0.0139758
928.994	0.0140269
929.072	0.0140791
929.150	0.0139059
929.228	0.0139929
929.307	0.0141761
929.385	0.0141401
929.463	0.0142010
929.541	0.0141796
929.619	0.0142126
929.697	0.0143155
929.775	0.0142769
929.853	0.0141821
929.932	0.0141666
930.010	0.0141412
930.088	0.0141138
930.166	0.0141318
930.244	0.0142020
930.322	0.0141959
930.400	0.0142860
930.478	0.0141532
930.557	0.0141616
930.635	0.0142844
930.713	0.0142668
930.791	0.0142389
930.869	0.0142337
930.947	0.0143387
931.025	0.0142704
931.103	0.0141315
931.182	0.0141997
931.260	0.0141666
931.338	0.0140518
931.416	0.0141254
931.494	0.0142427
931.572	0.0141076
931.650	0.0141853
931.728	0.0141682
931.807	0.0142500
931.885	0.0141337
931.963	0.0139732
932.041	0.0141719
932.119	0.0141726
932.197	0.0140985
932.275	0.0141314
932.353	0.0142248
932.432	0.0142031
932.510	0.0141301
932.588	0.0140975
932.666	0.0140633
932.744	0.0140578
932.822	0.0140501
932.900	0.0140869
932.978	0.0140456
933.057	0.0139645
933.135	0.0141683
933.213	0.0140260
933.291	0.0139986
933.369	0.0141269
933.447	0.0140027
933.525	0.0140112
933.603	0.0140215
933.682	0.0140682
933.760	0.0141474
933.838	0.0140326
933.916	0.0140224
933.994	0.0141180
934.072	0.0139893
934.150	0.0139218
934.228	0.0140596
934.307	0.0141251
934.385	0.0140390
934.463	0.0139767
934.541	0.0140124
934.619	0.0139365
934.697	0.0139072
934.775	0.0140056
934.853	0.0140484
934.932	0.0139924
935.010	0.0139675
935.088	0.0139027
935.166	0.0138985
935.244	0.0139317
935.322	0.0138136
935.400	0.0140903
935.478	0.0140292
935.557	0.0139673
935.635	0.0140651
935.713	0.0139310
935.791	0.0139702
935.869	0.0139923
935.947	0.0139542
936.025	0.0139458
936.103	0.0140196
936.182	0.0140615
936.260	0.0139924
936.338	0.0140559
936.416	0.0138964
936.494	0.0140944
936.572	0.0140894
936.650	0.0141001
936.728	0.0140332
936.807	0.0140288
936.885	0.0140251
936.963	0.0140578
937.041	0.0141135
937.119	0.0141804
937.197	0.0141040
937.275	0.0140996
937.353	0.0141256
937.432	0.0141235
937.510	0.0141871
937.588	0.0142112
937.666	0.0142077
937.744	0.0140746
937.822	0.0141443
937.900	0.0141178
937.978	0.0142286
938.057	0.0141077
938.135	0.0140024
938.213	0.0141618
938.291	0.0139876
938.369	0.0141135
938.447	0.0141593
938.525	0.0141653
938.603	0.0142168
938.682	0.0141571
938.760	0.0141348
938.838	0.0139494
938.916	0.0140682
938.994	0.0140553
939.072	0.0141266
939.150	0.0140016
939.228	0.0140363
939.307	0.0140780
939.385	0.0140875
939.463	0.0140324
939.541	0.0139227
939.619	0.0139060
939.697	0.0140631
939.775	0.0140014
939.853	0.0139725
939.932	0.0139897
940.010	0.0138951
940.088	0.0139812
940.166	0.0138837
940.244	0.0138825
940.322	0.0139615
940.400	0.0138412
940.478	0.0139039
940.557	0.0139978
940.635	0.0140794
940.713	0.0139500
940.791	0.0138595
940.869	0.0138226
940.947	0.0140019
941.025	0.0140350
941.103	0.0139970
941.182	0.0140139
941.260	0.0140378
941.338	0.0139395
941.416	0.0139841
941.494	0.0140401
941.572	0.0141267
941.650	0.0139970
941.728	0.0141772
941.807	0.0142503
941.885	0.0140851
941.963	0.0139406
942.041	0.0141202
942.119	0.0141038
942.197	0.0140408
942.275	0.0141527
942.353	0.0139282
942.432	0.0141431
942.510	0.0140917
942.588	0.0141058
942.666	0.0140299
942.744	0.0140923
942.822	0.0140009
942.900	0.0142290
942.978	0.0141287
943.057	0.0141660
943.135	0.0141923
943.213	0.0140470
943.291	0.0142101
943.369	0.0141720
943.447	0.0141455
943.525	0.0141835
943.603	0.0141062
943.682	0.0141462
943.760	0.0141426
943.838	0.0142043
943.916	0.0143732
943.994	0.0143448
944.072	0.0142624
944.150	0.0143166
944.228	0.0142378
944.307	0.0143288
944.385	0.0141513
944.463	0.0143301
944.541	0.0140249
944.619	0.0141848
944.697	0.0143339
944.775	0.0143044
944.853	0.0142104
944.932	0.0141396
945.010	0.0140852
945.088	0.0141067
945.166	0.0139938
945.244	0.0140062
945.322	0.0139590
945.400	0.0141323
945.478	0.0141193
945.557	0.0140574
945.635	0.0139670
945.713	0.0141274
945.791	0.0139240
945.869	0.0141493
945.947	0.0141746
946.025	0.0140920
946.103	0.0140853
946.182	0.0141444
946.260	0.0142708
946.338	0.0141298
946.416	0.0139520
946.494	0.0142393
946.572	0.0141481
946.650	0.0142624
946.728	0.0140923
946.807	0.0140841
946.885	0.0142480
946.963	0.0142208
947.041	0.0141259
947.119	0.0140001
947.197	0.0142288
947.275	0.0142682
947.353	0.0142728
947.432	0.0141445
947.510	0.0140057
947.588	0.0141709
947.666	0.0141254
947.744	0.0141537
947.822	0.0141341
947.900	0.0141619
947.978	0.0140965
948.057	0.0140456
948.135	0.0140036
948.213	0.0141583
948.291	0.0140511
948.369	0.0140657
948.447	0.0140262
948.525	0.0141563
948.603	0.0139780
948.682	0.0139252
948.760	0.0140091
948.838	0.0139035
948.916	0.0140200
948.994	0.0141544
949.072	0.0141801
949.150	0.0140742
949.228	0.0140788
949.307	0.0139556
949.385	0.0142552
949.463	0.0140191
949.541	0.0141279
949.619	0.0142368
949.697	0.0142442
949.775	0.0141615
949.853	0.0140757
949.932	0.0142165
950.010	0.0142506
950.088	0.0143748
950.166	0.0142217
950.244	0.0141734
950.322	0.0144441
950.400	0.0143214
950.478	0.0142107
950.557	0.0142374
950.635	0.0143189
950.713	0.0143100
950.791	0.0142725
950.869	0.0142191
950.947	0.0141702
951.025	0.0142384
951.103	0.0142542
951.182	0.0143700
951.260	0.0141993
951.338	0.0142036
951.416	0.0140939
951.494	0.0141965
951.572	0.0142027
951.650	0.0142937
951.728	0.0142284
951.807	0.0142098
951.885	0.0141800
951.963	0.0141753
952.041	0.0140166
952.119	0.0142648
952.197	0.0140878
952.275	0.0141412
952.353	0.0140994
952.432	0.0140145
952.510	0.0141881
952.588	0.0142014
952.666	0.0140666
952.744	0.0140678
952.822	0.0139816
952.900	0.0139157
952.978	0.0139130
953.057	0.0139377
953.135	0.0137864
953.213	0.0139201
953.291	0.0137476
953.369	0.0138107
953.447	0.0139019
953.525	0.0139005
953.603	0.0138213
953.682	0.0138722
953.760	0.0138808
953.838	0.0138345
953.916	0.0138440
953.994	0.0138469
954.072	0.0139792
954.150	0.0139242
954.228	0.0138685
954.307	0.0139085
954.385	0.0139130
954.463	0.0138788
954.541	0.0138522
954.619	0.0139359
954.697	0.0140440
954.775	0.0141676
954.853	0.0140406
954.932	0.0141309
955.010	0.0141952
955.088	0.0141757
955.166	0.0142622
955.244	0.0140969
955.322	0.0141361
955.400	0.0142299
955.478	0.0141335
955.557	0.0141714
955.635	0.0141325
955.713	0.0141197
955.791	0.0141482
955.869	0.0142056
955.947	0.0141543
956.025	0.0140707
956.103	0.0141801
956.182	0.0141578
956.260	0.0140979
956.338	0.0141306
956.416	0.0141151
956.494	0.0141244
956.572	0.0140913
956.650	0.0139632
956.728	0.0138730
956.807	0.0140131
956.885	0.0139784
956.963	0.0140772
957.041	0.0139970
957.119	0.0140345
957.197	0.0139854
957.275	0.0140033
957.353	0.0139331
957.432	0.0139271
957.510	0.0141292
957.588	0.0141993
957.666	0.0142200
957.744	0.0140135
957.822	0.0141675
957.900	0.0142165
957.978	0.0141383
958.057	0.0142738
958.135	0.0142755
958.213	0.0143077
958.291	0.0142055
958.369	0.0142252
958.447	0.0140804
958.525	0.0140303
958.603	0.0141375
958.682	0.0142861
958.760	0.0141561
958.838	0.0143362
958.916	0.0142076
958.994	0.0142332
959.072	0.0141016
959.150	0.0142263
959.228	0.0141743
959.307	0.0141797
959.385	0.0140705
959.463	0.0142383
959.541	0.0141655
959.619	0.0141190
959.697	0.0140605
959.775	0.0142285
959.853	0.0141073
959.932	0.0140539
960.010	0.0141350
960.088	0.0140968
960.166	0.0141174
960.244	0.0141023
960.322	0.0141245
960.400	0.0140622
960.478	0.0141298
960.557	0.0141769
960.635	0.0141199
960.713	0.0140755
960.791	0.0140226
960.869	0.0140192
960.947	0.0140437
961.025	0.0139861
961.103	0.0140382
961.182	0.0141054
961.260	0.0140113
961.338	0.0139545
961.416	0.0138483
961.494	0.0139092
961.572	0.0139399
961.650	0.0139363
961.728	0.0139482
961.807	0.0139293
961.885	0.0139162
961.963	0.0138757
962.041	0.0139137
962.119	0.0137807
962.197	0.0137495
962.275	0.0140451
962.353	0.0138164
962.432	0.0138982
962.510	0.0140988
962.588	0.0139387
962.666	0.0139858
962.744	0.0140276
962.822	0.0141491
962.900	0.0140861
962.978	0.0140720
963.057	0.0141019
963.135	0.0142084
963.213	0.0142608
963.291	0.0142143
963.369	0.0142001
963.447	0.0142397
963.525	0.0142916
963.603	0.0141940
963.682	0.0144098
963.760	0.0142105
963.838	0.0142318
963.916	0.0141464
963.994	0.0143095
964.072	0.0143290
964.150	0.0143098
964.228	0.0143283
964.307	0.0143241
964.385	0.0143974
964.463	0.0141223
964.541	0.0141246
964.619	0.0142179
964.697	0.0141340
964.775	0.0142955
964.853	0.0141858
964.932	0.0141502
965.010	0.0142368
965.088	0.0141574
965.166	0.0142111
965.244	0.0141885
965.322	0.0141392
965.400	0.0142443
965.478	0.0140781
965.557	0.0141766
965.635	0.0140426
965.713	0.0141663
965.791	0.0141163
965.869	0.0140676
965.947	0.0140954
966.025	0.0142124
966.103	0.0141633
966.182	0.0139204
966.260	0.0141014
966.338	0.0141506
966.416	0.0141302
966.494	0.0142980
966.572	0.0142088
966.650	0.0142447
966.728	0.0142661
966.807	0.0142283
966.885	0.0141007
966.963	0.0141813
967.041	0.0141834
967.119	0.0142381
967.197	0.0141295
967.275	0.0142973
967.353	0.0142142
967.432	0.0141404
967.510	0.0141465
967.588	0.0143710
967.666	0.0142313
967.744	0.0143301
967.822	0.0144641
967.900	0.0142577
967.978	0.0142007
968.057	0.0143699
968.135	0.0141748
968.213	0.0142422
968.291	0.0142377
968.369	0.0142257
968.447	0.0141144
968.525	0.0141364
968.603	0.0141650
968.682	0.0140460
968.760	0.0139794
968.838	0.0140900
968.916	0.0141039
968.994	0.0141985
969.072	0.0140684
969.150	0.0138891
969.228	0.0139796
969.307	0.0139810
969.385	0.0138586
969.463	0.0139644
969.541	0.0141760
969.619	0.0140263
969.697	0.0140765
969.775	0.0141206
969.853	0.0140693
969.932	0.0140756
