05/14/2022	19:40:16	Ver.	4.1	UNKNOWN
Optical Delay	650.009681	Delta X		0.078125	Sweeps	1	Scan Rate	0/0
Coordinates	Axis 1	NaN	Axis 2	NaN	Axis 3	NaN	Axis 4	NaN	Axis 5	NaN	Axis 6	0.000000
TX Power	0.000000	RX Power	0.000000

650.010	0.0140540
650.088	0.0139785
650.166	0.0138110
650.244	0.0140011
650.322	0.0140351
650.400	0.0139387
650.478	0.0139694
650.557	0.0140040
650.635	0.0141763
650.713	0.0141431
650.791	0.0141746
650.869	0.0139775
650.947	0.0141656
651.025	0.0141029
651.103	0.0141048
651.182	0.0140929
651.260	0.0142008
651.338	0.0141129
651.416	0.0139555
651.494	0.0139619
651.572	0.0139994
651.650	0.0139710
651.728	0.0139353
651.807	0.0139709
651.885	0.0141193
651.963	0.0140278
652.041	0.0140662
652.119	0.0140350
652.197	0.0141801
652.275	0.0141444
652.353	0.0140743
652.432	0.0142011
652.510	0.0139120
652.588	0.0139326
652.666	0.0140388
652.744	0.0140249
652.822	0.0140610
652.900	0.0140839
652.978	0.0140243
653.057	0.0139993
653.135	0.0138741
653.213	0.0138114
653.291	0.0138229
653.369	0.0139030
653.447	0.0137644
653.525	0.0137679
653.603	0.0136064
653.682	0.0135926
653.760	0.0136751
653.838	0.0136646
653.916	0.0137502
653.994	0.0137771
654.072	0.0138799
654.150	0.0139266
654.228	0.0140943
654.307	0.0140749
654.385	0.0140815
654.463	0.0141763
654.541	0.0142217
654.619	0.0142267
654.697	0.0144215
654.775	0.0143422
654.853	0.0143597
654.932	0.0142674
655.010	0.0142368
655.088	0.0142448
655.166	0.0140360
655.244	0.0141389
655.322	0.0140800
655.400	0.0140429
655.478	0.0138313
655.557	0.0139101
655.635	0.0140160
655.713	0.0139030
655.791	0.0137984
655.869	0.0137759
655.947	0.0139744
656.025	0.0138736
656.103	0.0140005
656.182	0.0140329
656.260	0.0139172
656.338	0.0141063
656.416	0.0140748
656.494	0.0141322
656.572	0.0142967
656.650	0.0141537
656.728	0.0143240
656.807	0.0144495
656.885	0.0143121
656.963	0.0144007
657.041	0.0145049
657.119	0.0142275
657.197	0.0144003
657.275	0.0143336
657.353	0.0143326
657.432	0.0142258
657.510	0.0142483
657.588	0.0142591
657.666	0.0140995
657.744	0.0139119
657.822	0.0138959
657.900	0.0138234
657.978	0.0136584
658.057	0.0135401
658.135	0.0137318
658.213	0.0134968
658.291	0.0136095
658.369	0.0136347
658.447	0.0137073
658.525	0.0136596
658.603	0.0138401
658.682	0.0140910
658.760	0.0141408
658.838	0.0143139
658.916	0.0143999
658.994	0.0145216
659.072	0.0147346
659.150	0.0147858
659.228	0.0148151
659.307	0.0149047
659.385	0.0151128
659.463	0.0151312
659.541	0.0150909
659.619	0.0150903
659.697	0.0149835
659.775	0.0149837
659.853	0.0148681
659.932	0.0147702
660.010	0.0145549
660.088	0.0144699
660.166	0.0142944
660.244	0.0143572
660.322	0.0139339
660.400	0.0138825
660.478	0.0137960
660.557	0.0136530
660.635	0.0134802
660.713	0.0133540
660.791	0.0131509
660.869	0.0129515
660.947	0.0130051
661.025	0.0130379
661.103	0.0128863
661.182	0.0128703
661.260	0.0127865
661.338	0.0128505
661.416	0.0129375
661.494	0.0129781
661.572	0.0131488
661.650	0.0133550
661.728	0.0135004
661.807	0.0137917
661.885	0.0140108
661.963	0.0140562
662.041	0.0143742
662.119	0.0145068
662.197	0.0145236
662.275	0.0149268
662.353	0.0150652
662.432	0.0149682
662.510	0.0151476
662.588	0.0153738
662.666	0.0153772
662.744	0.0153269
662.822	0.0152597
662.900	0.0151487
662.978	0.0152487
663.057	0.0151977
663.135	0.0150768
663.213	0.0149419
663.291	0.0149034
663.369	0.0147735
663.447	0.0146590
663.525	0.0145988
663.603	0.0144334
663.682	0.0144913
663.760	0.0143091
663.838	0.0140174
663.916	0.0139207
663.994	0.0138554
664.072	0.0136220
664.150	0.0134026
664.228	0.0131158
664.307	0.0129717
664.385	0.0128616
664.463	0.0126294
664.541	0.0122874
664.619	0.0122345
664.697	0.0121252
664.775	0.0119883
664.853	0.0118797
664.932	0.0118284
665.010	0.0118362
665.088	0.0117307
665.166	0.0117730
665.244	0.0120246
665.322	0.0122043
665.400	0.0122318
665.478	0.0124351
665.557	0.0128273
665.635	0.0131091
665.713	0.0133650
665.791	0.0138362
665.869	0.0142968
665.947	0.0146091
666.025	0.0151500
666.103	0.0155855
666.182	0.0159620
666.260	0.0164227
666.338	0.0169068
666.416	0.0172166
666.494	0.0174994
666.572	0.0176967
666.650	0.0179182
666.728	0.0180279
666.807	0.0179343
666.885	0.0180009
666.963	0.0178189
667.041	0.0175967
667.119	0.0171970
667.197	0.0169286
667.275	0.0165882
667.353	0.0162364
667.432	0.0156408
667.510	0.0151543
667.588	0.0146489
667.666	0.0140965
667.744	0.0136923
667.822	0.0131117
667.900	0.0124976
667.978	0.0119881
668.057	0.0115000
668.135	0.0108876
668.213	0.0106405
668.291	0.0103754
668.369	0.0100392
668.447	0.00980919
668.525	0.00968544
668.603	0.00960075
668.682	0.00975090
668.760	0.00996979
668.838	0.0100800
668.916	0.0103030
668.994	0.0107533
669.072	0.0111364
669.150	0.0114950
669.228	0.0119851
669.307	0.0123672
669.385	0.0130204
669.463	0.0132903
669.541	0.0137579
669.619	0.0142973
669.697	0.0147221
669.775	0.0151669
669.853	0.0155275
669.932	0.0157716
670.010	0.0162603
670.088	0.0165784
670.166	0.0168080
670.244	0.0169872
670.322	0.0173300
670.400	0.0174681
670.478	0.0176952
670.557	0.0179230
670.635	0.0179778
670.713	0.0178422
670.791	0.0179543
670.869	0.0179476
670.947	0.0178694
671.025	0.0176255
671.103	0.0174075
671.182	0.0170109
671.260	0.0167731
671.338	0.0165907
671.416	0.0161121
671.494	0.0158334
671.572	0.0153001
671.650	0.0150332
671.728	0.0146078
671.807	0.0143220
671.885	0.0138273
671.963	0.0133366
672.041	0.0128474
672.119	0.0125551
672.197	0.0118958
672.275	0.0114713
672.353	0.0108103
672.432	0.0106223
672.510	0.0102212
672.588	0.00985687
672.666	0.00951462
672.744	0.00910965
672.822	0.00899086
672.900	0.00918823
672.978	0.00904121
673.057	0.00926445
673.135	0.00940727
673.213	0.00962669
673.291	0.0100253
673.369	0.0103970
673.447	0.0107298
673.525	0.0112949
673.603	0.0117655
673.682	0.0123380
673.760	0.0129768
673.838	0.0134657
673.916	0.0140210
673.994	0.0147260
674.072	0.0152082
674.150	0.0158349
674.228	0.0165415
674.307	0.0169275
674.385	0.0174956
674.463	0.0178680
674.541	0.0182674
674.619	0.0184863
674.697	0.0188000
674.775	0.0189283
674.853	0.0189674
674.932	0.0188908
675.010	0.0187645
675.088	0.0185920
675.166	0.0185104
675.244	0.0181684
675.322	0.0178368
675.400	0.0174275
675.478	0.0169595
675.557	0.0163985
675.635	0.0159254
675.713	0.0155859
675.791	0.0149772
675.869	0.0146318
675.947	0.0141880
676.025	0.0137104
676.103	0.0132143
676.182	0.0129313
676.260	0.0124404
676.338	0.0121399
676.416	0.0116785
676.494	0.0113847
676.572	0.0111323
676.650	0.0109368
676.728	0.0107159
676.807	0.0104401
676.885	0.0104146
676.963	0.0104790
677.041	0.0106010
677.119	0.0106209
677.197	0.0106642
677.275	0.0111362
677.353	0.0113734
677.432	0.0114292
677.510	0.0119315
677.588	0.0122848
677.666	0.0125520
677.744	0.0128355
677.822	0.0131995
677.900	0.0135954
677.978	0.0137518
678.057	0.0139090
678.135	0.0143990
678.213	0.0147660
678.291	0.0147900
678.369	0.0149435
678.447	0.0153001
678.525	0.0154791
678.603	0.0157076
678.682	0.0157475
678.760	0.0159383
678.838	0.0158083
678.916	0.0158750
678.994	0.0160558
679.072	0.0159265
679.150	0.0158437
679.228	0.0157510
679.307	0.0157370
679.385	0.0156381
679.463	0.0155191
679.541	0.0153092
679.619	0.0151944
679.697	0.0150912
679.775	0.0150061
679.853	0.0148547
679.932	0.0146160
680.010	0.0143983
680.088	0.0143011
680.166	0.0141505
680.244	0.0140244
680.322	0.0141405
680.400	0.0139938
680.478	0.0139564
680.557	0.0139091
680.635	0.0141039
680.713	0.0140048
680.791	0.0139666
680.869	0.0141240
680.947	0.0141375
681.025	0.0140461
681.103	0.0141804
681.182	0.0140077
681.260	0.0140428
681.338	0.0142101
681.416	0.0140804
681.494	0.0141274
681.572	0.0140823
681.650	0.0138964
681.728	0.0140024
681.807	0.0139840
681.885	0.0137396
681.963	0.0139864
682.041	0.0139156
682.119	0.0137880
682.197	0.0137960
682.275	0.0137894
682.353	0.0136447
682.432	0.0135293
682.510	0.0135685
682.588	0.0135290
682.666	0.0134766
682.744	0.0134065
682.822	0.0132378
682.900	0.0134123
682.978	0.0132450
683.057	0.0132428
683.135	0.0131511
683.213	0.0129241
683.291	0.0129001
683.369	0.0127515
683.447	0.0127554
683.525	0.0126756
683.603	0.0124132
683.682	0.0123279
683.760	0.0124708
683.838	0.0122218
683.916	0.0122416
683.994	0.0122709
684.072	0.0124049
684.150	0.0124757
684.228	0.0125454
684.307	0.0127992
684.385	0.0129631
684.463	0.0131729
684.541	0.0133807
684.619	0.0136253
684.697	0.0140422
684.775	0.0142442
684.853	0.0143778
684.932	0.0146510
685.010	0.0148810
685.088	0.0152373
685.166	0.0154179
685.244	0.0157547
685.322	0.0157867
685.400	0.0160757
685.478	0.0160979
685.557	0.0161179
685.635	0.0163629
685.713	0.0165178
685.791	0.0163062
685.869	0.0164426
685.947	0.0163731
686.025	0.0164602
686.103	0.0164600
686.182	0.0162680
686.260	0.0160548
686.338	0.0157522
686.416	0.0158407
686.494	0.0155665
686.572	0.0154058
686.650	0.0152850
686.728	0.0149882
686.807	0.0147140
686.885	0.0146614
686.963	0.0144401
687.041	0.0141501
687.119	0.0140062
687.197	0.0138951
687.275	0.0138284
687.353	0.0134985
687.432	0.0134072
687.510	0.0132330
687.588	0.0129935
687.666	0.0128936
687.744	0.0126575
687.822	0.0125813
687.900	0.0126033
687.978	0.0123866
688.057	0.0123528
688.135	0.0122332
688.213	0.0119798
688.291	0.0120901
688.369	0.0119531
688.447	0.0118472
688.525	0.0117374
688.603	0.0117870
688.682	0.0116718
688.760	0.0117635
688.838	0.0117850
688.916	0.0118018
688.994	0.0118124
689.072	0.0118583
689.150	0.0120868
689.228	0.0122602
689.307	0.0123842
689.385	0.0126299
689.463	0.0128819
689.541	0.0132428
689.619	0.0135288
689.697	0.0136623
689.775	0.0140318
689.853	0.0146140
689.932	0.0149004
690.010	0.0153179
690.088	0.0154990
690.166	0.0159378
690.244	0.0163412
690.322	0.0166062
690.400	0.0169577
690.478	0.0173261
690.557	0.0174384
690.635	0.0176340
690.713	0.0176613
690.791	0.0176118
690.869	0.0177205
690.947	0.0175840
691.025	0.0173908
691.103	0.0170664
691.182	0.0168647
691.260	0.0166681
691.338	0.0162444
691.416	0.0161652
691.494	0.0157690
691.572	0.0153868
691.650	0.0151637
691.728	0.0147707
691.807	0.0143748
691.885	0.0140482
691.963	0.0137598
692.041	0.0133282
692.119	0.0130641
692.197	0.0126350
692.275	0.0124339
692.353	0.0121873
692.432	0.0120494
692.510	0.0117815
692.588	0.0117078
692.666	0.0116247
692.744	0.0114391
692.822	0.0115005
692.900	0.0116055
692.978	0.0115926
693.057	0.0116147
693.135	0.0117182
693.213	0.0118414
693.291	0.0120251
693.369	0.0120829
693.447	0.0122811
693.525	0.0124576
693.603	0.0125410
693.682	0.0127666
693.760	0.0130129
693.838	0.0132448
693.916	0.0135871
693.994	0.0137077
694.072	0.0138726
694.150	0.0139942
694.228	0.0141821
694.307	0.0144440
694.385	0.0146114
694.463	0.0146258
694.541	0.0147150
694.619	0.0148274
694.697	0.0147758
694.775	0.0147713
694.853	0.0150048
694.932	0.0149223
695.010	0.0149100
695.088	0.0149243
695.166	0.0149482
695.244	0.0149089
695.322	0.0148805
695.400	0.0150396
695.478	0.0149868
695.557	0.0148342
695.635	0.0148053
695.713	0.0147761
695.791	0.0147964
695.869	0.0147271
695.947	0.0147707
696.025	0.0145887
696.103	0.0145960
696.182	0.0144833
696.260	0.0144160
696.338	0.0144717
696.416	0.0144105
696.494	0.0142645
696.572	0.0142823
696.650	0.0142116
696.728	0.0142243
696.807	0.0142030
696.885	0.0142537
696.963	0.0144009
697.041	0.0143443
697.119	0.0145045
697.197	0.0145646
697.275	0.0146111
697.353	0.0147555
697.432	0.0148838
697.510	0.0148072
697.588	0.0148820
697.666	0.0148787
697.744	0.0150738
697.822	0.0149019
697.900	0.0148771
697.978	0.0147092
698.057	0.0146703
698.135	0.0144365
698.213	0.0143454
698.291	0.0142848
698.369	0.0141561
698.447	0.0139967
698.525	0.0136789
698.603	0.0136591
698.682	0.0134578
698.760	0.0134310
698.838	0.0132461
698.916	0.0131316
698.994	0.0129836
699.072	0.0130305
699.150	0.0128725
699.228	0.0129630
699.307	0.0128509
699.385	0.0128731
699.463	0.0128973
699.541	0.0128810
699.619	0.0129015
699.697	0.0130191
699.775	0.0131903
699.853	0.0132310
699.932	0.0133299
700.010	0.0134007
700.088	0.0134652
700.166	0.0135965
700.244	0.0135504
700.322	0.0138346
700.400	0.0138369
700.478	0.0139014
700.557	0.0137592
700.635	0.0139960
700.713	0.0139896
700.791	0.0140507
700.869	0.0140866
700.947	0.0140485
701.025	0.0141022
701.103	0.0143284
701.182	0.0143156
701.260	0.0144486
701.338	0.0145288
701.416	0.0145412
701.494	0.0145674
701.572	0.0146552
701.650	0.0146800
701.728	0.0149148
701.807	0.0149570
701.885	0.0149528
701.963	0.0149879
702.041	0.0151247
702.119	0.0151920
702.197	0.0153840
702.275	0.0152420
702.353	0.0154212
702.432	0.0154564
702.510	0.0153712
702.588	0.0154458
702.666	0.0153246
702.744	0.0153314
702.822	0.0151520
702.900	0.0151074
702.978	0.0149099
703.057	0.0146379
703.135	0.0144651
703.213	0.0143594
703.291	0.0141592
703.369	0.0137064
703.447	0.0136993
703.525	0.0135447
703.603	0.0132227
703.682	0.0131300
703.760	0.0129061
703.838	0.0128645
703.916	0.0125768
703.994	0.0126205
704.072	0.0126136
704.150	0.0125666
704.228	0.0125587
704.307	0.0126560
704.385	0.0126706
704.463	0.0129756
704.541	0.0131072
704.619	0.0132065
704.697	0.0134337
704.775	0.0136166
704.853	0.0136706
704.932	0.0139643
705.010	0.0141350
705.088	0.0142915
705.166	0.0146880
705.244	0.0148523
705.322	0.0149529
705.400	0.0150449
705.478	0.0150352
705.557	0.0152181
705.635	0.0151934
705.713	0.0152454
705.791	0.0152292
705.869	0.0150255
705.947	0.0149766
706.025	0.0148355
706.103	0.0146400
706.182	0.0145185
706.260	0.0144124
706.338	0.0142930
706.416	0.0140901
706.494	0.0138972
706.572	0.0137949
706.650	0.0135540
706.728	0.0135384
706.807	0.0133911
706.885	0.0132350
706.963	0.0131248
707.041	0.0130081
707.119	0.0130882
707.197	0.0130772
707.275	0.0129281
707.353	0.0129535
707.432	0.0128671
707.510	0.0128838
707.588	0.0129738
707.666	0.0130402
707.744	0.0129175
707.822	0.0133295
707.900	0.0133696
707.978	0.0134985
708.057	0.0136140
708.135	0.0139545
708.213	0.0141821
708.291	0.0142889
708.369	0.0145335
708.447	0.0146392
708.525	0.0147060
708.603	0.0148945
708.682	0.0150259
708.760	0.0150690
708.838	0.0152512
708.916	0.0153577
708.994	0.0153745
709.072	0.0154757
709.150	0.0154635
709.228	0.0155816
709.307	0.0156877
709.385	0.0155013
709.463	0.0156808
709.541	0.0154796
709.619	0.0155994
709.697	0.0155709
709.775	0.0153911
709.853	0.0153255
709.932	0.0152232
710.010	0.0149795
710.088	0.0148427
710.166	0.0146373
710.244	0.0144003
710.322	0.0141838
710.400	0.0141247
710.478	0.0139543
710.557	0.0136500
710.635	0.0136717
710.713	0.0134003
710.791	0.0133778
710.869	0.0132959
710.947	0.0131238
711.025	0.0130878
711.103	0.0129762
711.182	0.0129382
711.260	0.0128012
711.338	0.0127630
711.416	0.0127969
711.494	0.0128307
711.572	0.0127590
711.650	0.0127312
711.728	0.0127463
711.807	0.0130070
711.885	0.0129976
711.963	0.0129821
712.041	0.0131590
712.119	0.0132977
712.197	0.0133077
712.275	0.0134767
712.353	0.0136871
712.432	0.0137598
712.510	0.0140621
712.588	0.0141286
712.666	0.0141241
712.744	0.0143191
712.822	0.0145416
712.900	0.0144460
712.978	0.0143382
713.057	0.0143518
713.135	0.0145801
713.213	0.0145493
713.291	0.0145828
713.369	0.0147121
713.447	0.0147847
713.525	0.0147268
713.603	0.0149335
713.682	0.0148473
713.760	0.0148801
713.838	0.0150492
713.916	0.0151117
713.994	0.0151517
714.072	0.0152606
714.150	0.0152002
714.228	0.0151071
714.307	0.0152361
714.385	0.0150708
714.463	0.0150668
714.541	0.0150304
714.619	0.0148393
714.697	0.0147707
714.775	0.0146075
714.853	0.0145763
714.932	0.0144839
715.010	0.0143412
715.088	0.0143166
715.166	0.0140931
715.244	0.0141334
715.322	0.0140749
715.400	0.0139688
715.478	0.0139015
715.557	0.0137733
715.635	0.0136805
715.713	0.0137085
715.791	0.0135433
715.869	0.0134068
715.947	0.0133478
716.025	0.0133979
716.103	0.0131933
716.182	0.0131469
716.260	0.0132067
716.338	0.0131724
716.416	0.0130446
716.494	0.0128957
716.572	0.0131300
716.650	0.0131523
716.728	0.0130820
716.807	0.0131831
716.885	0.0132320
716.963	0.0135179
717.041	0.0135577
717.119	0.0135605
717.197	0.0135837
717.275	0.0138493
717.353	0.0139595
717.432	0.0140628
717.510	0.0142136
717.588	0.0144235
717.666	0.0142254
717.744	0.0146265
717.822	0.0147342
717.900	0.0148036
717.978	0.0148843
718.057	0.0149995
718.135	0.0151662
718.213	0.0150517
718.291	0.0150501
718.369	0.0152244
718.447	0.0152871
718.525	0.0152319
718.603	0.0151046
718.682	0.0150989
718.760	0.0149299
718.838	0.0151629
718.916	0.0149211
718.994	0.0148026
719.072	0.0147122
719.150	0.0145062
719.228	0.0144938
719.307	0.0144943
719.385	0.0144028
719.463	0.0143538
719.541	0.0141841
719.619	0.0140949
719.697	0.0140993
719.775	0.0140108
719.853	0.0139422
719.932	0.0139783
720.010	0.0137035
720.088	0.0137535
720.166	0.0138537
720.244	0.0138705
720.322	0.0138229
720.400	0.0137005
720.478	0.0137107
720.557	0.0136910
720.635	0.0137614
720.713	0.0137500
720.791	0.0137846
720.869	0.0139153
720.947	0.0139293
721.025	0.0137707
721.103	0.0139597
721.182	0.0140382
721.260	0.0140620
721.338	0.0139402
721.416	0.0140668
721.494	0.0141082
721.572	0.0142198
721.650	0.0144340
721.728	0.0143023
721.807	0.0143478
721.885	0.0145856
721.963	0.0143602
722.041	0.0143660
722.119	0.0143079
722.197	0.0143361
722.275	0.0143310
722.353	0.0143262
722.432	0.0142150
722.510	0.0143283
722.588	0.0141666
722.666	0.0141965
722.744	0.0142760
722.822	0.0142193
722.900	0.0141027
722.978	0.0143071
723.057	0.0142342
723.135	0.0143001
723.213	0.0142731
723.291	0.0143136
723.369	0.0143002
723.447	0.0142069
723.525	0.0141687
723.603	0.0140354
723.682	0.0141525
723.760	0.0142151
723.838	0.0139252
723.916	0.0139517
723.994	0.0139769
724.072	0.0139156
724.150	0.0140421
724.228	0.0137678
724.307	0.0137932
724.385	0.0140156
724.463	0.0137807
724.541	0.0138780
724.619	0.0138141
724.697	0.0138367
724.775	0.0137223
724.853	0.0138876
724.932	0.0138731
725.010	0.0138660
725.088	0.0139411
725.166	0.0139545
725.244	0.0140601
725.322	0.0140790
725.400	0.0141634
725.478	0.0142422
725.557	0.0141841
725.635	0.0142200
725.713	0.0142570
725.791	0.0142844
725.869	0.0142299
725.947	0.0144781
726.025	0.0145265
726.103	0.0145029
726.182	0.0145230
726.260	0.0146463
726.338	0.0144796
726.416	0.0146610
726.494	0.0145861
726.572	0.0144967
726.650	0.0145355
726.728	0.0144183
726.807	0.0142721
726.885	0.0142519
726.963	0.0142688
727.041	0.0142583
727.119	0.0141941
727.197	0.0140649
727.275	0.0141335
727.353	0.0139814
727.432	0.0138612
727.510	0.0139405
727.588	0.0139825
727.666	0.0137919
727.744	0.0138342
727.822	0.0137427
727.900	0.0136587
727.978	0.0137833
728.057	0.0138469
728.135	0.0136973
728.213	0.0138548
728.291	0.0139467
728.369	0.0140717
728.447	0.0141718
728.525	0.0142033
728.603	0.0142776
728.682	0.0142564
728.760	0.0145692
728.838	0.0146004
728.916	0.0144884
728.994	0.0145023
729.072	0.0145171
729.150	0.0147519
729.228	0.0147150
729.307	0.0145397
729.385	0.0145376
729.463	0.0144754
729.541	0.0145016
729.619	0.0143806
729.697	0.0143176
729.775	0.0142445
729.853	0.0140204
729.932	0.0139117
730.010	0.0138668
730.088	0.0137392
730.166	0.0137906
730.244	0.0136400
730.322	0.0135935
730.400	0.0134373
730.478	0.0136414
730.557	0.0136075
730.635	0.0134707
730.713	0.0135932
730.791	0.0134441
730.869	0.0134479
730.947	0.0135062
731.025	0.0135519
731.103	0.0136679
731.182	0.0135876
731.260	0.0136840
731.338	0.0137588
731.416	0.0136400
731.494	0.0136007
731.572	0.0138320
731.650	0.0140181
731.728	0.0140379
731.807	0.0141475
731.885	0.0143104
731.963	0.0143073
732.041	0.0144303
732.119	0.0144314
732.197	0.0144140
732.275	0.0145612
732.353	0.0148589
732.432	0.0148167
732.510	0.0148695
732.588	0.0148697
732.666	0.0149420
732.744	0.0148260
732.822	0.0148133
732.900	0.0147679
732.978	0.0147920
733.057	0.0148962
733.135	0.0148888
733.213	0.0150159
733.291	0.0147918
733.369	0.0147690
733.447	0.0146413
733.525	0.0146900
733.603	0.0145386
733.682	0.0145116
733.760	0.0145758
733.838	0.0144856
733.916	0.0144881
733.994	0.0144305
734.072	0.0144102
734.150	0.0142547
734.228	0.0144276
734.307	0.0143299
734.385	0.0142928
734.463	0.0143006
734.541	0.0141135
734.619	0.0141103
734.697	0.0141615
734.775	0.0140409
734.853	0.0141393
734.932	0.0141204
735.010	0.0140588
735.088	0.0140000
735.166	0.0139954
735.244	0.0140138
735.322	0.0139845
735.400	0.0138864
735.478	0.0139178
735.557	0.0139641
735.635	0.0138711
735.713	0.0138634
735.791	0.0139082
735.869	0.0138353
735.947	0.0138992
736.025	0.0139500
736.103	0.0138795
736.182	0.0139838
736.260	0.0139581
736.338	0.0139706
736.416	0.0139165
736.494	0.0139571
736.572	0.0137703
736.650	0.0136928
736.728	0.0138610
736.807	0.0138161
736.885	0.0137718
736.963	0.0137037
737.041	0.0136985
737.119	0.0136858
737.197	0.0137952
737.275	0.0139668
737.353	0.0138337
737.432	0.0139831
737.510	0.0140777
737.588	0.0140437
737.666	0.0143073
737.744	0.0143626
737.822	0.0142944
737.900	0.0144565
737.978	0.0146414
738.057	0.0146514
738.135	0.0147652
738.213	0.0148787
738.291	0.0147950
738.369	0.0147083
738.447	0.0149553
738.525	0.0150307
738.603	0.0150655
738.682	0.0150596
738.760	0.0151208
738.838	0.0151693
738.916	0.0152381
738.994	0.0151897
739.072	0.0150394
739.150	0.0151413
739.228	0.0151453
739.307	0.0150320
739.385	0.0149422
739.463	0.0149367
739.541	0.0148864
739.619	0.0149330
739.697	0.0148471
739.775	0.0147189
739.853	0.0144675
739.932	0.0143388
740.010	0.0144627
740.088	0.0142506
740.166	0.0140400
740.244	0.0141095
740.322	0.0139340
740.400	0.0138849
740.478	0.0137873
740.557	0.0138159
740.635	0.0138599
740.713	0.0137315
740.791	0.0136231
740.869	0.0136043
740.947	0.0136562
741.025	0.0135477
741.103	0.0137382
741.182	0.0136559
741.260	0.0136893
741.338	0.0137421
741.416	0.0137044
741.494	0.0136292
741.572	0.0136398
741.650	0.0136011
741.728	0.0135957
741.807	0.0136787
741.885	0.0136649
741.963	0.0136022
742.041	0.0136990
742.119	0.0137035
742.197	0.0136611
742.275	0.0137488
742.353	0.0137046
742.432	0.0136349
742.510	0.0136338
742.588	0.0136304
742.666	0.0135781
742.744	0.0137022
742.822	0.0135865
742.900	0.0136211
742.978	0.0135523
743.057	0.0136879
743.135	0.0136060
743.213	0.0137735
743.291	0.0138342
743.369	0.0137783
743.447	0.0139313
743.525	0.0139206
743.603	0.0139847
743.682	0.0140910
743.760	0.0140174
743.838	0.0139836
743.916	0.0142782
743.994	0.0142368
744.072	0.0142509
744.150	0.0141647
744.228	0.0144185
744.307	0.0145151
744.385	0.0145010
744.463	0.0146229
744.541	0.0146382
744.619	0.0146470
744.697	0.0148075
744.775	0.0146658
744.853	0.0146867
744.932	0.0146404
745.010	0.0145298
745.088	0.0146522
745.166	0.0146584
745.244	0.0146172
745.322	0.0146280
745.400	0.0146361
745.478	0.0145674
745.557	0.0146275
745.635	0.0145228
745.713	0.0144273
745.791	0.0143747
745.869	0.0145082
745.947	0.0142333
746.025	0.0142149
746.103	0.0142491
746.182	0.0142464
746.260	0.0138862
746.338	0.0138499
746.416	0.0140034
746.494	0.0139149
746.572	0.0138044
746.650	0.0138278
746.728	0.0138388
746.807	0.0137042
746.885	0.0137685
746.963	0.0137045
747.041	0.0136871
747.119	0.0136939
747.197	0.0137717
747.275	0.0138287
747.353	0.0137675
747.432	0.0137222
747.510	0.0138142
747.588	0.0137819
747.666	0.0138414
747.744	0.0139040
747.822	0.0137026
747.900	0.0138182
747.978	0.0139068
748.057	0.0139607
748.135	0.0140027
748.213	0.0139590
748.291	0.0139900
748.369	0.0140633
748.447	0.0140927
748.525	0.0141156
748.603	0.0140485
748.682	0.0140931
748.760	0.0141456
748.838	0.0141996
748.916	0.0142432
748.994	0.0143646
749.072	0.0142524
749.150	0.0141769
749.228	0.0143510
749.307	0.0144255
749.385	0.0141676
749.463	0.0143020
749.541	0.0142525
749.619	0.0143154
749.697	0.0143794
749.775	0.0142936
749.853	0.0142690
749.932	0.0143155
750.010	0.0144259
750.088	0.0142214
750.166	0.0142912
750.244	0.0143726
750.322	0.0144134
750.400	0.0144428
750.478	0.0141982
750.557	0.0142806
750.635	0.0141628
750.713	0.0142094
750.791	0.0141612
750.869	0.0142963
750.947	0.0142512
751.025	0.0142741
751.103	0.0141622
751.182	0.0140202
751.260	0.0141407
751.338	0.0140157
751.416	0.0140784
751.494	0.0141898
751.572	0.0141922
751.650	0.0140723
751.728	0.0142553
751.807	0.0142326
751.885	0.0143345
751.963	0.0142603
752.041	0.0141687
752.119	0.0142722
752.197	0.0145135
752.275	0.0144684
752.353	0.0144325
752.432	0.0143427
752.510	0.0143909
752.588	0.0144404
752.666	0.0144679
752.744	0.0145726
752.822	0.0144584
752.900	0.0144775
752.978	0.0146272
753.057	0.0146224
753.135	0.0145583
753.213	0.0144923
753.291	0.0145401
753.369	0.0144979
753.447	0.0145403
753.525	0.0146372
753.603	0.0145429
753.682	0.0144833
753.760	0.0144555
753.838	0.0143206
753.916	0.0143057
753.994	0.0142960
754.072	0.0142569
754.150	0.0142313
754.228	0.0142072
754.307	0.0141290
754.385	0.0138784
754.463	0.0139244
754.541	0.0137815
754.619	0.0139902
754.697	0.0138660
754.775	0.0137067
754.853	0.0137815
754.932	0.0136712
755.010	0.0138813
755.088	0.0138377
755.166	0.0137099
755.244	0.0139136
755.322	0.0137943
755.400	0.0136785
755.478	0.0138176
755.557	0.0138930
755.635	0.0137360
755.713	0.0139243
755.791	0.0138852
755.869	0.0138546
755.947	0.0140012
756.025	0.0139820
756.103	0.0140297
756.182	0.0140186
756.260	0.0139931
756.338	0.0139934
756.416	0.0139885
756.494	0.0139986
756.572	0.0139240
756.650	0.0139500
756.728	0.0139167
756.807	0.0139551
756.885	0.0140446
756.963	0.0140417
757.041	0.0137526
757.119	0.0139559
757.197	0.0140960
757.275	0.0139854
757.353	0.0140392
757.432	0.0140574
757.510	0.0142133
757.588	0.0139764
757.666	0.0141943
757.744	0.0142667
757.822	0.0142557
757.900	0.0142374
757.978	0.0142839
758.057	0.0143706
758.135	0.0143609
758.213	0.0143843
758.291	0.0143033
758.369	0.0145450
758.447	0.0144167
758.525	0.0145694
758.603	0.0145236
758.682	0.0144453
758.760	0.0145155
758.838	0.0143819
758.916	0.0146684
758.994	0.0146210
759.072	0.0145995
759.150	0.0144766
759.228	0.0145277
759.307	0.0145679
759.385	0.0145360
759.463	0.0144927
759.541	0.0145369
759.619	0.0145002
759.697	0.0145161
759.775	0.0145412
759.853	0.0144763
759.932	0.0144834
760.010	0.0144124
760.088	0.0143456
760.166	0.0144057
760.244	0.0142665
760.322	0.0143321
760.400	0.0141491
760.478	0.0141594
760.557	0.0142606
760.635	0.0140590
760.713	0.0140493
760.791	0.0138552
760.869	0.0139673
760.947	0.0137889
761.025	0.0137009
761.103	0.0137220
761.182	0.0134521
761.260	0.0135651
761.338	0.0136021
761.416	0.0135080
761.494	0.0133978
761.572	0.0134079
761.650	0.0133580
761.728	0.0134802
761.807	0.0133611
761.885	0.0133881
761.963	0.0135484
762.041	0.0135833
762.119	0.0136662
762.197	0.0136516
762.275	0.0137774
762.353	0.0138154
762.432	0.0137811
762.510	0.0138548
762.588	0.0140831
762.666	0.0141949
762.744	0.0141784
762.822	0.0142162
762.900	0.0143072
762.978	0.0143355
763.057	0.0143514
763.135	0.0143795
763.213	0.0144475
763.291	0.0144582
763.369	0.0145219
763.447	0.0144536
763.525	0.0144322
763.603	0.0143505
763.682	0.0144791
763.760	0.0144296
763.838	0.0143056
763.916	0.0143324
763.994	0.0142235
764.072	0.0141898
764.150	0.0139666
764.228	0.0138905
764.307	0.0139238
764.385	0.0137741
764.463	0.0137206
764.541	0.0137383
764.619	0.0138091
764.697	0.0135280
764.775	0.0134470
764.853	0.0134306
764.932	0.0135760
765.010	0.0135800
765.088	0.0136420
765.166	0.0135762
765.244	0.0136396
765.322	0.0136392
765.400	0.0135799
765.478	0.0136063
765.557	0.0136971
765.635	0.0136659
765.713	0.0138288
765.791	0.0138300
765.869	0.0139583
765.947	0.0140372
766.025	0.0141379
766.103	0.0140399
766.182	0.0141177
766.260	0.0142210
766.338	0.0143597
766.416	0.0143098
766.494	0.0144637
766.572	0.0145265
766.650	0.0144236
766.728	0.0144876
766.807	0.0146097
766.885	0.0146014
766.963	0.0145466
767.041	0.0147392
767.119	0.0147073
767.197	0.0146490
767.275	0.0147056
767.353	0.0145390
767.432	0.0145741
767.510	0.0145957
767.588	0.0145644
767.666	0.0144266
767.744	0.0145057
767.822	0.0144250
767.900	0.0144355
767.978	0.0141339
768.057	0.0143266
768.135	0.0142804
768.213	0.0140054
768.291	0.0139031
768.369	0.0138448
768.447	0.0140170
768.525	0.0138625
768.603	0.0138659
768.682	0.0137701
768.760	0.0136507
768.838	0.0136092
768.916	0.0136288
768.994	0.0134757
769.072	0.0134492
769.150	0.0134968
769.228	0.0133807
769.307	0.0135455
769.385	0.0135363
769.463	0.0134023
769.541	0.0134630
769.619	0.0133909
769.697	0.0132945
769.775	0.0134998
769.853	0.0134248
769.932	0.0134289
770.010	0.0134822
770.088	0.0135165
770.166	0.0136242
770.244	0.0135829
770.322	0.0137656
770.400	0.0138523
770.478	0.0138136
770.557	0.0140263
770.635	0.0140701
770.713	0.0140811
770.791	0.0141243
770.869	0.0142629
770.947	0.0143536
771.025	0.0143464
771.103	0.0144639
771.182	0.0145145
771.260	0.0146709
771.338	0.0145927
771.416	0.0144837
771.494	0.0147156
771.572	0.0148219
771.650	0.0147689
771.728	0.0149044
771.807	0.0149174
771.885	0.0148542
771.963	0.0148858
772.041	0.0147362
772.119	0.0146507
772.197	0.0147742
772.275	0.0147600
772.353	0.0147194
772.432	0.0146373
772.510	0.0145245
772.588	0.0145400
772.666	0.0144277
772.744	0.0143478
772.822	0.0145214
772.900	0.0143369
772.978	0.0141331
773.057	0.0140754
773.135	0.0140489
773.213	0.0142028
773.291	0.0140325
773.369	0.0140139
773.447	0.0138924
773.525	0.0138911
773.603	0.0137685
773.682	0.0136750
773.760	0.0139433
773.838	0.0137496
773.916	0.0136298
773.994	0.0139172
774.072	0.0137825
774.150	0.0139180
774.228	0.0137939
774.307	0.0137498
774.385	0.0136763
774.463	0.0137143
774.541	0.0138714
774.619	0.0138433
774.697	0.0138979
774.775	0.0140248
774.853	0.0137891
774.932	0.0138370
775.010	0.0140514
775.088	0.0139104
775.166	0.0138321
775.244	0.0138977
775.322	0.0140822
775.400	0.0139879
775.478	0.0140093
775.557	0.0140259
775.635	0.0139921
775.713	0.0142121
775.791	0.0141550
775.869	0.0141463
775.947	0.0142426
776.025	0.0141901
776.103	0.0141833
776.182	0.0142542
776.260	0.0143336
776.338	0.0142475
776.416	0.0143570
776.494	0.0143654
776.572	0.0141656
776.650	0.0142406
776.728	0.0142761
776.807	0.0141450
776.885	0.0141346
776.963	0.0141132
777.041	0.0140250
777.119	0.0141512
777.197	0.0139686
777.275	0.0139116
777.353	0.0140863
777.432	0.0139162
777.510	0.0140138
777.588	0.0139239
777.666	0.0139375
777.744	0.0139502
777.822	0.0139668
777.900	0.0140379
777.978	0.0139262
778.057	0.0139049
778.135	0.0140717
778.213	0.0140166
778.291	0.0138812
778.369	0.0140321
778.447	0.0140768
778.525	0.0141340
778.603	0.0140895
778.682	0.0141730
778.760	0.0141381
778.838	0.0142609
778.916	0.0142431
778.994	0.0141672
779.072	0.0141801
779.150	0.0142074
779.228	0.0142410
779.307	0.0139893
779.385	0.0140045
779.463	0.0141405
779.541	0.0141154
779.619	0.0140379
779.697	0.0141135
779.775	0.0139850
779.853	0.0140692
779.932	0.0141089
780.010	0.0137798
780.088	0.0138715
780.166	0.0139613
780.244	0.0139103
780.322	0.0137616
780.400	0.0138755
780.478	0.0138531
780.557	0.0137608
780.635	0.0138255
780.713	0.0139294
780.791	0.0138429
780.869	0.0139500
780.947	0.0138992
781.025	0.0139093
781.103	0.0139731
781.182	0.0141777
781.260	0.0141610
781.338	0.0141715
781.416	0.0141976
781.494	0.0143208
781.572	0.0142921
781.650	0.0143143
781.728	0.0142667
781.807	0.0142916
781.885	0.0143424
781.963	0.0143646
782.041	0.0143785
782.119	0.0142908
782.197	0.0143632
782.275	0.0143002
782.353	0.0142866
782.432	0.0142410
782.510	0.0142950
782.588	0.0142075
782.666	0.0143013
782.744	0.0141611
782.822	0.0141656
782.900	0.0142570
782.978	0.0141044
783.057	0.0140870
783.135	0.0140759
783.213	0.0141204
783.291	0.0140690
783.369	0.0141341
783.447	0.0139922
783.525	0.0139109
783.603	0.0138852
783.682	0.0138815
783.760	0.0140404
783.838	0.0138503
783.916	0.0139258
783.994	0.0136935
784.072	0.0138495
784.150	0.0137157
784.228	0.0136861
784.307	0.0137167
784.385	0.0137897
784.463	0.0137539
784.541	0.0136837
784.619	0.0136174
784.697	0.0134892
784.775	0.0135233
784.853	0.0135000
784.932	0.0135678
785.010	0.0135609
785.088	0.0134340
785.166	0.0134000
785.244	0.0133406
785.322	0.0134347
785.400	0.0134171
785.478	0.0134062
785.557	0.0134144
785.635	0.0134654
785.713	0.0136263
785.791	0.0135368
785.869	0.0136292
785.947	0.0136124
786.025	0.0137970
786.103	0.0139871
786.182	0.0139641
786.260	0.0140794
786.338	0.0140274
786.416	0.0141010
786.494	0.0142931
786.572	0.0142483
786.650	0.0142963
786.728	0.0143336
786.807	0.0144299
786.885	0.0145575
786.963	0.0145026
787.041	0.0145541
787.119	0.0145500
787.197	0.0146295
787.275	0.0147419
787.353	0.0148026
787.432	0.0148126
787.510	0.0147090
787.588	0.0147490
787.666	0.0148622
787.744	0.0149843
787.822	0.0147495
787.900	0.0148732
787.978	0.0147836
788.057	0.0148444
788.135	0.0148471
788.213	0.0147057
788.291	0.0147555
788.369	0.0145911
788.447	0.0145204
788.525	0.0145539
788.603	0.0144442
788.682	0.0143150
788.760	0.0142396
788.838	0.0142043
788.916	0.0141229
788.994	0.0140430
789.072	0.0141469
789.150	0.0140150
789.228	0.0139201
789.307	0.0137338
789.385	0.0137066
789.463	0.0136948
789.541	0.0135610
789.619	0.0135381
789.697	0.0134663
789.775	0.0133647
789.853	0.0134441
789.932	0.0133757
790.010	0.0134604
790.088	0.0134181
790.166	0.0135487
790.244	0.0136063
790.322	0.0137183
790.400	0.0137243
790.478	0.0138371
790.557	0.0139018
790.635	0.0139823
790.713	0.0140281
790.791	0.0140572
790.869	0.0141870
790.947	0.0142702
791.025	0.0142182
791.103	0.0141812
791.182	0.0142765
791.260	0.0143833
791.338	0.0141954
791.416	0.0142586
791.494	0.0141964
791.572	0.0143375
791.650	0.0142438
791.728	0.0143435
791.807	0.0142254
791.885	0.0142551
791.963	0.0142133
792.041	0.0142768
792.119	0.0142744
792.197	0.0143023
792.275	0.0142178
792.353	0.0142296
792.432	0.0141816
792.510	0.0142851
792.588	0.0143267
792.666	0.0143948
792.744	0.0143079
792.822	0.0143493
792.900	0.0142752
792.978	0.0142726
793.057	0.0143585
793.135	0.0143484
793.213	0.0144037
793.291	0.0142173
793.369	0.0142548
793.447	0.0142095
793.525	0.0142036
793.603	0.0142762
793.682	0.0141495
793.760	0.0142257
793.838	0.0140571
793.916	0.0139590
793.994	0.0139051
794.072	0.0140645
794.150	0.0140866
794.228	0.0139273
794.307	0.0139754
794.385	0.0141270
794.463	0.0140044
794.541	0.0140950
794.619	0.0141288
794.697	0.0140718
794.775	0.0139709
794.853	0.0140367
794.932	0.0141666
795.010	0.0140565
795.088	0.0140514
795.166	0.0139867
795.244	0.0140381
795.322	0.0140812
795.400	0.0139221
795.478	0.0138455
795.557	0.0139883
795.635	0.0138195
795.713	0.0136646
795.791	0.0138307
795.869	0.0138780
795.947	0.0138962
796.025	0.0139996
796.103	0.0138833
796.182	0.0140048
796.260	0.0141336
796.338	0.0139951
796.416	0.0141026
796.494	0.0140719
796.572	0.0141354
796.650	0.0142244
796.728	0.0141980
796.807	0.0142715
796.885	0.0142022
796.963	0.0141163
797.041	0.0141803
797.119	0.0140953
797.197	0.0139656
797.275	0.0139090
797.353	0.0140684
797.432	0.0142244
797.510	0.0141203
797.588	0.0139517
797.666	0.0139486
797.744	0.0140318
797.822	0.0141465
797.900	0.0140826
797.978	0.0140765
798.057	0.0140138
798.135	0.0140493
798.213	0.0141161
798.291	0.0140238
798.369	0.0141693
798.447	0.0142033
798.525	0.0142871
798.603	0.0142545
798.682	0.0142570
798.760	0.0142810
798.838	0.0143755
798.916	0.0145100
798.994	0.0144933
799.072	0.0144904
799.150	0.0144874
799.228	0.0144505
799.307	0.0143864
799.385	0.0144822
799.463	0.0145403
799.541	0.0142897
799.619	0.0143514
799.697	0.0142384
799.775	0.0140960
799.853	0.0142226
799.932	0.0141658
800.010	0.0141604
800.088	0.0140872
800.166	0.0140651
800.244	0.0140096
800.322	0.0139458
800.400	0.0139713
800.478	0.0140539
800.557	0.0139838
800.635	0.0140415
800.713	0.0141585
800.791	0.0140361
800.869	0.0141656
800.947	0.0141812
801.025	0.0141985
801.103	0.0142313
801.182	0.0142545
801.260	0.0142618
801.338	0.0144153
801.416	0.0142712
801.494	0.0143254
801.572	0.0143130
801.650	0.0141768
801.728	0.0142760
801.807	0.0143307
801.885	0.0143655
801.963	0.0142245
802.041	0.0142430
802.119	0.0142177
802.197	0.0141994
802.275	0.0140752
802.353	0.0140357
802.432	0.0139819
802.510	0.0139577
802.588	0.0140356
802.666	0.0139860
802.744	0.0138799
802.822	0.0139812
802.900	0.0139414
802.978	0.0140783
803.057	0.0140570
803.135	0.0143143
803.213	0.0141172
803.291	0.0142168
803.369	0.0142963
803.447	0.0143308
803.525	0.0142857
803.603	0.0142239
803.682	0.0141268
803.760	0.0141747
803.838	0.0141861
803.916	0.0140665
803.994	0.0140505
804.072	0.0139033
804.150	0.0138480
804.228	0.0138671
804.307	0.0138596
804.385	0.0138121
804.463	0.0138496
804.541	0.0137911
804.619	0.0138752
804.697	0.0139169
804.775	0.0140276
804.853	0.0139527
804.932	0.0137991
805.010	0.0138752
805.088	0.0139444
805.166	0.0140983
805.244	0.0140983
805.322	0.0141570
805.400	0.0141679
805.478	0.0142819
805.557	0.0144765
805.635	0.0143666
805.713	0.0144079
805.791	0.0144637
805.869	0.0143744
805.947	0.0145157
806.025	0.0146362
806.103	0.0145313
806.182	0.0144543
806.260	0.0142953
806.338	0.0143694
806.416	0.0142824
806.494	0.0142705
806.572	0.0139861
806.650	0.0138757
806.728	0.0138347
806.807	0.0137370
806.885	0.0137192
806.963	0.0135471
807.041	0.0135014
807.119	0.0135862
807.197	0.0136166
807.275	0.0136090
807.353	0.0136467
807.432	0.0137784
807.510	0.0139233
807.588	0.0139991
807.666	0.0141109
807.744	0.0141621
807.822	0.0142529
807.900	0.0144318
807.978	0.0144955
808.057	0.0145262
808.135	0.0144691
808.213	0.0144644
808.291	0.0144643
808.369	0.0144231
808.447	0.0143628
808.525	0.0144127
808.603	0.0143341
808.682	0.0143066
808.760	0.0142155
808.838	0.0142003
808.916	0.0142774
808.994	0.0140789
809.072	0.0140297
809.150	0.0140812
809.228	0.0140208
809.307	0.0139859
809.385	0.0140325
809.463	0.0140120
809.541	0.0138989
809.619	0.0139618
809.697	0.0141198
809.775	0.0140721
809.853	0.0142515
809.932	0.0142057
810.010	0.0142233
810.088	0.0142347
810.166	0.0142829
810.244	0.0142583
810.322	0.0142699
810.400	0.0143215
810.478	0.0141821
810.557	0.0141576
810.635	0.0141842
810.713	0.0141329
810.791	0.0140205
810.869	0.0139903
810.947	0.0139500
811.025	0.0140717
811.103	0.0141100
811.182	0.0140061
811.260	0.0141806
811.338	0.0141649
811.416	0.0143060
811.494	0.0143703
811.572	0.0143052
811.650	0.0144549
811.728	0.0144155
811.807	0.0143940
811.885	0.0143235
811.963	0.0144365
812.041	0.0142673
812.119	0.0142741
812.197	0.0142471
812.275	0.0143062
812.353	0.0141512
812.432	0.0138892
812.510	0.0139124
812.588	0.0140263
812.666	0.0139743
812.744	0.0138626
812.822	0.0138237
812.900	0.0138842
812.978	0.0139111
813.057	0.0139087
813.135	0.0142308
813.213	0.0142963
813.291	0.0143810
813.369	0.0143723
813.447	0.0146898
813.525	0.0147139
813.603	0.0148730
813.682	0.0147251
813.760	0.0148775
813.838	0.0148468
813.916	0.0146832
813.994	0.0146409
814.072	0.0146027
814.150	0.0146255
814.228	0.0144255
814.307	0.0144785
814.385	0.0143919
814.463	0.0143407
814.541	0.0142236
814.619	0.0141825
814.697	0.0140675
814.775	0.0141092
814.853	0.0140527
814.932	0.0140452
815.010	0.0140786
815.088	0.0139964
815.166	0.0141342
815.244	0.0139417
815.322	0.0140613
815.400	0.0139234
815.478	0.0139552
815.557	0.0140533
815.635	0.0139858
815.713	0.0140395
815.791	0.0140569
815.869	0.0140932
815.947	0.0143681
816.025	0.0141687
816.103	0.0143365
816.182	0.0143610
816.260	0.0144284
816.338	0.0143587
816.416	0.0143972
816.494	0.0144339
816.572	0.0144944
816.650	0.0144411
816.728	0.0144141
816.807	0.0143369
816.885	0.0142896
816.963	0.0143698
817.041	0.0141380
817.119	0.0141585
817.197	0.0143364
817.275	0.0141916
817.353	0.0141404
817.432	0.0141445
817.510	0.0141000
817.588	0.0140465
817.666	0.0140581
817.744	0.0141483
817.822	0.0142181
817.900	0.0141095
817.978	0.0140931
818.057	0.0141236
818.135	0.0140829
818.213	0.0140042
818.291	0.0141383
818.369	0.0142794
818.447	0.0142950
818.525	0.0143908
818.603	0.0142975
818.682	0.0144245
818.760	0.0145519
818.838	0.0145361
818.916	0.0145386
818.994	0.0145059
819.072	0.0144408
819.150	0.0143887
819.228	0.0142007
819.307	0.0141720
819.385	0.0142081
819.463	0.0140889
819.541	0.0139022
819.619	0.0138873
819.697	0.0137359
819.775	0.0137547
819.853	0.0137172
819.932	0.0136645
820.010	0.0136561
820.088	0.0137967
820.166	0.0138153
820.244	0.0137374
820.322	0.0138618
820.400	0.0140552
820.478	0.0142005
820.557	0.0142590
820.635	0.0143647
820.713	0.0143627
820.791	0.0145462
820.869	0.0144444
820.947	0.0144324
821.025	0.0144379
821.103	0.0144203
821.182	0.0143791
821.260	0.0143441
821.338	0.0142959
821.416	0.0140092
821.494	0.0137515
821.572	0.0136990
821.650	0.0138371
821.728	0.0138091
821.807	0.0136544
821.885	0.0135758
821.963	0.0136629
822.041	0.0137020
822.119	0.0137719
822.197	0.0138228
822.275	0.0138757
822.353	0.0139092
822.432	0.0141892
822.510	0.0141656
822.588	0.0141425
822.666	0.0141893
822.744	0.0141115
822.822	0.0142751
822.900	0.0142423
822.978	0.0142725
823.057	0.0142777
823.135	0.0142879
823.213	0.0142627
823.291	0.0143668
823.369	0.0142995
823.447	0.0141745
823.525	0.0142636
823.603	0.0144128
823.682	0.0142922
823.760	0.0142458
823.838	0.0143906
823.916	0.0143161
823.994	0.0144731
824.072	0.0142384
824.150	0.0141631
824.228	0.0141458
824.307	0.0140562
824.385	0.0141438
824.463	0.0141611
824.541	0.0140736
824.619	0.0141520
824.697	0.0139695
824.775	0.0139902
824.853	0.0139735
824.932	0.0140284
825.010	0.0140714
825.088	0.0139661
825.166	0.0140176
825.244	0.0141330
825.322	0.0140345
825.400	0.0139861
825.478	0.0138840
825.557	0.0140619
825.635	0.0140209
825.713	0.0140996
825.791	0.0140844
825.869	0.0141276
825.947	0.0141647
826.025	0.0141907
826.103	0.0141312
826.182	0.0142182
826.260	0.0142030
826.338	0.0141312
826.416	0.0141242
826.494	0.0139906
826.572	0.0139467
826.650	0.0139673
826.728	0.0138892
826.807	0.0138763
826.885	0.0138452
826.963	0.0137066
827.041	0.0137624
827.119	0.0137161
827.197	0.0136121
827.275	0.0136957
827.353	0.0136548
827.432	0.0139034
827.510	0.0137044
827.588	0.0136604
827.666	0.0138557
827.744	0.0139111
827.822	0.0139776
827.900	0.0138498
827.978	0.0139496
828.057	0.0140426
828.135	0.0141035
828.213	0.0142027
828.291	0.0142837
828.369	0.0143449
828.447	0.0145400
828.525	0.0144765
828.603	0.0144971
828.682	0.0145861
828.760	0.0147220
828.838	0.0146964
828.916	0.0145873
828.994	0.0146462
829.072	0.0148227
829.150	0.0146934
829.228	0.0147710
829.307	0.0147021
829.385	0.0145397
829.463	0.0144791
829.541	0.0144138
829.619	0.0143389
829.697	0.0142355
829.775	0.0141505
829.853	0.0140890
829.932	0.0138825
830.010	0.0139348
830.088	0.0137089
830.166	0.0136703
830.244	0.0136106
830.322	0.0134309
830.400	0.0134673
830.478	0.0134271
830.557	0.0134785
830.635	0.0133097
830.713	0.0133298
830.791	0.0134738
830.869	0.0135117
830.947	0.0135217
831.025	0.0136770
831.103	0.0136855
831.182	0.0138076
831.260	0.0139168
831.338	0.0141236
831.416	0.0141677
831.494	0.0141609
831.572	0.0142290
831.650	0.0144614
831.728	0.0144968
831.807	0.0144341
831.885	0.0146134
831.963	0.0146145
832.041	0.0146258
832.119	0.0147119
832.197	0.0146850
832.275	0.0145104
832.353	0.0145082
832.432	0.0145973
832.510	0.0144773
832.588	0.0143404
832.666	0.0142447
832.744	0.0141146
832.822	0.0139720
832.900	0.0138273
832.978	0.0137239
833.057	0.0137230
833.135	0.0137659
833.213	0.0136181
833.291	0.0135722
833.369	0.0135846
833.447	0.0135659
833.525	0.0135787
833.603	0.0137382
833.682	0.0136174
833.760	0.0138065
833.838	0.0137832
833.916	0.0140266
833.994	0.0141249
834.072	0.0142117
834.150	0.0141840
834.228	0.0142690
834.307	0.0144701
834.385	0.0146520
834.463	0.0144274
834.541	0.0145767
834.619	0.0144917
834.697	0.0148585
834.775	0.0147150
834.853	0.0147984
834.932	0.0147677
835.010	0.0146879
835.088	0.0146970
835.166	0.0146986
835.244	0.0145963
835.322	0.0146074
835.400	0.0145619
835.478	0.0145209
835.557	0.0144739
835.635	0.0143388
835.713	0.0144851
835.791	0.0144246
835.869	0.0143614
835.947	0.0143547
836.025	0.0143366
836.103	0.0143317
836.182	0.0144087
836.260	0.0144331
836.338	0.0143635
836.416	0.0144174
836.494	0.0144601
836.572	0.0143413
836.650	0.0143207
836.728	0.0143991
836.807	0.0143910
836.885	0.0143260
836.963	0.0143750
837.041	0.0141697
837.119	0.0141886
837.197	0.0142727
837.275	0.0140788
837.353	0.0141147
837.432	0.0139883
837.510	0.0140175
837.588	0.0139249
837.666	0.0139145
837.744	0.0138663
837.822	0.0136861
837.900	0.0137016
837.978	0.0135995
838.057	0.0135931
838.135	0.0136769
838.213	0.0135855
838.291	0.0136189
838.369	0.0137024
838.447	0.0137650
838.525	0.0137078
838.603	0.0136739
838.682	0.0138388
838.760	0.0138937
838.838	0.0139419
838.916	0.0138969
838.994	0.0140286
839.072	0.0141267
839.150	0.0141289
839.228	0.0141609
839.307	0.0141222
839.385	0.0141113
839.463	0.0142992
839.541	0.0142081
839.619	0.0143612
839.697	0.0143686
839.775	0.0143423
839.853	0.0146024
839.932	0.0145428
840.010	0.0144762
840.088	0.0144830
840.166	0.0144626
840.244	0.0145802
840.322	0.0143790
840.400	0.0143781
840.478	0.0142226
840.557	0.0141486
840.635	0.0141958
840.713	0.0140025
840.791	0.0140391
840.869	0.0138231
840.947	0.0138029
841.025	0.0138766
841.103	0.0138810
841.182	0.0139536
841.260	0.0139497
841.338	0.0139116
841.416	0.0138399
841.494	0.0140158
841.572	0.0140321
841.650	0.0140896
841.728	0.0140434
841.807	0.0139995
841.885	0.0140570
841.963	0.0142261
842.041	0.0141108
842.119	0.0141722
842.197	0.0141017
842.275	0.0141528
842.353	0.0142294
842.432	0.0140590
842.510	0.0142714
842.588	0.0142883
842.666	0.0143307
842.744	0.0142628
842.822	0.0144393
842.900	0.0143649
842.978	0.0144205
843.057	0.0143365
843.135	0.0143178
843.213	0.0142010
843.291	0.0142155
843.369	0.0141570
843.447	0.0140003
843.525	0.0140041
843.603	0.0139063
843.682	0.0140415
843.760	0.0139436
843.838	0.0137686
843.916	0.0138226
843.994	0.0137609
844.072	0.0136820
844.150	0.0138549
844.228	0.0138210
844.307	0.0138674
844.385	0.0137756
844.463	0.0138026
844.541	0.0137914
844.619	0.0139379
844.697	0.0138795
844.775	0.0139244
844.853	0.0141021
844.932	0.0140356
845.010	0.0140131
845.088	0.0139957
845.166	0.0141154
845.244	0.0140514
845.322	0.0140155
845.400	0.0140841
845.478	0.0140307
845.557	0.0140968
845.635	0.0140335
845.713	0.0141662
845.791	0.0141827
845.869	0.0142641
845.947	0.0140936
846.025	0.0141186
846.103	0.0142029
846.182	0.0142014
846.260	0.0140894
846.338	0.0142213
846.416	0.0142088
846.494	0.0141489
846.572	0.0143372
846.650	0.0143862
846.728	0.0143442
846.807	0.0144542
846.885	0.0143404
846.963	0.0143005
847.041	0.0144298
847.119	0.0143591
847.197	0.0142649
847.275	0.0142612
847.353	0.0142071
847.432	0.0141251
847.510	0.0140875
847.588	0.0139292
847.666	0.0141291
847.744	0.0139342
847.822	0.0139709
847.900	0.0140298
847.978	0.0139591
848.057	0.0139182
848.135	0.0139356
848.213	0.0137045
848.291	0.0138767
848.369	0.0139124
848.447	0.0137650
848.525	0.0139637
848.603	0.0138044
848.682	0.0137205
848.760	0.0136727
848.838	0.0138422
848.916	0.0138956
848.994	0.0138458
849.072	0.0139259
849.150	0.0138551
849.228	0.0137708
849.307	0.0139367
849.385	0.0140475
849.463	0.0140626
849.541	0.0139128
849.619	0.0139544
849.697	0.0142163
849.775	0.0141344
849.853	0.0140942
849.932	0.0141215
850.010	0.0141212
850.088	0.0140429
850.166	0.0141494
850.244	0.0143306
850.322	0.0142652
850.400	0.0142657
850.478	0.0141734
850.557	0.0142384
850.635	0.0142480
850.713	0.0141580
850.791	0.0142739
850.869	0.0141368
850.947	0.0141772
851.025	0.0143507
851.103	0.0142430
851.182	0.0141992
851.260	0.0142762
851.338	0.0142244
851.416	0.0142132
851.494	0.0143079
851.572	0.0142362
851.650	0.0143297
851.728	0.0142467
851.807	0.0142948
851.885	0.0143984
851.963	0.0142754
852.041	0.0142310
852.119	0.0143073
852.197	0.0142871
852.275	0.0143167
852.353	0.0141059
852.432	0.0142724
852.510	0.0142453
852.588	0.0142251
852.666	0.0140273
852.744	0.0141171
852.822	0.0143027
852.900	0.0141975
852.978	0.0141187
853.057	0.0142186
853.135	0.0142699
853.213	0.0142563
853.291	0.0143240
853.369	0.0142608
853.447	0.0143976
853.525	0.0142223
853.603	0.0143409
853.682	0.0142775
853.760	0.0141720
853.838	0.0142152
853.916	0.0140459
853.994	0.0141268
854.072	0.0142926
854.150	0.0140878
854.228	0.0140365
854.307	0.0141889
854.385	0.0140804
854.463	0.0140177
854.541	0.0140036
854.619	0.0140417
854.697	0.0139194
854.775	0.0138295
854.853	0.0138263
854.932	0.0138027
855.010	0.0137499
855.088	0.0137032
855.166	0.0136832
855.244	0.0137061
855.322	0.0136904
855.400	0.0136163
855.478	0.0135800
855.557	0.0134803
855.635	0.0136123
855.713	0.0137959
855.791	0.0138287
855.869	0.0138320
855.947	0.0138023
856.025	0.0139648
856.103	0.0139825
856.182	0.0138033
856.260	0.0139451
856.338	0.0138624
856.416	0.0140217
856.494	0.0141219
856.572	0.0141204
856.650	0.0141906
856.728	0.0142858
856.807	0.0141521
856.885	0.0140366
856.963	0.0142828
857.041	0.0143609
857.119	0.0143610
857.197	0.0145978
857.275	0.0145055
857.353	0.0145076
857.432	0.0144745
857.510	0.0143827
857.588	0.0146162
857.666	0.0146534
857.744	0.0146837
857.822	0.0146539
857.900	0.0145348
857.978	0.0146818
858.057	0.0143977
858.135	0.0145822
858.213	0.0144926
858.291	0.0144806
858.369	0.0144198
858.447	0.0144999
858.525	0.0144606
858.603	0.0143697
858.682	0.0144805
858.760	0.0144628
858.838	0.0143292
858.916	0.0143182
858.994	0.0141969
859.072	0.0141584
859.150	0.0140913
859.228	0.0142348
859.307	0.0141268
859.385	0.0139462
859.463	0.0139210
859.541	0.0138459
859.619	0.0138924
859.697	0.0138192
859.775	0.0139204
859.853	0.0137564
859.932	0.0138210
860.010	0.0138280
860.088	0.0138592
860.166	0.0140104
860.244	0.0140102
860.322	0.0140221
860.400	0.0139664
860.478	0.0141148
860.557	0.0141269
860.635	0.0141480
860.713	0.0143167
860.791	0.0141581
860.869	0.0143972
860.947	0.0144242
861.025	0.0144188
861.103	0.0145448
861.182	0.0146236
861.260	0.0144314
861.338	0.0146014
861.416	0.0143959
861.494	0.0145756
861.572	0.0145113
861.650	0.0145801
861.728	0.0144955
861.807	0.0143678
861.885	0.0143999
861.963	0.0142595
862.041	0.0143108
862.119	0.0142457
862.197	0.0141134
862.275	0.0141222
862.353	0.0141768
862.432	0.0140678
862.510	0.0141244
862.588	0.0140121
862.666	0.0139880
862.744	0.0140322
862.822	0.0139522
862.900	0.0140238
862.978	0.0141885
863.057	0.0138361
863.135	0.0138123
863.213	0.0140002
863.291	0.0140665
863.369	0.0139005
863.447	0.0138980
863.525	0.0138172
863.603	0.0137696
863.682	0.0137991
863.760	0.0136629
863.838	0.0136591
863.916	0.0137078
863.994	0.0137386
864.072	0.0136447
864.150	0.0136539
864.228	0.0138679
864.307	0.0138124
864.385	0.0138098
864.463	0.0137493
864.541	0.0137881
864.619	0.0139258
864.697	0.0139556
864.775	0.0139927
864.853	0.0139904
864.932	0.0140286
865.010	0.0140431
865.088	0.0141051
865.166	0.0141924
865.244	0.0144657
865.322	0.0143575
865.400	0.0143606
865.478	0.0144022
865.557	0.0144194
865.635	0.0143092
865.713	0.0145244
865.791	0.0144890
865.869	0.0144517
865.947	0.0144012
866.025	0.0144552
866.103	0.0145106
866.182	0.0144823
866.260	0.0144405
866.338	0.0144255
866.416	0.0144024
866.494	0.0143379
866.572	0.0143414
866.650	0.0142960
866.728	0.0142517
866.807	0.0142941
866.885	0.0142473
866.963	0.0142057
867.041	0.0141085
867.119	0.0140173
867.197	0.0138957
867.275	0.0140060
867.353	0.0140005
867.432	0.0139259
867.510	0.0137767
867.588	0.0138740
867.666	0.0139195
867.744	0.0137917
867.822	0.0137286
867.900	0.0138570
867.978	0.0138696
868.057	0.0138722
868.135	0.0140599
868.213	0.0139011
868.291	0.0138630
868.369	0.0139307
868.447	0.0139390
868.525	0.0140472
868.603	0.0140866
868.682	0.0140163
868.760	0.0140025
868.838	0.0139462
868.916	0.0140760
868.994	0.0141103
869.072	0.0141820
869.150	0.0140802
869.228	0.0141209
869.307	0.0141999
869.385	0.0142677
869.463	0.0143185
869.541	0.0141536
869.619	0.0144861
869.697	0.0144569
869.775	0.0142943
869.853	0.0143712
869.932	0.0144035
870.010	0.0144115
870.088	0.0144656
870.166	0.0144325
870.244	0.0143628
870.322	0.0143748
870.400	0.0143538
870.478	0.0142881
870.557	0.0142410
870.635	0.0141872
870.713	0.0140543
870.791	0.0140752
870.869	0.0140017
870.947	0.0139934
871.025	0.0139397
871.103	0.0140052
871.182	0.0140363
871.260	0.0138557
871.338	0.0139009
871.416	0.0138685
871.494	0.0139597
871.572	0.0139063
871.650	0.0139490
871.728	0.0139060
871.807	0.0139961
871.885	0.0137691
871.963	0.0137775
872.041	0.0139268
872.119	0.0140440
872.197	0.0139311
872.275	0.0139841
872.353	0.0141264
872.432	0.0139547
872.510	0.0139314
872.588	0.0140726
872.666	0.0139822
872.744	0.0139875
872.822	0.0140437
872.900	0.0141660
872.978	0.0141901
873.057	0.0141643
873.135	0.0142050
873.213	0.0141850
873.291	0.0142946
873.369	0.0140428
873.447	0.0142993
873.525	0.0143646
873.603	0.0142864
873.682	0.0142981
873.760	0.0143840
873.838	0.0143006
873.916	0.0143948
873.994	0.0144531
874.072	0.0142879
874.150	0.0143079
874.228	0.0142643
874.307	0.0142951
874.385	0.0142141
874.463	0.0142487
874.541	0.0142209
874.619	0.0141961
874.697	0.0140189
874.775	0.0141103
874.853	0.0140284
874.932	0.0138540
875.010	0.0140575
875.088	0.0139404
875.166	0.0138954
875.244	0.0137962
875.322	0.0138316
875.400	0.0137928
875.478	0.0138351
875.557	0.0138264
875.635	0.0137244
875.713	0.0137811
875.791	0.0136214
875.869	0.0138163
875.947	0.0137995
876.025	0.0137508
876.103	0.0138796
876.182	0.0138264
876.260	0.0139279
876.338	0.0138813
876.416	0.0140637
876.494	0.0141132
876.572	0.0140754
876.650	0.0142145
876.728	0.0141470
876.807	0.0143536
876.885	0.0142358
876.963	0.0143708
877.041	0.0143145
877.119	0.0144831
877.197	0.0143468
877.275	0.0145181
877.353	0.0145108
877.432	0.0145168
877.510	0.0145865
877.588	0.0146403
877.666	0.0145302
877.744	0.0146993
877.822	0.0147411
877.900	0.0146944
877.978	0.0147600
878.057	0.0146105
878.135	0.0147848
878.213	0.0145439
878.291	0.0144080
878.369	0.0144476
878.447	0.0145136
878.525	0.0143728
878.603	0.0143910
878.682	0.0143312
878.760	0.0143541
878.838	0.0142704
878.916	0.0142934
878.994	0.0141957
879.072	0.0140434
879.150	0.0141386
879.228	0.0141137
879.307	0.0140261
879.385	0.0140154
879.463	0.0140665
879.541	0.0140186
879.619	0.0140134
879.697	0.0139909
879.775	0.0137991
879.853	0.0138245
879.932	0.0138737
880.010	0.0137839
880.088	0.0138868
880.166	0.0138949
880.244	0.0138365
880.322	0.0137981
880.400	0.0138284
880.478	0.0138914
880.557	0.0138550
880.635	0.0138158
880.713	0.0138123
880.791	0.0139247
880.869	0.0140485
880.947	0.0139654
881.025	0.0140332
881.103	0.0138828
881.182	0.0140194
881.260	0.0140578
881.338	0.0139902
881.416	0.0139672
881.494	0.0139458
881.572	0.0141390
881.650	0.0139567
881.728	0.0139908
881.807	0.0140858
881.885	0.0140923
881.963	0.0141028
882.041	0.0141138
882.119	0.0141158
882.197	0.0141369
882.275	0.0141811
882.353	0.0141774
882.432	0.0142080
882.510	0.0142178
882.588	0.0142735
882.666	0.0141463
882.744	0.0140104
882.822	0.0141619
882.900	0.0142300
882.978	0.0140876
883.057	0.0140163
883.135	0.0140711
883.213	0.0139929
883.291	0.0140120
883.369	0.0140215
883.447	0.0138349
883.525	0.0138959
883.603	0.0139678
883.682	0.0138378
883.760	0.0137817
883.838	0.0138780
883.916	0.0139144
883.994	0.0137830
884.072	0.0138389
884.150	0.0138838
884.228	0.0138509
884.307	0.0139507
884.385	0.0140767
884.463	0.0140377
884.541	0.0140145
884.619	0.0139491
884.697	0.0139671
884.775	0.0140245
884.853	0.0141857
884.932	0.0140866
885.010	0.0142922
885.088	0.0141644
885.166	0.0141525
885.244	0.0141166
885.322	0.0141864
885.400	0.0143253
885.478	0.0143071
885.557	0.0142384
885.635	0.0143280
885.713	0.0144577
885.791	0.0143908
885.869	0.0143252
885.947	0.0144933
886.025	0.0144977
886.103	0.0143548
886.182	0.0142970
886.260	0.0143966
886.338	0.0143589
886.416	0.0144098
886.494	0.0144308
886.572	0.0143999
886.650	0.0144604
886.728	0.0143871
886.807	0.0143646
886.885	0.0143858
886.963	0.0143890
887.041	0.0142336
887.119	0.0143110
887.197	0.0143021
887.275	0.0143376
887.353	0.0142783
887.432	0.0142279
887.510	0.0141839
887.588	0.0142474
887.666	0.0141953
887.744	0.0141691
887.822	0.0143021
887.900	0.0141808
887.978	0.0142462
888.057	0.0140679
888.135	0.0141100
888.213	0.0140442
888.291	0.0141502
888.369	0.0142352
888.447	0.0141032
888.525	0.0142044
888.603	0.0140688
888.682	0.0141459
888.760	0.0142207
888.838	0.0141485
888.916	0.0141378
888.994	0.0141762
889.072	0.0141045
889.150	0.0141615
889.228	0.0140630
889.307	0.0140773
889.385	0.0140862
889.463	0.0141148
889.541	0.0140898
889.619	0.0142677
889.697	0.0141728
889.775	0.0140376
889.853	0.0140906
889.932	0.0141737
890.010	0.0142401
890.088	0.0141914
890.166	0.0141709
890.244	0.0139952
890.322	0.0141825
890.400	0.0142093
890.478	0.0141517
890.557	0.0141875
890.635	0.0141343
890.713	0.0139931
890.791	0.0141470
890.869	0.0140417
890.947	0.0141421
891.025	0.0142411
891.103	0.0140583
891.182	0.0142071
891.260	0.0142391
891.338	0.0142264
891.416	0.0143436
891.494	0.0141080
891.572	0.0142600
891.650	0.0143934
891.728	0.0142595
891.807	0.0143644
891.885	0.0142204
891.963	0.0143015
892.041	0.0142029
892.119	0.0142618
892.197	0.0142937
892.275	0.0141152
892.353	0.0142458
892.432	0.0142112
892.510	0.0140327
892.588	0.0141978
892.666	0.0142527
892.744	0.0143213
892.822	0.0142710
892.900	0.0142712
892.978	0.0142989
893.057	0.0141013
893.135	0.0142999
893.213	0.0142623
893.291	0.0142413
893.369	0.0142520
893.447	0.0141326
893.525	0.0141709
893.603	0.0141532
893.682	0.0142083
893.760	0.0142724
893.838	0.0141982
893.916	0.0142439
893.994	0.0141045
894.072	0.0141295
894.150	0.0142914
894.228	0.0141858
894.307	0.0141055
894.385	0.0141044
894.463	0.0140790
894.541	0.0140862
894.619	0.0141463
894.697	0.0140471
894.775	0.0139757
894.853	0.0139229
894.932	0.0139547
895.010	0.0138643
895.088	0.0139302
895.166	0.0140179
895.244	0.0138680
895.322	0.0138629
895.400	0.0138713
895.478	0.0140590
895.557	0.0140238
895.635	0.0139558
895.713	0.0140564
895.791	0.0139654
895.869	0.0139362
895.947	0.0140654
896.025	0.0141348
896.103	0.0141361
896.182	0.0142354
896.260	0.0142142
896.338	0.0141561
896.416	0.0142721
896.494	0.0141962
896.572	0.0140521
896.650	0.0141955
896.728	0.0141892
896.807	0.0141943
896.885	0.0142137
896.963	0.0142826
897.041	0.0143864
897.119	0.0142683
897.197	0.0143005
897.275	0.0142663
897.353	0.0141395
897.432	0.0143351
897.510	0.0141217
897.588	0.0141607
897.666	0.0140093
897.744	0.0141116
897.822	0.0141208
897.900	0.0141635
897.978	0.0140363
898.057	0.0139757
898.135	0.0141018
898.213	0.0139767
898.291	0.0140633
898.369	0.0140589
898.447	0.0140611
898.525	0.0139864
898.603	0.0138790
898.682	0.0140422
898.760	0.0139777
898.838	0.0140183
898.916	0.0140115
898.994	0.0141579
899.072	0.0141232
899.150	0.0141662
899.228	0.0140992
899.307	0.0140582
899.385	0.0141396
899.463	0.0142273
899.541	0.0142122
899.619	0.0140958
899.697	0.0142094
899.775	0.0141883
899.853	0.0144095
899.932	0.0143822
900.010	0.0143616
900.088	0.0143558
900.166	0.0142187
900.244	0.0143411
900.322	0.0143182
900.400	0.0145561
900.478	0.0144054
900.557	0.0143658
900.635	0.0143598
900.713	0.0144184
900.791	0.0142352
900.869	0.0143521
900.947	0.0142707
901.025	0.0142648
901.103	0.0144402
901.182	0.0142805
901.260	0.0142021
901.338	0.0141920
901.416	0.0140828
901.494	0.0142095
901.572	0.0141553
901.650	0.0141495
901.728	0.0139790
901.807	0.0141777
901.885	0.0141058
901.963	0.0139395
902.041	0.0139539
902.119	0.0139400
902.197	0.0139650
902.275	0.0139410
902.353	0.0139460
902.432	0.0139027
902.510	0.0138691
902.588	0.0139410
902.666	0.0139440
902.744	0.0138390
902.822	0.0137566
902.900	0.0140349
902.978	0.0139152
903.057	0.0138526
903.135	0.0140765
903.213	0.0138210
903.291	0.0140391
903.369	0.0138920
903.447	0.0139761
903.525	0.0139436
903.603	0.0138219
903.682	0.0140102
903.760	0.0140559
903.838	0.0140126
903.916	0.0141236
903.994	0.0140204
904.072	0.0140997
904.150	0.0141284
904.228	0.0139606
904.307	0.0142448
904.385	0.0141421
904.463	0.0141116
904.541	0.0140525
904.619	0.0140602
904.697	0.0140353
904.775	0.0140128
904.853	0.0139169
904.932	0.0140790
905.010	0.0139580
905.088	0.0141409
905.166	0.0140207
905.244	0.0140555
905.322	0.0139996
905.400	0.0140244
905.478	0.0140787
905.557	0.0141312
905.635	0.0140912
905.713	0.0141764
905.791	0.0141974
905.869	0.0140392
905.947	0.0142117
906.025	0.0143697
906.103	0.0142102
906.182	0.0142877
906.260	0.0141933
906.338	0.0142444
906.416	0.0142530
906.494	0.0141856
906.572	0.0142112
906.650	0.0142852
906.728	0.0141032
906.807	0.0141787
906.885	0.0140937
906.963	0.0141359
907.041	0.0141469
907.119	0.0142148
907.197	0.0141305
907.275	0.0139761
907.353	0.0141530
907.432	0.0140747
907.510	0.0141261
907.588	0.0140549
907.666	0.0139423
907.744	0.0140751
907.822	0.0140623
907.900	0.0139770
907.978	0.0141193
908.057	0.0139320
908.135	0.0140804
908.213	0.0140825
908.291	0.0140654
908.369	0.0138865
908.447	0.0140289
908.525	0.0141617
908.603	0.0140121
908.682	0.0140219
908.760	0.0139828
908.838	0.0141245
908.916	0.0141908
908.994	0.0141946
909.072	0.0141839
909.150	0.0142608
909.228	0.0140488
909.307	0.0141936
909.385	0.0141478
909.463	0.0143136
909.541	0.0140823
909.619	0.0142161
909.697	0.0141866
909.775	0.0142163
909.853	0.0142017
909.932	0.0139781
910.010	0.0142709
910.088	0.0143364
910.166	0.0141511
910.244	0.0142926
910.322	0.0141919
910.400	0.0142091
910.478	0.0141695
910.557	0.0142100
910.635	0.0142174
910.713	0.0140553
910.791	0.0139727
910.869	0.0141608
910.947	0.0141000
911.025	0.0140431
911.103	0.0140310
911.182	0.0140160
911.260	0.0139664
911.338	0.0140884
911.416	0.0139772
911.494	0.0139819
911.572	0.0140727
911.650	0.0139598
911.728	0.0140005
911.807	0.0139405
911.885	0.0140696
911.963	0.0139570
912.041	0.0140261
912.119	0.0139403
912.197	0.0139069
912.275	0.0140769
912.353	0.0140105
912.432	0.0139378
912.510	0.0139034
912.588	0.0140556
912.666	0.0141164
912.744	0.0139900
912.822	0.0140118
912.900	0.0139816
912.978	0.0139550
913.057	0.0141134
913.135	0.0141298
913.213	0.0141422
913.291	0.0140857
913.369	0.0142982
913.447	0.0143598
913.525	0.0142484
913.603	0.0142433
913.682	0.0142139
913.760	0.0143628
913.838	0.0143311
913.916	0.0141181
913.994	0.0142216
914.072	0.0142145
914.150	0.0141936
914.228	0.0142364
914.307	0.0142017
914.385	0.0141708
914.463	0.0143005
914.541	0.0143305
914.619	0.0142648
914.697	0.0142360
914.775	0.0142760
914.853	0.0142567
914.932	0.0142239
915.010	0.0144117
915.088	0.0143100
915.166	0.0142667
915.244	0.0142748
915.322	0.0141387
915.400	0.0141982
915.478	0.0142555
915.557	0.0140485
915.635	0.0140849
915.713	0.0142673
915.791	0.0141017
915.869	0.0141944
915.947	0.0143371
916.025	0.0142723
916.103	0.0141698
916.182	0.0142516
916.260	0.0142088
916.338	0.0141828
916.416	0.0141915
916.494	0.0142336
916.572	0.0141829
916.650	0.0141734
916.728	0.0140447
916.807	0.0141814
916.885	0.0140358
916.963	0.0141166
917.041	0.0140562
917.119	0.0141656
917.197	0.0141220
917.275	0.0140546
917.353	0.0140292
917.432	0.0141813
917.510	0.0141123
917.588	0.0141306
917.666	0.0141274
917.744	0.0139781
917.822	0.0140553
917.900	0.0140530
917.978	0.0141131
918.057	0.0140231
918.135	0.0139265
918.213	0.0138758
918.291	0.0138179
918.369	0.0140630
918.447	0.0137534
918.525	0.0139246
918.603	0.0139311
918.682	0.0138847
918.760	0.0138835
918.838	0.0137808
918.916	0.0141991
918.994	0.0139473
919.072	0.0139722
919.150	0.0140614
919.228	0.0141383
919.307	0.0141133
919.385	0.0140498
919.463	0.0141788
919.541	0.0142336
919.619	0.0143156
919.697	0.0142950
919.775	0.0142147
919.853	0.0142691
919.932	0.0140715
920.010	0.0141523
920.088	0.0140668
920.166	0.0143360
920.244	0.0143036
920.322	0.0142800
920.400	0.0141733
920.478	0.0141713
920.557	0.0142184
920.635	0.0142873
920.713	0.0142021
920.791	0.0142024
920.869	0.0143473
920.947	0.0142332
921.025	0.0142156
921.103	0.0142769
921.182	0.0142179
921.260	0.0143993
921.338	0.0142879
921.416	0.0142332
921.494	0.0141624
921.572	0.0141669
921.650	0.0141048
921.728	0.0141330
921.807	0.0142558
921.885	0.0142934
921.963	0.0142655
922.041	0.0142773
922.119	0.0142919
922.197	0.0142362
922.275	0.0141936
922.353	0.0142159
922.432	0.0141514
922.510	0.0141029
922.588	0.0141754
922.666	0.0142860
922.744	0.0141508
922.822	0.0140402
922.900	0.0140324
922.978	0.0140309
923.057	0.0140121
923.135	0.0139723
923.213	0.0139766
923.291	0.0139691
923.369	0.0140527
923.447	0.0139024
923.525	0.0139322
923.603	0.0140040
923.682	0.0138299
923.760	0.0139165
923.838	0.0140039
923.916	0.0139758
923.994	0.0139780
924.072	0.0138847
924.150	0.0140459
924.228	0.0139214
924.307	0.0139700
924.385	0.0140627
924.463	0.0138820
924.541	0.0140561
924.619	0.0139923
924.697	0.0139342
924.775	0.0140126
924.853	0.0140759
924.932	0.0141436
925.010	0.0140955
925.088	0.0141452
925.166	0.0141933
925.244	0.0141004
925.322	0.0141808
925.400	0.0142760
925.478	0.0142564
925.557	0.0143436
925.635	0.0143359
925.713	0.0143256
925.791	0.0143649
925.869	0.0143635
925.947	0.0142620
926.025	0.0144189
926.103	0.0142542
926.182	0.0141403
926.260	0.0142866
926.338	0.0142987
926.416	0.0142751
926.494	0.0142725
926.572	0.0141754
926.650	0.0141228
926.728	0.0141826
926.807	0.0141133
926.885	0.0140859
926.963	0.0139780
927.041	0.0142078
927.119	0.0140992
927.197	0.0140101
927.275	0.0139106
927.353	0.0138741
927.432	0.0139674
927.510	0.0138368
927.588	0.0138351
927.666	0.0139572
927.744	0.0140466
927.822	0.0138889
927.900	0.0138773
927.978	0.0140543
928.057	0.0139197
928.135	0.0139028
928.213	0.0141254
928.291	0.0140486
928.369	0.0140894
928.447	0.0140163
928.525	0.0141348
928.603	0.0141319
928.682	0.0141723
928.760	0.0141094
928.838	0.0141623
928.916	0.0140370
928.994	0.0140540
929.072	0.0140133
929.150	0.0139842
929.228	0.0139720
929.307	0.0142010
929.385	0.0140175
929.463	0.0140810
929.541	0.0141013
929.619	0.0140768
929.697	0.0140785
929.775	0.0139764
929.853	0.0140038
929.932	0.0141341
930.010	0.0139965
930.088	0.0140232
930.166	0.0140586
930.244	0.0141632
930.322	0.0140733
930.400	0.0141042
930.478	0.0140525
930.557	0.0139856
930.635	0.0140300
930.713	0.0141165
930.791	0.0140534
930.869	0.0141302
930.947	0.0140073
931.025	0.0140562
931.103	0.0140928
931.182	0.0140164
931.260	0.0139812
931.338	0.0140187
931.416	0.0139961
931.494	0.0139254
931.572	0.0139495
931.650	0.0139454
931.728	0.0140041
931.807	0.0138067
931.885	0.0139385
931.963	0.0137901
932.041	0.0137559
932.119	0.0140046
932.197	0.0137785
932.275	0.0138567
932.353	0.0139559
932.432	0.0138442
932.510	0.0139126
932.588	0.0140618
932.666	0.0139369
932.744	0.0139915
932.822	0.0141180
932.900	0.0139431
932.978	0.0139664
933.057	0.0139114
933.135	0.0139857
933.213	0.0140123
933.291	0.0138347
933.369	0.0139999
933.447	0.0139686
933.525	0.0139226
933.603	0.0140377
933.682	0.0140063
933.760	0.0137768
933.838	0.0139175
933.916	0.0140018
933.994	0.0139321
934.072	0.0138689
934.150	0.0139444
934.228	0.0140536
934.307	0.0138387
934.385	0.0139305
934.463	0.0140352
934.541	0.0141169
934.619	0.0141603
934.697	0.0141963
934.775	0.0140772
934.853	0.0141078
934.932	0.0140350
935.010	0.0140723
935.088	0.0140656
935.166	0.0142450
935.244	0.0143552
935.322	0.0143150
935.400	0.0140755
935.478	0.0142420
935.557	0.0142985
935.635	0.0142282
935.713	0.0142554
935.791	0.0144009
935.869	0.0142387
935.947	0.0144466
936.025	0.0143405
936.103	0.0143568
936.182	0.0142529
936.260	0.0143019
936.338	0.0144165
936.416	0.0142862
936.494	0.0141444
936.572	0.0142556
936.650	0.0141537
936.728	0.0142363
936.807	0.0142015
936.885	0.0141515
936.963	0.0141390
937.041	0.0141189
937.119	0.0141448
937.197	0.0141917
937.275	0.0142460
937.353	0.0139745
937.432	0.0141508
937.510	0.0141294
937.588	0.0140622
937.666	0.0141193
937.744	0.0139809
937.822	0.0141002
937.900	0.0140201
937.978	0.0138651
938.057	0.0140453
938.135	0.0140641
938.213	0.0139931
938.291	0.0139552
938.369	0.0140225
938.447	0.0140423
938.525	0.0140498
938.603	0.0140126
938.682	0.0139532
938.760	0.0142012
938.838	0.0140756
938.916	0.0140810
938.994	0.0141898
939.072	0.0141147
939.150	0.0141609
939.228	0.0141698
939.307	0.0140602
939.385	0.0140495
939.463	0.0141692
939.541	0.0142221
939.619	0.0140623
939.697	0.0141669
939.775	0.0143272
939.853	0.0143717
939.932	0.0142410
940.010	0.0143542
940.088	0.0143435
940.166	0.0143736
940.244	0.0142120
940.322	0.0143573
940.400	0.0143230
940.478	0.0144179
940.557	0.0144082
940.635	0.0144341
940.713	0.0143952
940.791	0.0142697
940.869	0.0142850
940.947	0.0142585
941.025	0.0143087
941.103	0.0141856
941.182	0.0142144
941.260	0.0142197
941.338	0.0140951
941.416	0.0141870
941.494	0.0140643
941.572	0.0141763
941.650	0.0139493
941.728	0.0141003
941.807	0.0141689
941.885	0.0139542
941.963	0.0139179
942.041	0.0139919
942.119	0.0139832
942.197	0.0140142
942.275	0.0140285
942.353	0.0139541
942.432	0.0138234
942.510	0.0138688
942.588	0.0138034
942.666	0.0140421
942.744	0.0138564
942.822	0.0138906
942.900	0.0140599
942.978	0.0140364
943.057	0.0139452
943.135	0.0140999
943.213	0.0140665
943.291	0.0140503
943.369	0.0139997
943.447	0.0138895
943.525	0.0140347
943.603	0.0140593
943.682	0.0141529
943.760	0.0141039
943.838	0.0140051
943.916	0.0138795
943.994	0.0140462
944.072	0.0139744
944.150	0.0138963
944.228	0.0141310
944.307	0.0140012
944.385	0.0140819
944.463	0.0139885
944.541	0.0141913
944.619	0.0140826
944.697	0.0142174
944.775	0.0141763
944.853	0.0140249
944.932	0.0140743
945.010	0.0141249
945.088	0.0142747
945.166	0.0141938
945.244	0.0140612
945.322	0.0140812
945.400	0.0142019
945.478	0.0141640
945.557	0.0140356
945.635	0.0140228
945.713	0.0141279
945.791	0.0141248
945.869	0.0141933
945.947	0.0142330
946.025	0.0141607
946.103	0.0142043
946.182	0.0142454
946.260	0.0142829
946.338	0.0141550
946.416	0.0141189
946.494	0.0140622
946.572	0.0141975
946.650	0.0143153
946.728	0.0141250
946.807	0.0141771
946.885	0.0142490
946.963	0.0141841
947.041	0.0142431
947.119	0.0141196
947.197	0.0141624
947.275	0.0142300
947.353	0.0141357
947.432	0.0142387
947.510	0.0143398
947.588	0.0142693
947.666	0.0143584
947.744	0.0141664
947.822	0.0142306
947.900	0.0142528
947.978	0.0141633
948.057	0.0142480
948.135	0.0143178
948.213	0.0139648
948.291	0.0140671
948.369	0.0140815
948.447	0.0142001
948.525	0.0139187
948.603	0.0140665
948.682	0.0140110
948.760	0.0141611
948.838	0.0140653
948.916	0.0141429
948.994	0.0140607
949.072	0.0140616
949.150	0.0140784
949.228	0.0141455
949.307	0.0141438
949.385	0.0141563
949.463	0.0142218
949.541	0.0141129
949.619	0.0141565
949.697	0.0142396
949.775	0.0142507
949.853	0.0143611
949.932	0.0142654
950.010	0.0142430
950.088	0.0143219
950.166	0.0142373
950.244	0.0142504
950.322	0.0142097
950.400	0.0142494
950.478	0.0142081
950.557	0.0142545
950.635	0.0141650
950.713	0.0141529
950.791	0.0141986
950.869	0.0141165
950.947	0.0141399
951.025	0.0140942
951.103	0.0140726
951.182	0.0139399
951.260	0.0141500
951.338	0.0139780
951.416	0.0140483
951.494	0.0140590
951.572	0.0140584
951.650	0.0140262
951.728	0.0140107
951.807	0.0139904
951.885	0.0141299
951.963	0.0140703
952.041	0.0140749
952.119	0.0139124
952.197	0.0141162
952.275	0.0140093
952.353	0.0140469
952.432	0.0140810
952.510	0.0139335
952.588	0.0140661
952.666	0.0140099
952.744	0.0140801
952.822	0.0140124
952.900	0.0140834
952.978	0.0140683
953.057	0.0141013
953.135	0.0138869
953.213	0.0140058
953.291	0.0140607
953.369	0.0139934
953.447	0.0142889
953.525	0.0141918
953.603	0.0141812
953.682	0.0140896
953.760	0.0141608
953.838	0.0140595
953.916	0.0140555
953.994	0.0141199
954.072	0.0140886
954.150	0.0140897
954.228	0.0141496
954.307	0.0141492
954.385	0.0140793
954.463	0.0140248
954.541	0.0142145
954.619	0.0143050
954.697	0.0142065
954.775	0.0142392
954.853	0.0143847
954.932	0.0141679
955.010	0.0141129
955.088	0.0143575
955.166	0.0143601
955.244	0.0141747
955.322	0.0142014
955.400	0.0141011
955.478	0.0142513
955.557	0.0142233
955.635	0.0139967
955.713	0.0140662
955.791	0.0142039
955.869	0.0141992
955.947	0.0142403
956.025	0.0139525
956.103	0.0140791
956.182	0.0140699
956.260	0.0141533
956.338	0.0140101
956.416	0.0139362
956.494	0.0141420
956.572	0.0141559
956.650	0.0140685
956.728	0.0140972
956.807	0.0141558
956.885	0.0141969
956.963	0.0141419
957.041	0.0141260
957.119	0.0141452
957.197	0.0142303
957.275	0.0141026
957.353	0.0140029
957.432	0.0141347
957.510	0.0142311
957.588	0.0139781
957.666	0.0140818
957.744	0.0143208
957.822	0.0143364
957.900	0.0141957
957.978	0.0140519
958.057	0.0143540
958.135	0.0141991
958.213	0.0141978
958.291	0.0141499
958.369	0.0142259
958.447	0.0143259
958.525	0.0142212
958.603	0.0141867
958.682	0.0143138
958.760	0.0142731
958.838	0.0141483
958.916	0.0142586
958.994	0.0143227
959.072	0.0142133
959.150	0.0143172
959.228	0.0142248
959.307	0.0142072
959.385	0.0141170
959.463	0.0142535
959.541	0.0142061
959.619	0.0141305
959.697	0.0140419
959.775	0.0142495
959.853	0.0140514
959.932	0.0140216
960.010	0.0139214
960.088	0.0141227
960.166	0.0139423
960.244	0.0138325
960.322	0.0140723
960.400	0.0139558
960.478	0.0138641
960.557	0.0138632
960.635	0.0136855
960.713	0.0138006
960.791	0.0137934
960.869	0.0136403
960.947	0.0137952
961.025	0.0137708
961.103	0.0137756
961.182	0.0137971
961.260	0.0137019
961.338	0.0137994
961.416	0.0138125
961.494	0.0138378
961.572	0.0138549
961.650	0.0139313
961.728	0.0138545
961.807	0.0138093
961.885	0.0139363
961.963	0.0139174
962.041	0.0139606
962.119	0.0139581
962.197	0.0140590
962.275	0.0140092
962.353	0.0141145
962.432	0.0139302
962.510	0.0141866
962.588	0.0140106
962.666	0.0139792
962.744	0.0141451
962.822	0.0140591
962.900	0.0141628
962.978	0.0142007
963.057	0.0141722
963.135	0.0141968
963.213	0.0142155
963.291	0.0142225
963.369	0.0141536
963.447	0.0141316
963.525	0.0141692
963.603	0.0143789
963.682	0.0141419
963.760	0.0141904
963.838	0.0141466
963.916	0.0142635
963.994	0.0142467
964.072	0.0140925
964.150	0.0141073
964.228	0.0143152
964.307	0.0143053
964.385	0.0141998
964.463	0.0141963
964.541	0.0142007
964.619	0.0141850
964.697	0.0140915
964.775	0.0141644
964.853	0.0141267
964.932	0.0140702
965.010	0.0141338
965.088	0.0141272
965.166	0.0140939
965.244	0.0140847
965.322	0.0140269
965.400	0.0141284
965.478	0.0142052
965.557	0.0141769
965.635	0.0141012
965.713	0.0142745
965.791	0.0142574
965.869	0.0143895
965.947	0.0142786
966.025	0.0142654
966.103	0.0141479
966.182	0.0141834
966.260	0.0141763
966.338	0.0141802
966.416	0.0142982
966.494	0.0141358
966.572	0.0141420
966.650	0.0143972
966.728	0.0142690
966.807	0.0142596
966.885	0.0141815
966.963	0.0142479
967.041	0.0142048
967.119	0.0143320
967.197	0.0142307
967.275	0.0141887
967.353	0.0142892
967.432	0.0141830
967.510	0.0141767
967.588	0.0142301
967.666	0.0142713
967.744	0.0142465
967.822	0.0141816
967.900	0.0143448
967.978	0.0142953
968.057	0.0141309
968.135	0.0143626
968.213	0.0141479
968.291	0.0141946
968.369	0.0142566
968.447	0.0141283
968.525	0.0142311
968.603	0.0141946
968.682	0.0142604
968.760	0.0140900
968.838	0.0142590
968.916	0.0142352
968.994	0.0141646
969.072	0.0140343
969.150	0.0139729
969.228	0.0141888
969.307	0.0141966
969.385	0.0140774
969.463	0.0139760
969.541	0.0141072
969.619	0.0142987
969.697	0.0140932
969.775	0.0138855
969.853	0.0141708
969.932	0.0141424
