05/14/2022	19:41:31	Ver.	4.1	UNKNOWN
Optical Delay	650.009681	Delta X		0.078125	Sweeps	1	Scan Rate	0/0
Coordinates	Axis 1	NaN	Axis 2	NaN	Axis 3	NaN	Axis 4	NaN	Axis 5	NaN	Axis 6	0.000000
TX Power	0.000000	RX Power	0.000000

650.010	0.0140158
650.088	0.0141020
650.166	0.0139942
650.244	0.0140733
650.322	0.0141283
650.400	0.0141371
650.478	0.0141713
650.557	0.0140615
650.635	0.0142931
650.713	0.0140454
650.791	0.0140043
650.869	0.0140179
650.947	0.0140028
651.025	0.0139182
651.103	0.0139186
651.182	0.0138117
651.260	0.0138493
651.338	0.0138051
651.416	0.0139602
651.494	0.0139323
651.572	0.0139241
651.650	0.0139983
651.728	0.0139939
651.807	0.0140262
651.885	0.0140855
651.963	0.0141875
652.041	0.0141879
652.119	0.0143216
652.197	0.0143703
652.275	0.0143712
652.353	0.0144289
652.432	0.0144474
652.510	0.0144898
652.588	0.0143396
652.666	0.0143755
652.744	0.0144116
652.822	0.0142670
652.900	0.0141708
652.978	0.0141172
653.057	0.0142057
653.135	0.0141180
653.213	0.0140092
653.291	0.0138572
653.369	0.0139218
653.447	0.0138700
653.525	0.0138506
653.603	0.0138102
653.682	0.0137490
653.760	0.0139232
653.838	0.0138964
653.916	0.0139096
653.994	0.0137939
654.072	0.0139378
654.150	0.0141141
654.228	0.0140743
654.307	0.0140990
654.385	0.0142213
654.463	0.0141995
654.541	0.0142755
654.619	0.0142413
654.697	0.0141998
654.775	0.0143050
654.853	0.0143409
654.932	0.0142749
655.010	0.0142380
655.088	0.0141571
655.166	0.0141572
655.244	0.0140559
655.322	0.0139298
655.400	0.0139939
655.478	0.0139522
655.557	0.0136875
655.635	0.0137238
655.713	0.0137215
655.791	0.0136633
655.869	0.0134618
655.947	0.0134215
656.025	0.0134431
656.103	0.0133788
656.182	0.0134024
656.260	0.0134417
656.338	0.0136108
656.416	0.0135615
656.494	0.0137090
656.572	0.0137794
656.650	0.0140202
656.728	0.0140504
656.807	0.0143139
656.885	0.0144072
656.963	0.0145450
657.041	0.0147568
657.119	0.0146601
657.197	0.0149186
657.275	0.0148863
657.353	0.0149748
657.432	0.0148977
657.510	0.0146553
657.588	0.0149123
657.666	0.0148455
657.744	0.0146507
657.822	0.0145309
657.900	0.0143472
657.978	0.0140296
658.057	0.0139400
658.135	0.0137642
658.213	0.0135143
658.291	0.0134488
658.369	0.0133353
658.447	0.0130157
658.525	0.0129955
658.603	0.0129562
658.682	0.0128051
658.760	0.0129169
658.838	0.0129048
658.916	0.0126424
658.994	0.0129504
659.072	0.0129559
659.150	0.0130780
659.228	0.0131561
659.307	0.0133670
659.385	0.0133402
659.463	0.0135846
659.541	0.0137332
659.619	0.0139886
659.697	0.0142175
659.775	0.0145589
659.853	0.0146330
659.932	0.0148405
660.010	0.0149983
660.088	0.0150629
660.166	0.0151044
660.244	0.0152253
660.322	0.0152494
660.400	0.0153439
660.478	0.0153916
660.557	0.0152802
660.635	0.0152296
660.713	0.0151469
660.791	0.0151207
660.869	0.0148770
660.947	0.0147301
661.025	0.0146916
661.103	0.0145286
661.182	0.0144696
661.260	0.0142516
661.338	0.0141175
661.416	0.0140594
661.494	0.0141001
661.572	0.0140141
661.650	0.0138501
661.728	0.0137945
661.807	0.0137005
661.885	0.0135144
661.963	0.0133033
662.041	0.0133954
662.119	0.0133812
662.197	0.0131599
662.275	0.0129892
662.353	0.0130204
662.432	0.0129428
662.510	0.0126713
662.588	0.0126780
662.666	0.0125690
662.744	0.0124504
662.822	0.0124979
662.900	0.0124005
662.978	0.0123926
663.057	0.0124760
663.135	0.0125562
663.213	0.0126350
663.291	0.0127769
663.369	0.0129382
663.447	0.0130978
663.525	0.0135307
663.603	0.0136977
663.682	0.0141534
663.760	0.0144085
663.838	0.0148584
663.916	0.0152103
663.994	0.0155718
664.072	0.0160148
664.150	0.0162015
664.228	0.0164252
664.307	0.0168184
664.385	0.0170962
664.463	0.0172425
664.541	0.0173331
664.619	0.0175080
664.697	0.0174643
664.775	0.0173807
664.853	0.0173021
664.932	0.0171976
665.010	0.0167465
665.088	0.0164232
665.166	0.0163159
665.244	0.0159533
665.322	0.0153625
665.400	0.0147279
665.478	0.0143047
665.557	0.0136302
665.635	0.0132735
665.713	0.0125649
665.791	0.0120111
665.869	0.0116137
665.947	0.0109522
666.025	0.0107903
666.103	0.0104074
666.182	0.0101321
666.260	0.00984100
666.338	0.00970245
666.416	0.00971291
666.494	0.00983643
666.572	0.00990288
666.650	0.0100926
666.728	0.0104617
666.807	0.0107078
666.885	0.0110565
666.963	0.0114595
667.041	0.0120575
667.119	0.0124157
667.197	0.0129309
667.275	0.0134501
667.353	0.0138474
667.432	0.0143070
667.510	0.0149180
667.588	0.0153521
667.666	0.0156757
667.744	0.0160585
667.822	0.0164444
667.900	0.0166731
667.978	0.0171106
668.057	0.0174320
668.135	0.0176469
668.213	0.0178700
668.291	0.0178490
668.369	0.0179938
668.447	0.0179237
668.525	0.0179007
668.603	0.0178381
668.682	0.0175298
668.760	0.0172787
668.838	0.0170608
668.916	0.0169080
668.994	0.0164257
669.072	0.0162933
669.150	0.0158633
669.228	0.0155004
669.307	0.0152445
669.385	0.0151162
669.463	0.0146432
669.541	0.0142281
669.619	0.0140354
669.697	0.0137431
669.775	0.0133735
669.853	0.0129362
669.932	0.0126320
670.010	0.0122553
670.088	0.0118649
670.166	0.0115398
670.244	0.0110886
670.322	0.0108072
670.400	0.0104392
670.478	0.0100640
670.557	0.00977768
670.635	0.00972450
670.713	0.00950066
670.791	0.00943993
670.869	0.00953850
670.947	0.00961052
671.025	0.00987144
671.103	0.0101662
671.182	0.0103337
671.260	0.0104700
671.338	0.0109895
671.416	0.0117188
671.494	0.0118940
671.572	0.0123459
671.650	0.0128634
671.728	0.0134667
671.807	0.0139549
671.885	0.0143447
671.963	0.0149539
672.041	0.0155170
672.119	0.0160310
672.197	0.0164355
672.275	0.0169847
672.353	0.0175792
672.432	0.0179529
672.510	0.0184222
672.588	0.0184160
672.666	0.0186041
672.744	0.0187640
672.822	0.0189298
672.900	0.0189129
672.978	0.0188791
673.057	0.0186743
673.135	0.0185604
673.213	0.0183012
673.291	0.0178527
673.369	0.0174965
673.447	0.0172030
673.525	0.0166457
673.603	0.0160487
673.682	0.0155249
673.760	0.0152679
673.838	0.0145947
673.916	0.0141259
673.994	0.0134558
674.072	0.0130559
674.150	0.0125556
674.228	0.0119775
674.307	0.0115838
674.385	0.0113533
674.463	0.0108962
674.541	0.0105965
674.619	0.0103925
674.697	0.0104050
674.775	0.0102289
674.853	0.0100550
674.932	0.0100455
675.010	0.00988464
675.088	0.0101514
675.166	0.0101058
675.244	0.0104887
675.322	0.0106101
675.400	0.0107520
675.478	0.0110764
675.557	0.0113545
675.635	0.0117504
675.713	0.0121390
675.791	0.0125226
675.869	0.0129489
675.947	0.0134758
676.025	0.0138770
676.103	0.0142348
676.182	0.0147793
676.260	0.0151605
676.338	0.0155209
676.416	0.0158554
676.494	0.0162598
676.572	0.0165295
676.650	0.0167299
676.728	0.0167933
676.807	0.0169779
676.885	0.0171030
676.963	0.0170946
677.041	0.0173192
677.119	0.0172247
677.197	0.0171681
677.275	0.0171230
677.353	0.0168622
677.432	0.0167718
677.510	0.0165642
677.588	0.0163200
677.666	0.0160727
677.744	0.0158393
677.822	0.0154092
677.900	0.0150818
677.978	0.0147567
678.057	0.0143660
678.135	0.0142760
678.213	0.0140356
678.291	0.0136563
678.369	0.0134647
678.447	0.0131230
678.525	0.0130400
678.603	0.0127897
678.682	0.0127724
678.760	0.0126959
678.838	0.0124371
678.916	0.0123376
678.994	0.0123090
679.072	0.0123946
679.150	0.0124831
679.228	0.0124420
679.307	0.0125062
679.385	0.0128105
679.463	0.0128178
679.541	0.0129398
679.619	0.0129945
679.697	0.0133220
679.775	0.0134590
679.853	0.0135930
679.932	0.0138261
680.010	0.0137391
680.088	0.0139903
680.166	0.0141649
680.244	0.0142565
680.322	0.0141917
680.400	0.0140580
680.478	0.0141511
680.557	0.0142303
680.635	0.0143231
680.713	0.0142735
680.791	0.0142114
680.869	0.0140725
680.947	0.0140477
681.025	0.0140604
681.103	0.0140739
681.182	0.0139316
681.260	0.0138206
681.338	0.0139331
681.416	0.0136419
681.494	0.0134622
681.572	0.0133533
681.650	0.0132758
681.728	0.0132483
681.807	0.0131715
681.885	0.0131600
681.963	0.0130727
682.041	0.0131942
682.119	0.0131624
682.197	0.0131023
682.275	0.0132611
682.353	0.0132652
682.432	0.0134820
682.510	0.0136558
682.588	0.0137888
682.666	0.0140026
682.744	0.0141453
682.822	0.0143613
682.900	0.0147701
682.978	0.0149615
683.057	0.0151023
683.135	0.0153143
683.213	0.0154148
683.291	0.0156151
683.369	0.0157865
683.447	0.0159978
683.525	0.0160436
683.603	0.0160229
683.682	0.0160839
683.760	0.0162117
683.838	0.0162870
683.916	0.0162566
683.994	0.0159429
684.072	0.0159794
684.150	0.0160238
684.228	0.0158341
684.307	0.0156068
684.385	0.0154259
684.463	0.0152802
684.541	0.0149570
684.619	0.0145929
684.697	0.0144788
684.775	0.0142203
684.853	0.0139265
684.932	0.0135630
685.010	0.0133495
685.088	0.0131012
685.166	0.0128801
685.244	0.0127055
685.322	0.0124300
685.400	0.0124356
685.478	0.0122824
685.557	0.0121194
685.635	0.0121021
685.713	0.0120694
685.791	0.0119952
685.869	0.0120190
685.947	0.0122787
686.025	0.0124020
686.103	0.0123914
686.182	0.0125052
686.260	0.0125828
686.338	0.0128638
686.416	0.0127834
686.494	0.0128519
686.572	0.0129749
686.650	0.0132687
686.728	0.0132964
686.807	0.0132379
686.885	0.0134029
686.963	0.0134706
687.041	0.0137251
687.119	0.0136929
687.197	0.0138082
687.275	0.0140231
687.353	0.0141785
687.432	0.0140989
687.510	0.0141817
687.588	0.0143285
687.666	0.0144501
687.744	0.0145044
687.822	0.0145289
687.900	0.0146069
687.978	0.0146719
688.057	0.0147733
688.135	0.0148549
688.213	0.0151395
688.291	0.0150632
688.369	0.0151799
688.447	0.0152438
688.525	0.0153239
688.603	0.0155394
688.682	0.0155807
688.760	0.0158694
688.838	0.0156475
688.916	0.0159062
688.994	0.0160387
689.072	0.0158881
689.150	0.0160362
689.228	0.0158694
689.307	0.0158788
689.385	0.0157987
689.463	0.0157883
689.541	0.0154670
689.619	0.0152867
689.697	0.0154311
689.775	0.0150750
689.853	0.0148507
689.932	0.0147942
690.010	0.0146140
690.088	0.0143668
690.166	0.0141431
690.244	0.0139821
690.322	0.0137498
690.400	0.0135645
690.478	0.0133331
690.557	0.0132464
690.635	0.0130737
690.713	0.0128107
690.791	0.0126596
690.869	0.0126505
690.947	0.0125458
691.025	0.0123922
691.103	0.0122159
691.182	0.0122135
691.260	0.0121944
691.338	0.0122011
691.416	0.0121480
691.494	0.0120480
691.572	0.0121899
691.650	0.0123345
691.728	0.0122150
691.807	0.0122066
691.885	0.0124379
691.963	0.0126682
692.041	0.0127578
692.119	0.0128137
692.197	0.0127946
692.275	0.0129666
692.353	0.0131315
692.432	0.0133557
692.510	0.0135081
692.588	0.0136184
692.666	0.0139114
692.744	0.0139233
692.822	0.0140029
692.900	0.0142632
692.978	0.0145367
693.057	0.0148230
693.135	0.0147176
693.213	0.0149847
693.291	0.0152163
693.369	0.0153594
693.447	0.0154353
693.525	0.0156270
693.603	0.0154845
693.682	0.0157470
693.760	0.0159631
693.838	0.0160253
693.916	0.0160569
693.994	0.0162257
694.072	0.0161671
694.150	0.0162492
694.228	0.0160328
694.307	0.0160402
694.385	0.0160648
694.463	0.0161116
694.541	0.0158785
694.619	0.0156602
694.697	0.0154176
694.775	0.0152971
694.853	0.0150082
694.932	0.0147264
695.010	0.0142924
695.088	0.0142079
695.166	0.0138168
695.244	0.0134065
695.322	0.0131129
695.400	0.0130830
695.478	0.0128465
695.557	0.0125998
695.635	0.0124408
695.713	0.0124403
695.791	0.0122081
695.869	0.0123567
695.947	0.0122716
696.025	0.0123341
696.103	0.0125146
696.182	0.0125923
696.260	0.0129015
696.338	0.0130439
696.416	0.0132428
696.494	0.0134314
696.572	0.0137090
696.650	0.0139076
696.728	0.0141604
696.807	0.0144955
696.885	0.0146031
696.963	0.0147161
697.041	0.0148505
697.119	0.0151817
697.197	0.0151130
697.275	0.0151078
697.353	0.0149976
697.432	0.0149270
697.510	0.0148612
697.588	0.0147845
697.666	0.0147197
697.744	0.0144207
697.822	0.0142154
697.900	0.0141155
697.978	0.0137228
698.057	0.0136294
698.135	0.0134681
698.213	0.0133063
698.291	0.0131557
698.369	0.0130589
698.447	0.0130473
698.525	0.0128876
698.603	0.0129091
698.682	0.0129230
698.760	0.0129607
698.838	0.0131261
698.916	0.0131548
698.994	0.0134206
699.072	0.0134412
699.150	0.0136076
699.228	0.0139628
699.307	0.0140594
699.385	0.0141423
699.463	0.0143853
699.541	0.0146055
699.619	0.0146317
699.697	0.0149644
699.775	0.0150339
699.853	0.0153039
699.932	0.0153352
700.010	0.0154040
700.088	0.0152515
700.166	0.0153614
700.244	0.0155102
700.322	0.0154356
700.400	0.0152645
700.478	0.0153573
700.557	0.0152287
700.635	0.0150600
700.713	0.0150093
700.791	0.0148312
700.869	0.0147256
700.947	0.0148255
701.025	0.0146084
701.103	0.0146120
701.182	0.0145004
701.260	0.0143104
701.338	0.0143833
701.416	0.0142650
701.494	0.0143449
701.572	0.0142927
701.650	0.0141075
701.728	0.0140755
701.807	0.0140858
701.885	0.0140021
701.963	0.0138945
702.041	0.0137870
702.119	0.0138726
702.197	0.0138635
702.275	0.0136911
702.353	0.0135208
702.432	0.0135555
702.510	0.0135570
702.588	0.0133268
702.666	0.0133025
702.744	0.0133447
702.822	0.0132081
702.900	0.0130885
702.978	0.0129133
703.057	0.0128632
703.135	0.0130657
703.213	0.0129033
703.291	0.0127834
703.369	0.0128141
703.447	0.0131581
703.525	0.0129224
703.603	0.0129781
703.682	0.0131606
703.760	0.0132599
703.838	0.0132697
703.916	0.0134340
703.994	0.0136313
704.072	0.0137646
704.150	0.0139255
704.228	0.0141032
704.307	0.0142757
704.385	0.0144196
704.463	0.0142659
704.541	0.0145845
704.619	0.0146039
704.697	0.0149017
704.775	0.0147617
704.853	0.0147446
704.932	0.0150305
705.010	0.0150143
705.088	0.0149994
705.166	0.0150499
705.244	0.0150694
705.322	0.0149725
705.400	0.0149343
705.478	0.0150022
705.557	0.0149679
705.635	0.0148342
705.713	0.0147135
705.791	0.0147491
705.869	0.0146407
705.947	0.0144666
706.025	0.0143361
706.103	0.0141292
706.182	0.0142302
706.260	0.0140205
706.338	0.0139095
706.416	0.0138083
706.494	0.0137623
706.572	0.0137988
706.650	0.0137764
706.728	0.0138217
706.807	0.0137450
706.885	0.0139494
706.963	0.0138808
707.041	0.0138744
707.119	0.0139554
707.197	0.0140393
707.275	0.0142130
707.353	0.0141451
707.432	0.0141490
707.510	0.0141755
707.588	0.0143095
707.666	0.0144623
707.744	0.0144685
707.822	0.0145661
707.900	0.0146365
707.978	0.0147471
708.057	0.0147746
708.135	0.0148976
708.213	0.0148151
708.291	0.0147286
708.369	0.0146673
708.447	0.0148734
708.525	0.0146819
708.603	0.0146899
708.682	0.0146744
708.760	0.0144991
708.838	0.0146345
708.916	0.0143963
708.994	0.0143680
709.072	0.0144231
709.150	0.0143533
709.228	0.0140832
709.307	0.0140741
709.385	0.0142094
709.463	0.0139716
709.541	0.0139273
709.619	0.0139291
709.697	0.0137509
709.775	0.0138130
709.853	0.0138629
709.932	0.0139137
710.010	0.0136402
710.088	0.0137019
710.166	0.0135275
710.244	0.0136030
710.322	0.0135486
710.400	0.0133098
710.478	0.0133268
710.557	0.0132812
710.635	0.0131895
710.713	0.0131777
710.791	0.0131187
710.869	0.0129878
710.947	0.0129829
711.025	0.0129950
711.103	0.0130110
711.182	0.0130115
711.260	0.0129961
711.338	0.0131378
711.416	0.0131577
711.494	0.0132568
711.572	0.0133127
711.650	0.0135145
711.728	0.0137068
711.807	0.0139993
711.885	0.0140466
711.963	0.0141935
712.041	0.0145831
712.119	0.0146817
712.197	0.0148463
712.275	0.0149905
712.353	0.0151164
712.432	0.0152068
712.510	0.0154794
712.588	0.0157328
712.666	0.0156676
712.744	0.0157732
712.822	0.0158495
712.900	0.0157349
712.978	0.0158582
713.057	0.0158206
713.135	0.0157708
713.213	0.0158561
713.291	0.0157525
713.369	0.0154943
713.447	0.0154396
713.525	0.0152196
713.603	0.0149969
713.682	0.0148347
713.760	0.0146727
713.838	0.0143772
713.916	0.0142598
713.994	0.0140977
714.072	0.0138940
714.150	0.0136269
714.228	0.0134654
714.307	0.0133425
714.385	0.0130189
714.463	0.0128139
714.541	0.0127995
714.619	0.0125718
714.697	0.0123782
714.775	0.0122511
714.853	0.0122349
714.932	0.0122475
715.010	0.0119566
715.088	0.0119328
715.166	0.0121463
715.244	0.0120919
715.322	0.0123022
715.400	0.0122057
715.478	0.0124142
715.557	0.0125718
715.635	0.0127568
715.713	0.0129590
715.791	0.0130978
715.869	0.0131683
715.947	0.0134518
716.025	0.0135565
716.103	0.0138441
716.182	0.0139948
716.260	0.0141773
716.338	0.0143696
716.416	0.0144918
716.494	0.0145289
716.572	0.0145771
716.650	0.0146245
716.728	0.0148305
716.807	0.0150844
716.885	0.0149503
716.963	0.0150032
717.041	0.0151691
717.119	0.0152818
717.197	0.0154260
717.275	0.0152489
717.353	0.0153265
717.432	0.0154589
717.510	0.0155440
717.588	0.0155296
717.666	0.0153934
717.744	0.0154494
717.822	0.0152091
717.900	0.0151913
717.978	0.0151456
718.057	0.0151633
718.135	0.0153188
718.213	0.0150769
718.291	0.0150400
718.369	0.0147761
718.447	0.0146471
718.525	0.0147777
718.603	0.0147574
718.682	0.0145756
718.760	0.0143775
718.838	0.0144249
718.916	0.0142788
718.994	0.0142103
719.072	0.0141828
719.150	0.0140934
719.228	0.0139340
719.307	0.0138396
719.385	0.0138360
719.463	0.0136185
719.541	0.0136406
719.619	0.0134297
719.697	0.0133994
719.775	0.0132983
719.853	0.0131360
719.932	0.0131364
720.010	0.0131599
720.088	0.0129906
720.166	0.0129581
720.244	0.0129787
720.322	0.0130518
720.400	0.0131264
720.478	0.0132928
720.557	0.0132517
720.635	0.0133334
720.713	0.0133855
720.791	0.0134464
720.869	0.0135266
720.947	0.0137973
721.025	0.0139606
721.103	0.0139160
721.182	0.0139570
721.260	0.0140754
721.338	0.0143360
721.416	0.0142667
721.494	0.0144549
721.572	0.0145844
721.650	0.0146593
721.728	0.0145261
721.807	0.0146375
721.885	0.0146360
721.963	0.0146188
722.041	0.0146417
722.119	0.0146738
722.197	0.0146272
722.275	0.0146537
722.353	0.0145618
722.432	0.0147634
722.510	0.0146883
722.588	0.0146349
722.666	0.0145890
722.744	0.0147141
722.822	0.0146180
722.900	0.0145779
722.978	0.0144601
723.057	0.0147105
723.135	0.0145242
723.213	0.0144395
723.291	0.0146387
723.369	0.0145716
723.447	0.0144906
723.525	0.0144733
723.603	0.0144984
723.682	0.0142903
723.760	0.0143399
723.838	0.0143084
723.916	0.0143040
723.994	0.0143114
724.072	0.0142546
724.150	0.0141751
724.228	0.0140993
724.307	0.0140548
724.385	0.0140630
724.463	0.0141545
724.541	0.0141437
724.619	0.0140590
724.697	0.0139961
724.775	0.0139883
724.853	0.0138495
724.932	0.0137786
725.010	0.0139227
725.088	0.0136246
725.166	0.0137482
725.244	0.0137113
725.322	0.0136606
725.400	0.0136731
725.478	0.0137096
725.557	0.0137293
725.635	0.0136897
725.713	0.0137925
725.791	0.0140010
725.869	0.0139581
725.947	0.0140173
726.025	0.0140785
726.103	0.0141034
726.182	0.0141573
726.260	0.0141767
726.338	0.0140311
726.416	0.0140563
726.494	0.0141164
726.572	0.0140185
726.650	0.0139789
726.728	0.0140210
726.807	0.0138050
726.885	0.0139001
726.963	0.0138011
727.041	0.0138010
727.119	0.0139088
727.197	0.0138992
727.275	0.0137935
727.353	0.0139251
727.432	0.0139222
727.510	0.0139441
727.588	0.0141479
727.666	0.0140726
727.744	0.0141708
727.822	0.0143201
727.900	0.0142361
727.978	0.0143552
728.057	0.0142797
728.135	0.0144333
728.213	0.0143919
728.291	0.0144145
728.369	0.0144540
728.447	0.0143571
728.525	0.0144748
728.603	0.0144273
728.682	0.0144528
728.760	0.0144810
728.838	0.0143864
728.916	0.0144630
728.994	0.0145776
729.072	0.0143156
729.150	0.0144450
729.228	0.0143189
729.307	0.0143797
729.385	0.0141865
729.463	0.0141199
729.541	0.0141269
729.619	0.0142239
729.697	0.0140619
729.775	0.0140559
729.853	0.0140526
729.932	0.0138561
730.010	0.0138436
730.088	0.0137766
730.166	0.0138205
730.244	0.0138255
730.322	0.0138155
730.400	0.0137218
730.478	0.0136885
730.557	0.0139171
730.635	0.0137379
730.713	0.0139130
730.791	0.0137959
730.869	0.0138575
730.947	0.0139073
731.025	0.0140708
731.103	0.0141196
731.182	0.0140720
731.260	0.0141408
731.338	0.0141192
731.416	0.0142513
731.494	0.0142804
731.572	0.0143466
731.650	0.0143593
731.728	0.0142981
731.807	0.0143813
731.885	0.0142900
731.963	0.0141337
732.041	0.0142789
732.119	0.0141744
732.197	0.0142027
732.275	0.0142178
732.353	0.0140181
732.432	0.0141642
732.510	0.0140677
732.588	0.0138461
732.666	0.0137916
732.744	0.0139601
732.822	0.0138551
732.900	0.0138789
732.978	0.0137082
733.057	0.0138184
733.135	0.0136163
733.213	0.0136872
733.291	0.0138071
733.369	0.0138024
733.447	0.0136536
733.525	0.0138359
733.603	0.0137604
733.682	0.0137634
733.760	0.0137759
733.838	0.0139627
733.916	0.0138764
733.994	0.0140038
734.072	0.0141201
734.150	0.0139513
734.228	0.0139522
734.307	0.0139322
734.385	0.0140466
734.463	0.0140842
734.541	0.0141702
734.619	0.0140712
734.697	0.0139395
734.775	0.0140216
734.853	0.0141465
734.932	0.0141354
735.010	0.0141380
735.088	0.0143111
735.166	0.0141771
735.244	0.0143002
735.322	0.0142462
735.400	0.0140366
735.478	0.0141355
735.557	0.0142983
735.635	0.0142528
735.713	0.0142426
735.791	0.0142746
735.869	0.0143257
735.947	0.0142281
736.025	0.0142237
736.103	0.0143553
736.182	0.0142216
736.260	0.0141608
736.338	0.0141915
736.416	0.0141802
736.494	0.0142823
736.572	0.0143521
736.650	0.0143118
736.728	0.0143510
736.807	0.0143020
736.885	0.0143008
736.963	0.0144073
737.041	0.0144091
737.119	0.0145010
737.197	0.0144308
737.275	0.0143559
737.353	0.0145348
737.432	0.0143900
737.510	0.0144614
737.588	0.0145170
737.666	0.0143771
737.744	0.0144249
737.822	0.0145779
737.900	0.0145255
737.978	0.0144795
738.057	0.0145113
738.135	0.0146068
738.213	0.0145776
738.291	0.0146172
738.369	0.0144593
738.447	0.0144323
738.525	0.0144331
738.603	0.0143079
738.682	0.0143735
738.760	0.0143548
738.838	0.0144469
738.916	0.0143976
738.994	0.0143026
739.072	0.0142790
739.150	0.0142535
739.228	0.0142135
739.307	0.0141298
739.385	0.0140528
739.463	0.0140208
739.541	0.0139381
739.619	0.0139671
739.697	0.0138718
739.775	0.0138788
739.853	0.0137112
739.932	0.0136941
740.010	0.0136569
740.088	0.0136274
740.166	0.0136266
740.244	0.0134752
740.322	0.0135839
740.400	0.0134809
740.478	0.0135458
740.557	0.0136047
740.635	0.0136187
740.713	0.0136500
740.791	0.0135577
740.869	0.0137438
740.947	0.0136458
741.025	0.0136259
741.103	0.0137336
741.182	0.0137969
741.260	0.0136291
741.338	0.0138103
741.416	0.0138700
741.494	0.0139128
741.572	0.0139026
741.650	0.0138602
741.728	0.0139206
741.807	0.0138522
741.885	0.0139097
741.963	0.0138911
742.041	0.0140492
742.119	0.0140613
742.197	0.0141055
742.275	0.0142366
742.353	0.0142254
742.432	0.0141793
742.510	0.0142033
742.588	0.0142850
742.666	0.0144118
742.744	0.0143256
742.822	0.0143884
742.900	0.0143835
742.978	0.0143185
743.057	0.0144303
743.135	0.0145264
743.213	0.0146001
743.291	0.0144583
743.369	0.0145202
743.447	0.0145050
743.525	0.0145573
743.603	0.0145834
743.682	0.0147193
743.760	0.0147256
743.838	0.0146463
743.916	0.0146526
743.994	0.0145753
744.072	0.0144667
744.150	0.0146770
744.228	0.0147165
744.307	0.0144533
744.385	0.0144792
744.463	0.0144731
744.541	0.0145110
744.619	0.0143793
744.697	0.0143459
744.775	0.0143416
744.853	0.0142110
744.932	0.0141887
745.010	0.0140289
745.088	0.0140510
745.166	0.0139523
745.244	0.0140996
745.322	0.0138895
745.400	0.0139132
745.478	0.0140305
745.557	0.0140264
745.635	0.0138117
745.713	0.0139027
745.791	0.0138987
745.869	0.0138037
745.947	0.0137474
746.025	0.0135798
746.103	0.0136666
746.182	0.0136832
746.260	0.0136714
746.338	0.0136110
746.416	0.0135249
746.494	0.0135787
746.572	0.0135829
746.650	0.0138037
746.728	0.0135555
746.807	0.0137368
746.885	0.0136935
746.963	0.0137480
747.041	0.0136763
747.119	0.0137320
747.197	0.0137546
747.275	0.0138468
747.353	0.0137644
747.432	0.0138094
747.510	0.0138063
747.588	0.0139313
747.666	0.0139846
747.744	0.0140076
747.822	0.0138954
747.900	0.0141692
747.978	0.0141400
748.057	0.0142035
748.135	0.0142952
748.213	0.0143332
748.291	0.0143782
748.369	0.0145258
748.447	0.0144425
748.525	0.0144651
748.603	0.0145872
748.682	0.0147129
748.760	0.0147334
748.838	0.0147326
748.916	0.0147712
748.994	0.0147829
749.072	0.0147645
749.150	0.0147419
749.228	0.0147601
749.307	0.0147071
749.385	0.0145694
749.463	0.0145820
749.541	0.0146811
749.619	0.0144865
749.697	0.0142562
749.775	0.0144525
749.853	0.0142200
749.932	0.0142000
750.010	0.0140311
750.088	0.0140672
750.166	0.0139272
750.244	0.0138598
750.322	0.0138821
750.400	0.0137720
750.478	0.0136243
750.557	0.0136767
750.635	0.0137313
750.713	0.0137910
750.791	0.0137054
750.869	0.0138121
750.947	0.0138528
751.025	0.0137614
751.103	0.0137685
751.182	0.0138734
751.260	0.0138805
751.338	0.0139716
751.416	0.0138428
751.494	0.0139594
751.572	0.0139090
751.650	0.0139918
751.728	0.0139464
751.807	0.0139816
751.885	0.0138388
751.963	0.0139312
752.041	0.0140506
752.119	0.0140395
752.197	0.0139130
752.275	0.0138721
752.353	0.0137331
752.432	0.0139048
752.510	0.0136961
752.588	0.0135849
752.666	0.0137931
752.744	0.0137706
752.822	0.0135477
752.900	0.0137632
752.978	0.0138512
753.057	0.0137613
753.135	0.0136852
753.213	0.0139606
753.291	0.0138755
753.369	0.0139272
753.447	0.0139203
753.525	0.0138889
753.603	0.0139054
753.682	0.0140150
753.760	0.0140385
753.838	0.0141662
753.916	0.0140998
753.994	0.0140520
754.072	0.0138427
754.150	0.0138164
754.228	0.0137760
754.307	0.0138439
754.385	0.0138414
754.463	0.0136774
754.541	0.0135948
754.619	0.0135916
754.697	0.0135177
754.775	0.0135961
754.853	0.0134944
754.932	0.0134314
755.010	0.0134673
755.088	0.0135737
755.166	0.0135214
755.244	0.0134956
755.322	0.0135984
755.400	0.0136452
755.478	0.0137066
755.557	0.0136575
755.635	0.0139159
755.713	0.0138290
755.791	0.0140128
755.869	0.0142235
755.947	0.0141694
756.025	0.0143598
756.103	0.0144063
756.182	0.0143184
756.260	0.0144984
756.338	0.0146471
756.416	0.0145601
756.494	0.0145347
756.572	0.0147639
756.650	0.0147899
756.728	0.0147083
756.807	0.0147700
756.885	0.0148518
756.963	0.0146445
757.041	0.0146206
757.119	0.0147458
757.197	0.0148256
757.275	0.0147768
757.353	0.0147661
757.432	0.0145461
757.510	0.0144075
757.588	0.0148365
757.666	0.0145270
757.744	0.0144048
757.822	0.0143345
757.900	0.0141420
757.978	0.0143356
758.057	0.0144220
758.135	0.0142734
758.213	0.0141090
758.291	0.0141539
758.369	0.0141764
758.447	0.0141712
758.525	0.0140884
758.603	0.0138767
758.682	0.0138997
758.760	0.0139275
758.838	0.0138255
758.916	0.0136134
758.994	0.0138712
759.072	0.0137100
759.150	0.0137084
759.228	0.0136904
759.307	0.0135411
759.385	0.0136520
759.463	0.0135769
759.541	0.0135686
759.619	0.0135308
759.697	0.0135284
759.775	0.0136979
759.853	0.0136996
759.932	0.0136249
760.010	0.0136387
760.088	0.0137592
760.166	0.0137553
760.244	0.0137202
760.322	0.0138390
760.400	0.0138897
760.478	0.0140003
760.557	0.0140083
760.635	0.0138691
760.713	0.0139548
760.791	0.0141348
760.869	0.0140931
760.947	0.0141024
761.025	0.0141352
761.103	0.0141177
761.182	0.0142026
761.260	0.0142939
761.338	0.0141704
761.416	0.0143373
761.494	0.0143972
761.572	0.0143262
761.650	0.0144122
761.728	0.0143911
761.807	0.0141952
761.885	0.0141708
761.963	0.0141106
762.041	0.0142947
762.119	0.0142131
762.197	0.0141852
762.275	0.0140695
762.353	0.0141470
762.432	0.0140452
762.510	0.0141404
762.588	0.0139832
762.666	0.0139433
762.744	0.0139471
762.822	0.0139306
762.900	0.0139240
762.978	0.0138641
763.057	0.0138565
763.135	0.0139504
763.213	0.0138839
763.291	0.0139195
763.369	0.0139499
763.447	0.0139174
763.525	0.0139280
763.603	0.0139040
763.682	0.0140102
763.760	0.0139977
763.838	0.0140057
763.916	0.0142089
763.994	0.0143434
764.072	0.0141393
764.150	0.0142363
764.228	0.0142857
764.307	0.0142598
764.385	0.0143414
764.463	0.0143707
764.541	0.0144695
764.619	0.0144953
764.697	0.0145816
764.775	0.0146592
764.853	0.0145608
764.932	0.0147501
765.010	0.0146524
765.088	0.0147634
765.166	0.0146916
765.244	0.0144888
765.322	0.0146687
765.400	0.0146206
765.478	0.0147052
765.557	0.0146675
765.635	0.0145618
765.713	0.0144322
765.791	0.0143119
765.869	0.0144346
765.947	0.0143384
766.025	0.0142669
766.103	0.0144160
766.182	0.0141794
766.260	0.0141747
766.338	0.0140495
766.416	0.0138457
766.494	0.0140592
766.572	0.0138839
766.650	0.0138067
766.728	0.0138183
766.807	0.0136579
766.885	0.0136505
766.963	0.0136006
767.041	0.0134762
767.119	0.0135381
767.197	0.0135215
767.275	0.0133934
767.353	0.0135042
767.432	0.0132493
767.510	0.0132707
767.588	0.0134361
767.666	0.0133730
767.744	0.0133500
767.822	0.0134143
767.900	0.0133656
767.978	0.0134203
768.057	0.0134058
768.135	0.0136203
768.213	0.0134743
768.291	0.0135250
768.369	0.0137045
768.447	0.0138322
768.525	0.0139401
768.603	0.0139191
768.682	0.0140215
768.760	0.0141338
768.838	0.0142525
768.916	0.0142680
768.994	0.0144524
769.072	0.0145532
769.150	0.0145666
769.228	0.0146801
769.307	0.0148305
769.385	0.0148302
769.463	0.0147244
769.541	0.0148578
769.619	0.0149123
769.697	0.0147399
769.775	0.0149093
769.853	0.0149008
769.932	0.0148351
770.010	0.0148887
770.088	0.0148557
770.166	0.0147472
770.244	0.0145952
770.322	0.0146323
770.400	0.0144602
770.478	0.0143649
770.557	0.0142634
770.635	0.0141087
770.713	0.0140239
770.791	0.0139416
770.869	0.0138722
770.947	0.0138508
771.025	0.0136281
771.103	0.0137226
771.182	0.0135658
771.260	0.0135040
771.338	0.0135035
771.416	0.0133729
771.494	0.0134061
771.572	0.0133709
771.650	0.0133653
771.728	0.0133799
771.807	0.0133151
771.885	0.0135413
771.963	0.0133997
772.041	0.0135113
772.119	0.0134981
772.197	0.0136234
772.275	0.0137150
772.353	0.0136069
772.432	0.0136810
772.510	0.0138744
772.588	0.0138615
772.666	0.0140283
772.744	0.0140749
772.822	0.0140197
772.900	0.0141090
772.978	0.0142544
773.057	0.0142540
773.135	0.0141204
773.213	0.0143964
773.291	0.0143450
773.369	0.0143488
773.447	0.0143342
773.525	0.0143861
773.603	0.0144150
773.682	0.0144697
773.760	0.0142798
773.838	0.0143459
773.916	0.0145084
773.994	0.0143794
774.072	0.0142137
774.150	0.0141730
774.228	0.0141599
774.307	0.0142490
774.385	0.0142224
774.463	0.0142467
774.541	0.0140931
774.619	0.0139606
774.697	0.0139336
774.775	0.0139950
774.853	0.0138995
774.932	0.0139714
775.010	0.0137656
775.088	0.0137625
775.166	0.0136692
775.244	0.0137296
775.322	0.0139317
775.400	0.0137724
775.478	0.0136806
775.557	0.0137019
775.635	0.0137586
775.713	0.0137264
775.791	0.0138660
775.869	0.0139236
775.947	0.0137704
776.025	0.0138511
776.103	0.0139104
776.182	0.0139114
776.260	0.0140102
776.338	0.0140586
776.416	0.0140704
776.494	0.0141016
776.572	0.0141993
776.650	0.0143029
776.728	0.0143797
776.807	0.0142392
776.885	0.0141964
776.963	0.0144550
777.041	0.0144659
777.119	0.0145230
777.197	0.0145087
777.275	0.0144923
777.353	0.0145432
777.432	0.0146840
777.510	0.0145464
777.588	0.0145132
777.666	0.0146404
777.744	0.0144915
777.822	0.0144554
777.900	0.0144288
777.978	0.0144670
778.057	0.0144555
778.135	0.0145399
778.213	0.0143854
778.291	0.0143034
778.369	0.0143365
778.447	0.0143297
778.525	0.0143346
778.603	0.0142432
778.682	0.0142909
778.760	0.0141981
778.838	0.0142647
778.916	0.0141951
778.994	0.0142187
779.072	0.0141918
779.150	0.0141704
779.228	0.0140665
779.307	0.0141213
779.385	0.0140414
779.463	0.0140880
779.541	0.0141116
779.619	0.0138936
779.697	0.0139677
779.775	0.0140475
779.853	0.0141468
779.932	0.0141769
780.010	0.0139558
780.088	0.0140800
780.166	0.0140290
780.244	0.0138733
780.322	0.0138819
780.400	0.0139582
780.478	0.0138612
780.557	0.0138512
780.635	0.0138586
780.713	0.0139758
780.791	0.0139850
780.869	0.0137718
780.947	0.0138152
781.025	0.0137955
781.103	0.0138586
781.182	0.0139771
781.260	0.0137626
781.338	0.0137930
781.416	0.0138594
781.494	0.0137273
781.572	0.0137460
781.650	0.0136883
781.728	0.0138590
781.807	0.0137378
781.885	0.0137450
781.963	0.0136523
782.041	0.0137075
782.119	0.0136643
782.197	0.0136910
782.275	0.0137073
782.353	0.0136463
782.432	0.0137810
782.510	0.0136137
782.588	0.0136911
782.666	0.0136495
782.744	0.0137164
782.822	0.0135742
782.900	0.0137282
782.978	0.0135683
783.057	0.0137061
783.135	0.0137239
783.213	0.0137193
783.291	0.0135886
783.369	0.0137833
783.447	0.0137004
783.525	0.0137223
783.603	0.0138109
783.682	0.0138489
783.760	0.0138808
783.838	0.0139193
783.916	0.0139350
783.994	0.0139622
784.072	0.0141113
784.150	0.0139552
784.228	0.0141496
784.307	0.0141273
784.385	0.0140910
784.463	0.0141535
784.541	0.0143692
784.619	0.0144008
784.697	0.0143430
784.775	0.0142791
784.853	0.0144421
784.932	0.0146672
785.010	0.0145111
785.088	0.0146539
785.166	0.0146771
785.244	0.0146149
785.322	0.0146888
785.400	0.0146146
785.478	0.0147746
785.557	0.0146796
785.635	0.0148302
785.713	0.0146991
785.791	0.0148077
785.869	0.0148715
785.947	0.0147729
786.025	0.0148250
786.103	0.0146744
786.182	0.0146207
786.260	0.0146574
786.338	0.0146600
786.416	0.0147147
786.494	0.0145187
786.572	0.0145309
786.650	0.0144773
786.728	0.0143304
786.807	0.0143009
786.885	0.0141547
786.963	0.0140597
787.041	0.0140441
787.119	0.0139319
787.197	0.0138992
787.275	0.0138003
787.353	0.0138171
787.432	0.0137366
787.510	0.0135487
787.588	0.0134967
787.666	0.0137216
787.744	0.0135237
787.822	0.0134455
787.900	0.0135828
787.978	0.0134692
788.057	0.0133518
788.135	0.0134733
788.213	0.0134363
788.291	0.0134299
788.369	0.0135604
788.447	0.0135820
788.525	0.0138139
788.603	0.0137822
788.682	0.0135947
788.760	0.0136633
788.838	0.0138138
788.916	0.0137319
788.994	0.0137013
789.072	0.0138213
789.150	0.0139615
789.228	0.0138409
789.307	0.0139410
789.385	0.0139320
789.463	0.0139923
789.541	0.0140443
789.619	0.0140914
789.697	0.0140891
789.775	0.0142480
789.853	0.0142260
789.932	0.0143690
790.010	0.0145063
790.088	0.0145618
790.166	0.0145923
790.244	0.0145713
790.322	0.0147285
790.400	0.0148350
790.478	0.0147236
790.557	0.0147912
790.635	0.0147722
790.713	0.0147469
790.791	0.0147027
790.869	0.0148200
790.947	0.0147878
791.025	0.0146434
791.103	0.0147132
791.182	0.0147466
791.260	0.0147302
791.338	0.0149132
791.416	0.0148600
791.494	0.0146838
791.572	0.0147144
791.650	0.0147363
791.728	0.0145386
791.807	0.0146799
791.885	0.0146733
791.963	0.0143822
792.041	0.0143576
792.119	0.0143832
792.197	0.0142692
792.275	0.0143411
792.353	0.0141727
792.432	0.0140319
792.510	0.0140718
792.588	0.0139291
792.666	0.0139853
792.744	0.0139249
792.822	0.0139974
792.900	0.0138656
792.978	0.0138498
793.057	0.0137953
793.135	0.0140437
793.213	0.0138951
793.291	0.0137851
793.369	0.0139575
793.447	0.0139218
793.525	0.0140469
793.603	0.0141251
793.682	0.0141536
793.760	0.0141253
793.838	0.0142905
793.916	0.0141080
793.994	0.0140674
794.072	0.0139605
794.150	0.0138919
794.228	0.0139457
794.307	0.0138110
794.385	0.0137058
794.463	0.0136642
794.541	0.0136674
794.619	0.0136674
794.697	0.0135851
794.775	0.0136550
794.853	0.0136281
794.932	0.0136881
795.010	0.0137658
795.088	0.0137196
795.166	0.0136028
795.244	0.0137366
795.322	0.0137724
795.400	0.0137671
795.478	0.0138594
795.557	0.0138665
795.635	0.0138106
795.713	0.0139589
795.791	0.0139363
795.869	0.0140918
795.947	0.0142043
796.025	0.0140671
796.103	0.0140393
796.182	0.0140402
796.260	0.0140207
796.338	0.0141853
796.416	0.0142309
796.494	0.0140733
796.572	0.0141466
796.650	0.0141911
796.728	0.0143378
796.807	0.0141702
796.885	0.0143546
796.963	0.0143850
797.041	0.0143231
797.119	0.0143939
797.197	0.0144389
797.275	0.0144732
797.353	0.0145010
797.432	0.0145019
797.510	0.0145453
797.588	0.0144871
797.666	0.0144974
797.744	0.0144400
797.822	0.0143799
797.900	0.0143961
797.978	0.0143994
798.057	0.0143459
798.135	0.0144395
798.213	0.0143194
798.291	0.0144126
798.369	0.0143939
798.447	0.0143149
798.525	0.0142736
798.603	0.0140822
798.682	0.0141755
798.760	0.0141386
798.838	0.0140820
798.916	0.0139600
798.994	0.0138004
799.072	0.0139099
799.150	0.0138776
799.228	0.0139162
799.307	0.0138734
799.385	0.0140914
799.463	0.0140566
799.541	0.0141448
799.619	0.0140658
799.697	0.0142678
799.775	0.0143539
799.853	0.0142681
799.932	0.0143589
800.010	0.0144237
800.088	0.0144304
800.166	0.0144347
800.244	0.0142956
800.322	0.0143546
800.400	0.0143794
800.478	0.0144159
800.557	0.0142781
800.635	0.0142796
800.713	0.0143218
800.791	0.0143571
800.869	0.0144682
800.947	0.0142976
801.025	0.0142693
801.103	0.0145071
801.182	0.0143436
801.260	0.0144834
801.338	0.0145094
801.416	0.0145903
801.494	0.0146947
801.572	0.0145726
801.650	0.0146809
801.728	0.0144862
801.807	0.0146674
801.885	0.0146729
801.963	0.0145214
802.041	0.0145671
802.119	0.0145708
802.197	0.0144333
802.275	0.0141843
802.353	0.0142865
802.432	0.0141952
802.510	0.0140511
802.588	0.0140322
802.666	0.0139419
802.744	0.0140205
802.822	0.0139218
802.900	0.0138798
802.978	0.0138960
803.057	0.0138189
803.135	0.0139241
803.213	0.0137980
803.291	0.0140590
803.369	0.0138130
803.447	0.0137439
803.525	0.0138975
803.603	0.0138458
803.682	0.0139320
803.760	0.0138144
803.838	0.0140285
803.916	0.0140252
803.994	0.0140617
804.072	0.0140999
804.150	0.0138869
804.228	0.0138793
804.307	0.0140279
804.385	0.0139067
804.463	0.0137280
804.541	0.0138355
804.619	0.0138072
804.697	0.0136546
804.775	0.0135941
804.853	0.0137303
804.932	0.0137054
805.010	0.0136818
805.088	0.0137048
805.166	0.0139067
805.244	0.0138784
805.322	0.0141491
805.400	0.0141957
805.478	0.0142944
805.557	0.0144283
805.635	0.0144324
805.713	0.0144160
805.791	0.0144257
805.869	0.0143452
805.947	0.0143892
806.025	0.0142777
806.103	0.0142969
806.182	0.0142194
806.260	0.0141904
806.338	0.0142241
806.416	0.0140630
806.494	0.0141438
806.572	0.0141425
806.650	0.0140937
806.728	0.0141303
806.807	0.0141961
806.885	0.0143420
806.963	0.0143284
807.041	0.0141657
807.119	0.0142274
807.197	0.0142460
807.275	0.0141373
807.353	0.0141446
807.432	0.0140212
807.510	0.0139203
807.588	0.0140366
807.666	0.0140233
807.744	0.0140620
807.822	0.0137935
807.900	0.0138933
807.978	0.0139394
808.057	0.0140522
808.135	0.0140706
808.213	0.0139283
808.291	0.0139728
808.369	0.0140929
808.447	0.0140775
808.525	0.0141978
808.603	0.0143732
808.682	0.0143342
808.760	0.0143991
808.838	0.0143709
808.916	0.0143094
808.994	0.0141604
809.072	0.0141930
809.150	0.0143072
809.228	0.0142464
809.307	0.0141637
809.385	0.0139910
809.463	0.0140886
809.541	0.0138939
809.619	0.0140492
809.697	0.0139064
809.775	0.0138038
809.853	0.0138017
809.932	0.0139420
810.010	0.0138586
810.088	0.0138921
810.166	0.0140959
810.244	0.0139047
810.322	0.0139811
810.400	0.0140904
810.478	0.0141986
810.557	0.0143777
810.635	0.0143648
810.713	0.0143532
810.791	0.0143691
810.869	0.0143643
810.947	0.0142538
811.025	0.0143007
811.103	0.0143147
811.182	0.0140902
811.260	0.0139969
811.338	0.0141119
811.416	0.0138588
811.494	0.0137505
811.572	0.0136790
811.650	0.0136469
811.728	0.0135320
811.807	0.0136114
811.885	0.0134262
811.963	0.0134889
812.041	0.0134920
812.119	0.0135008
812.197	0.0134449
812.275	0.0133785
812.353	0.0134999
812.432	0.0134890
812.510	0.0134228
812.588	0.0135763
812.666	0.0138480
812.744	0.0138343
812.822	0.0139053
812.900	0.0140047
812.978	0.0139883
813.057	0.0140850
813.135	0.0141675
813.213	0.0142428
813.291	0.0140372
813.369	0.0142424
813.447	0.0142162
813.525	0.0140843
813.603	0.0140199
813.682	0.0140749
813.760	0.0141151
813.838	0.0140974
813.916	0.0141218
813.994	0.0142198
814.072	0.0139413
814.150	0.0140612
814.228	0.0141843
814.307	0.0141302
814.385	0.0141170
814.463	0.0139435
814.541	0.0140919
814.619	0.0140793
814.697	0.0142384
814.775	0.0143440
814.853	0.0142598
814.932	0.0144926
815.010	0.0145290
815.088	0.0145113
815.166	0.0145231
815.244	0.0144650
815.322	0.0145564
815.400	0.0145394
815.478	0.0144057
815.557	0.0143544
815.635	0.0141755
815.713	0.0142278
815.791	0.0141013
815.869	0.0138850
815.947	0.0138088
816.025	0.0136313
816.103	0.0135388
816.182	0.0133924
816.260	0.0134155
816.338	0.0135262
816.416	0.0135614
816.494	0.0136423
816.572	0.0136851
816.650	0.0138492
816.728	0.0139708
816.807	0.0140027
816.885	0.0141449
816.963	0.0142841
817.041	0.0143604
817.119	0.0143719
817.197	0.0143713
817.275	0.0143188
817.353	0.0144744
817.432	0.0144486
817.510	0.0145005
817.588	0.0142619
817.666	0.0142364
817.744	0.0142085
817.822	0.0140749
817.900	0.0142335
817.978	0.0142126
818.057	0.0140289
818.135	0.0140178
818.213	0.0138598
818.291	0.0137998
818.369	0.0138940
818.447	0.0137760
818.525	0.0138505
818.603	0.0137890
818.682	0.0137759
818.760	0.0140902
818.838	0.0140678
818.916	0.0141055
818.994	0.0141608
819.072	0.0142399
819.150	0.0143668
819.228	0.0146439
819.307	0.0146478
819.385	0.0147363
819.463	0.0146362
819.541	0.0147057
819.619	0.0147389
819.697	0.0148029
819.775	0.0147388
819.853	0.0145741
819.932	0.0145229
820.010	0.0146669
820.088	0.0143423
820.166	0.0143311
820.244	0.0143165
820.322	0.0140485
820.400	0.0141856
820.478	0.0140964
820.557	0.0139860
820.635	0.0138386
820.713	0.0139349
820.791	0.0138519
820.869	0.0136942
820.947	0.0138390
821.025	0.0136378
821.103	0.0137526
821.182	0.0138408
821.260	0.0140538
821.338	0.0140783
821.416	0.0140905
821.494	0.0142396
821.572	0.0143999
821.650	0.0145675
821.728	0.0145979
821.807	0.0146809
821.885	0.0148141
821.963	0.0149580
822.041	0.0148518
822.119	0.0148559
822.197	0.0148010
822.275	0.0146992
822.353	0.0146851
822.432	0.0144894
822.510	0.0142619
822.588	0.0141961
822.666	0.0139920
822.744	0.0139934
822.822	0.0138006
822.900	0.0134856
822.978	0.0136031
823.057	0.0135656
823.135	0.0134682
823.213	0.0134189
823.291	0.0133893
823.369	0.0135297
823.447	0.0134676
823.525	0.0135952
823.603	0.0136559
823.682	0.0137372
823.760	0.0136548
823.838	0.0139452
823.916	0.0139344
823.994	0.0139649
824.072	0.0139989
824.150	0.0142112
824.228	0.0142628
824.307	0.0145383
824.385	0.0145628
824.463	0.0145125
824.541	0.0145828
824.619	0.0145000
824.697	0.0145013
824.775	0.0144464
824.853	0.0143690
824.932	0.0143508
825.010	0.0142265
825.088	0.0140182
825.166	0.0140479
825.244	0.0139416
825.322	0.0140422
825.400	0.0139844
825.478	0.0137506
825.557	0.0139205
825.635	0.0139214
825.713	0.0137912
825.791	0.0137429
825.869	0.0138944
825.947	0.0138543
826.025	0.0138646
826.103	0.0137435
826.182	0.0138552
826.260	0.0138544
826.338	0.0138210
826.416	0.0138036
826.494	0.0137791
826.572	0.0137920
826.650	0.0138871
826.728	0.0139262
826.807	0.0140250
826.885	0.0139304
826.963	0.0139165
827.041	0.0139298
827.119	0.0140332
827.197	0.0139841
827.275	0.0139751
827.353	0.0139540
827.432	0.0140601
827.510	0.0142244
827.588	0.0141770
827.666	0.0141294
827.744	0.0142515
827.822	0.0143357
827.900	0.0142815
827.978	0.0143250
828.057	0.0143879
828.135	0.0144396
828.213	0.0144186
828.291	0.0144162
828.369	0.0143793
828.447	0.0143172
828.525	0.0144926
828.603	0.0143962
828.682	0.0143951
828.760	0.0141850
828.838	0.0142364
828.916	0.0143700
828.994	0.0142885
829.072	0.0141542
829.150	0.0140609
829.228	0.0140362
829.307	0.0139175
829.385	0.0139777
829.463	0.0138234
829.541	0.0138225
829.619	0.0137463
829.697	0.0138015
829.775	0.0136739
829.853	0.0136064
829.932	0.0135259
830.010	0.0134543
830.088	0.0135908
830.166	0.0134598
830.244	0.0134960
830.322	0.0135558
830.400	0.0137106
830.478	0.0136601
830.557	0.0135406
830.635	0.0135251
830.713	0.0137388
830.791	0.0137313
830.869	0.0138367
830.947	0.0139063
831.025	0.0138545
831.103	0.0139538
831.182	0.0141039
831.260	0.0141792
831.338	0.0141400
831.416	0.0142404
831.494	0.0141207
831.572	0.0142384
831.650	0.0143793
831.728	0.0141708
831.807	0.0143382
831.885	0.0143204
831.963	0.0143084
832.041	0.0144946
832.119	0.0142949
832.197	0.0144310
832.275	0.0143673
832.353	0.0143698
832.432	0.0142764
832.510	0.0142785
832.588	0.0143584
832.666	0.0142399
832.744	0.0141869
832.822	0.0140836
832.900	0.0141386
832.978	0.0139445
833.057	0.0140941
833.135	0.0140571
833.213	0.0140423
833.291	0.0139957
833.369	0.0139559
833.447	0.0139622
833.525	0.0139015
833.603	0.0139451
833.682	0.0138146
833.760	0.0139011
833.838	0.0139171
833.916	0.0139365
833.994	0.0138881
834.072	0.0137933
834.150	0.0138844
834.228	0.0139072
834.307	0.0138588
834.385	0.0138934
834.463	0.0140010
834.541	0.0140518
834.619	0.0142298
834.697	0.0141879
834.775	0.0142551
834.853	0.0144269
834.932	0.0144039
835.010	0.0143389
835.088	0.0143343
835.166	0.0143179
835.244	0.0144073
835.322	0.0143227
835.400	0.0141636
835.478	0.0142458
835.557	0.0141036
835.635	0.0140171
835.713	0.0141489
835.791	0.0139857
835.869	0.0138768
835.947	0.0139213
836.025	0.0139042
836.103	0.0137181
836.182	0.0138676
836.260	0.0137444
836.338	0.0136628
836.416	0.0136436
836.494	0.0136734
836.572	0.0139124
836.650	0.0138058
836.728	0.0137780
836.807	0.0139315
836.885	0.0138066
836.963	0.0138812
837.041	0.0140027
837.119	0.0139448
837.197	0.0139133
837.275	0.0139964
837.353	0.0139774
837.432	0.0138268
837.510	0.0138164
837.588	0.0138461
837.666	0.0138946
837.744	0.0139002
837.822	0.0139197
837.900	0.0137980
837.978	0.0138208
838.057	0.0137335
838.135	0.0138072
838.213	0.0138907
838.291	0.0138854
838.369	0.0139602
838.447	0.0138102
838.525	0.0138399
838.603	0.0139208
838.682	0.0139268
838.760	0.0139931
838.838	0.0139595
838.916	0.0139381
838.994	0.0139944
839.072	0.0140353
839.150	0.0142906
839.228	0.0141814
839.307	0.0142505
839.385	0.0142307
839.463	0.0144582
839.541	0.0144529
839.619	0.0144786
839.697	0.0146626
839.775	0.0145287
839.853	0.0147878
839.932	0.0147005
840.010	0.0147504
840.088	0.0146254
840.166	0.0146670
840.244	0.0146024
840.322	0.0145425
840.400	0.0145741
840.478	0.0144747
840.557	0.0144538
840.635	0.0143066
840.713	0.0142384
840.791	0.0140959
840.869	0.0140818
840.947	0.0141039
841.025	0.0140458
841.103	0.0139080
841.182	0.0138946
841.260	0.0139453
841.338	0.0138434
841.416	0.0137462
841.494	0.0136926
841.572	0.0136682
841.650	0.0136088
841.728	0.0135995
841.807	0.0134411
841.885	0.0135349
841.963	0.0135521
842.041	0.0135605
842.119	0.0134645
842.197	0.0135712
842.275	0.0135284
842.353	0.0135516
842.432	0.0135815
842.510	0.0137439
842.588	0.0136185
842.666	0.0137105
842.744	0.0137114
842.822	0.0137670
842.900	0.0138013
842.978	0.0138173
843.057	0.0139697
843.135	0.0139834
843.213	0.0140271
843.291	0.0141781
843.369	0.0141494
843.447	0.0140349
843.525	0.0142857
843.603	0.0142865
843.682	0.0143207
843.760	0.0144430
843.838	0.0144055
843.916	0.0143393
843.994	0.0144377
844.072	0.0144410
844.150	0.0143853
844.228	0.0143250
844.307	0.0144418
844.385	0.0144956
844.463	0.0144562
844.541	0.0145805
844.619	0.0143536
844.697	0.0143536
844.775	0.0143286
844.853	0.0142757
844.932	0.0142224
845.010	0.0141685
845.088	0.0140950
845.166	0.0140335
845.244	0.0141235
845.322	0.0140571
845.400	0.0140948
845.478	0.0140189
845.557	0.0140677
845.635	0.0140449
845.713	0.0140314
845.791	0.0139453
845.869	0.0138299
845.947	0.0139874
846.025	0.0138329
846.103	0.0138724
846.182	0.0139501
846.260	0.0141054
846.338	0.0140066
846.416	0.0139812
846.494	0.0138860
846.572	0.0140029
846.650	0.0140486
846.728	0.0140046
846.807	0.0141063
846.885	0.0139222
846.963	0.0140757
847.041	0.0140185
847.119	0.0138533
847.197	0.0140256
847.275	0.0140591
847.353	0.0139922
847.432	0.0141139
847.510	0.0140950
847.588	0.0140409
847.666	0.0140584
847.744	0.0142297
847.822	0.0141309
847.900	0.0141520
847.978	0.0142162
848.057	0.0142390
848.135	0.0140781
848.213	0.0142865
848.291	0.0143057
848.369	0.0143607
848.447	0.0143261
848.525	0.0143671
848.603	0.0143472
848.682	0.0143782
848.760	0.0142964
848.838	0.0143697
848.916	0.0143990
848.994	0.0142781
849.072	0.0143092
849.150	0.0141162
849.228	0.0140322
849.307	0.0140584
849.385	0.0140579
849.463	0.0138435
849.541	0.0138937
849.619	0.0138244
849.697	0.0137759
849.775	0.0138277
849.853	0.0136990
849.932	0.0136179
850.010	0.0136951
850.088	0.0137370
850.166	0.0137193
850.244	0.0135635
850.322	0.0136414
850.400	0.0135809
850.478	0.0136350
850.557	0.0137617
850.635	0.0136454
850.713	0.0139020
850.791	0.0138869
850.869	0.0140011
850.947	0.0138763
851.025	0.0139824
851.103	0.0140929
851.182	0.0141464
851.260	0.0141898
851.338	0.0142125
851.416	0.0142648
851.494	0.0142697
851.572	0.0144054
851.650	0.0144191
851.728	0.0143562
851.807	0.0144037
851.885	0.0144212
851.963	0.0143334
852.041	0.0143323
852.119	0.0143300
852.197	0.0144692
852.275	0.0143476
852.353	0.0143136
852.432	0.0142739
852.510	0.0143889
852.588	0.0142488
852.666	0.0142590
852.744	0.0142522
852.822	0.0141106
852.900	0.0140539
852.978	0.0139685
853.057	0.0139643
853.135	0.0139260
853.213	0.0137590
853.291	0.0139592
853.369	0.0138644
853.447	0.0137560
853.525	0.0138430
853.603	0.0137003
853.682	0.0137136
853.760	0.0138045
853.838	0.0137078
853.916	0.0136357
853.994	0.0136134
854.072	0.0136430
854.150	0.0137469
854.228	0.0137523
854.307	0.0137319
854.385	0.0137488
854.463	0.0139822
854.541	0.0138938
854.619	0.0137884
854.697	0.0140163
854.775	0.0140147
854.853	0.0140348
854.932	0.0141030
855.010	0.0140735
855.088	0.0141264
855.166	0.0142327
855.244	0.0143685
855.322	0.0143032
855.400	0.0143348
855.478	0.0143831
855.557	0.0145184
855.635	0.0145575
855.713	0.0144256
855.791	0.0144162
855.869	0.0144527
855.947	0.0144583
856.025	0.0144390
856.103	0.0143179
856.182	0.0143976
856.260	0.0142045
856.338	0.0143567
856.416	0.0143127
856.494	0.0142688
856.572	0.0141513
856.650	0.0141199
856.728	0.0141130
856.807	0.0141366
856.885	0.0140483
856.963	0.0140186
857.041	0.0140121
857.119	0.0140166
857.197	0.0139850
857.275	0.0138889
857.353	0.0138406
857.432	0.0138065
857.510	0.0137988
857.588	0.0136603
857.666	0.0135212
857.744	0.0136055
857.822	0.0134982
857.900	0.0135442
857.978	0.0136044
858.057	0.0135276
858.135	0.0134808
858.213	0.0135780
858.291	0.0134580
858.369	0.0136037
858.447	0.0136382
858.525	0.0138242
858.603	0.0138620
858.682	0.0139749
858.760	0.0139700
858.838	0.0139102
858.916	0.0140948
858.994	0.0141488
859.072	0.0141208
859.150	0.0142237
859.228	0.0141508
859.307	0.0141623
859.385	0.0142039
859.463	0.0142774
859.541	0.0142119
859.619	0.0143268
859.697	0.0140939
859.775	0.0141425
859.853	0.0143164
859.932	0.0143562
860.010	0.0144244
860.088	0.0144224
860.166	0.0142549
860.244	0.0142583
860.322	0.0142892
860.400	0.0142982
860.478	0.0143307
860.557	0.0142409
860.635	0.0142699
860.713	0.0142237
860.791	0.0141327
860.869	0.0140527
860.947	0.0140969
861.025	0.0140434
861.103	0.0141010
861.182	0.0139889
861.260	0.0138960
861.338	0.0139889
861.416	0.0139094
861.494	0.0138188
861.572	0.0137988
861.650	0.0137897
861.728	0.0136867
861.807	0.0137978
861.885	0.0137476
861.963	0.0137057
862.041	0.0136715
862.119	0.0136326
862.197	0.0137016
862.275	0.0137000
862.353	0.0136936
862.432	0.0137075
862.510	0.0138348
862.588	0.0138651
862.666	0.0137833
862.744	0.0138267
862.822	0.0139241
862.900	0.0140608
862.978	0.0140362
863.057	0.0142332
863.135	0.0141315
863.213	0.0142050
863.291	0.0141895
863.369	0.0143031
863.447	0.0144079
863.525	0.0144377
863.603	0.0145959
863.682	0.0145107
863.760	0.0144814
863.838	0.0144680
863.916	0.0147513
863.994	0.0145935
864.072	0.0145535
864.150	0.0146593
864.228	0.0145708
864.307	0.0145931
864.385	0.0145859
864.463	0.0146454
864.541	0.0144675
864.619	0.0145444
864.697	0.0143378
864.775	0.0142738
864.853	0.0144321
864.932	0.0143530
865.010	0.0144360
865.088	0.0143874
865.166	0.0143389
865.244	0.0141670
865.322	0.0142070
865.400	0.0142496
865.478	0.0140548
865.557	0.0140385
865.635	0.0140675
865.713	0.0139528
865.791	0.0139919
865.869	0.0138632
865.947	0.0137674
866.025	0.0138338
866.103	0.0136414
866.182	0.0138454
866.260	0.0138216
866.338	0.0137399
866.416	0.0137920
866.494	0.0138731
866.572	0.0138603
866.650	0.0136600
866.728	0.0138373
866.807	0.0140569
866.885	0.0140437
866.963	0.0138035
867.041	0.0139424
867.119	0.0139613
867.197	0.0140572
867.275	0.0141159
867.353	0.0140134
867.432	0.0141206
867.510	0.0141161
867.588	0.0139307
867.666	0.0141520
867.744	0.0143308
867.822	0.0142284
867.900	0.0141776
867.978	0.0142023
868.057	0.0141307
868.135	0.0142387
868.213	0.0142632
868.291	0.0140405
868.369	0.0141235
868.447	0.0141714
868.525	0.0142071
868.603	0.0141072
868.682	0.0141823
868.760	0.0139067
868.838	0.0139826
868.916	0.0139315
868.994	0.0138978
869.072	0.0139524
869.150	0.0139474
869.228	0.0139082
869.307	0.0138446
869.385	0.0137926
869.463	0.0139290
869.541	0.0138754
869.619	0.0137868
869.697	0.0138203
869.775	0.0138182
869.853	0.0139696
869.932	0.0138443
870.010	0.0138889
870.088	0.0138634
870.166	0.0140042
870.244	0.0139359
870.322	0.0138932
870.400	0.0138992
870.478	0.0138911
870.557	0.0139987
870.635	0.0141073
870.713	0.0140768
870.791	0.0140898
870.869	0.0140890
870.947	0.0141316
871.025	0.0142120
871.103	0.0140054
871.182	0.0141848
871.260	0.0142039
871.338	0.0142207
871.416	0.0143102
871.494	0.0144095
871.572	0.0143302
871.650	0.0143212
871.728	0.0142783
871.807	0.0143195
871.885	0.0143224
871.963	0.0142706
872.041	0.0142713
872.119	0.0141399
872.197	0.0143666
872.275	0.0142635
872.353	0.0142349
872.432	0.0141814
872.510	0.0141325
872.588	0.0141534
872.666	0.0140464
872.744	0.0142062
872.822	0.0142014
872.900	0.0141348
872.978	0.0141506
873.057	0.0140477
873.135	0.0140807
873.213	0.0140335
873.291	0.0139814
873.369	0.0141243
873.447	0.0141174
873.525	0.0139930
873.603	0.0140157
873.682	0.0138602
873.760	0.0138276
873.838	0.0140133
873.916	0.0139172
873.994	0.0138230
874.072	0.0138219
874.150	0.0137299
874.228	0.0139306
874.307	0.0139205
874.385	0.0139287
874.463	0.0139065
874.541	0.0138950
874.619	0.0139194
874.697	0.0139895
874.775	0.0139614
874.853	0.0138396
874.932	0.0142559
875.010	0.0141548
875.088	0.0143073
875.166	0.0143307
875.244	0.0143041
875.322	0.0142390
875.400	0.0144319
875.478	0.0143656
875.557	0.0142646
875.635	0.0142429
875.713	0.0143903
875.791	0.0144019
875.869	0.0142539
875.947	0.0143060
876.025	0.0143179
876.103	0.0142973
876.182	0.0144032
876.260	0.0143334
876.338	0.0142221
876.416	0.0142337
876.494	0.0141675
876.572	0.0140579
876.650	0.0141258
876.728	0.0141224
876.807	0.0140475
876.885	0.0141114
876.963	0.0141777
877.041	0.0140643
877.119	0.0139388
877.197	0.0139571
877.275	0.0140783
877.353	0.0140003
877.432	0.0138558
877.510	0.0141004
877.588	0.0140134
877.666	0.0140336
877.744	0.0140182
877.822	0.0140125
877.900	0.0141377
877.978	0.0139336
878.057	0.0139351
878.135	0.0138492
878.213	0.0138919
878.291	0.0138788
878.369	0.0140329
878.447	0.0138931
878.525	0.0139865
878.603	0.0139320
878.682	0.0139788
878.760	0.0141341
878.838	0.0141530
878.916	0.0141315
878.994	0.0140147
879.072	0.0140820
879.150	0.0141567
879.228	0.0141264
879.307	0.0142399
879.385	0.0142194
879.463	0.0141757
879.541	0.0142432
879.619	0.0144434
879.697	0.0143039
879.775	0.0144004
879.853	0.0143454
879.932	0.0144483
880.010	0.0145643
880.088	0.0142322
880.166	0.0142401
880.244	0.0143567
880.322	0.0144055
880.400	0.0143832
880.478	0.0143385
880.557	0.0142049
880.635	0.0142255
880.713	0.0142379
880.791	0.0143710
880.869	0.0142064
880.947	0.0140780
881.025	0.0141044
881.103	0.0141270
881.182	0.0141963
881.260	0.0141550
881.338	0.0141126
881.416	0.0139213
881.494	0.0139830
881.572	0.0139813
881.650	0.0140044
881.728	0.0138993
881.807	0.0137831
881.885	0.0137746
881.963	0.0139153
882.041	0.0138239
882.119	0.0137923
882.197	0.0137148
882.275	0.0137646
882.353	0.0138767
882.432	0.0139005
882.510	0.0138744
882.588	0.0140096
882.666	0.0139924
882.744	0.0139766
882.822	0.0138886
882.900	0.0139569
882.978	0.0140170
883.057	0.0140607
883.135	0.0141213
883.213	0.0141199
883.291	0.0141827
883.369	0.0143053
883.447	0.0140806
883.525	0.0140800
883.603	0.0140839
883.682	0.0140520
883.760	0.0142036
883.838	0.0141530
883.916	0.0140006
883.994	0.0141518
884.072	0.0140483
884.150	0.0141483
884.228	0.0141590
884.307	0.0141743
884.385	0.0141739
884.463	0.0141544
884.541	0.0142419
884.619	0.0140989
884.697	0.0141270
884.775	0.0140976
884.853	0.0142775
884.932	0.0143500
885.010	0.0140304
885.088	0.0141417
885.166	0.0141216
885.244	0.0140838
885.322	0.0141251
885.400	0.0142106
885.478	0.0142250
885.557	0.0140721
885.635	0.0141502
885.713	0.0141222
885.791	0.0140410
885.869	0.0139317
885.947	0.0140956
886.025	0.0139866
886.103	0.0140704
886.182	0.0138976
886.260	0.0138107
886.338	0.0138919
886.416	0.0139883
886.494	0.0139468
886.572	0.0138774
886.650	0.0139300
886.728	0.0139720
886.807	0.0138222
886.885	0.0137521
886.963	0.0138666
887.041	0.0138795
887.119	0.0137766
887.197	0.0137415
887.275	0.0139758
887.353	0.0139326
887.432	0.0139995
887.510	0.0140134
887.588	0.0139023
887.666	0.0140337
887.744	0.0141705
887.822	0.0142358
887.900	0.0142319
887.978	0.0142992
888.057	0.0144509
888.135	0.0144215
888.213	0.0144638
888.291	0.0144729
888.369	0.0146300
888.447	0.0145033
888.525	0.0145121
888.603	0.0144611
888.682	0.0147395
888.760	0.0145252
888.838	0.0146539
888.916	0.0144879
888.994	0.0145314
889.072	0.0145039
889.150	0.0143842
889.228	0.0144629
889.307	0.0143636
889.385	0.0142951
889.463	0.0142419
889.541	0.0141499
889.619	0.0139978
889.697	0.0139900
889.775	0.0140240
889.853	0.0141452
889.932	0.0138538
890.010	0.0137498
890.088	0.0139011
890.166	0.0137172
890.244	0.0137253
890.322	0.0136360
890.400	0.0136273
890.478	0.0136667
890.557	0.0136362
890.635	0.0137243
890.713	0.0137436
890.791	0.0137656
890.869	0.0137354
890.947	0.0137865
891.025	0.0138376
891.103	0.0138562
891.182	0.0139226
891.260	0.0140532
891.338	0.0138805
891.416	0.0138809
891.494	0.0140459
891.572	0.0139520
891.650	0.0139629
891.728	0.0140122
891.807	0.0140063
891.885	0.0141833
891.963	0.0140112
892.041	0.0139479
892.119	0.0140776
892.197	0.0139719
892.275	0.0140527
892.353	0.0140045
892.432	0.0140820
892.510	0.0141505
892.588	0.0140219
892.666	0.0140758
892.744	0.0139868
892.822	0.0140432
892.900	0.0140099
892.978	0.0139776
893.057	0.0139357
893.135	0.0140424
893.213	0.0141016
893.291	0.0140520
893.369	0.0140099
893.447	0.0140598
893.525	0.0141518
893.603	0.0141963
893.682	0.0140189
893.760	0.0142004
893.838	0.0141508
893.916	0.0142355
893.994	0.0141630
894.072	0.0140917
894.150	0.0141735
894.228	0.0141784
894.307	0.0142401
894.385	0.0141108
894.463	0.0139802
894.541	0.0140950
894.619	0.0141771
894.697	0.0140897
894.775	0.0140563
894.853	0.0141018
894.932	0.0140987
895.010	0.0141079
895.088	0.0140730
895.166	0.0141512
895.244	0.0140762
895.322	0.0141576
895.400	0.0140533
895.478	0.0140761
895.557	0.0141352
895.635	0.0141093
895.713	0.0142055
895.791	0.0141087
895.869	0.0142307
895.947	0.0141143
896.025	0.0141775
896.103	0.0141091
896.182	0.0140143
896.260	0.0141541
896.338	0.0140823
896.416	0.0140085
896.494	0.0140184
896.572	0.0140863
896.650	0.0140950
896.728	0.0140865
896.807	0.0141383
896.885	0.0140083
896.963	0.0141212
897.041	0.0141450
897.119	0.0141746
897.197	0.0141277
897.275	0.0141802
897.353	0.0142363
897.432	0.0140129
897.510	0.0141985
897.588	0.0141051
897.666	0.0141441
897.744	0.0141938
897.822	0.0141852
897.900	0.0141954
897.978	0.0142564
898.057	0.0141771
898.135	0.0141851
898.213	0.0143762
898.291	0.0141687
898.369	0.0141562
898.447	0.0142465
898.525	0.0143532
898.603	0.0143088
898.682	0.0141994
898.760	0.0141721
898.838	0.0141438
898.916	0.0142714
898.994	0.0141873
899.072	0.0142018
899.150	0.0140587
899.228	0.0141930
899.307	0.0140200
899.385	0.0141342
899.463	0.0141005
899.541	0.0141787
899.619	0.0141457
899.697	0.0140775
899.775	0.0139256
899.853	0.0140443
899.932	0.0139230
900.010	0.0139649
900.088	0.0139359
900.166	0.0138918
900.244	0.0138980
900.322	0.0138124
900.400	0.0138934
900.478	0.0139271
900.557	0.0139542
900.635	0.0138243
900.713	0.0139291
900.791	0.0139012
900.869	0.0137878
900.947	0.0138035
901.025	0.0140103
901.103	0.0139017
901.182	0.0138974
901.260	0.0140373
901.338	0.0140350
901.416	0.0140514
901.494	0.0140063
901.572	0.0140104
901.650	0.0141479
901.728	0.0142097
901.807	0.0140352
901.885	0.0141589
901.963	0.0142730
902.041	0.0143704
902.119	0.0143219
902.197	0.0143544
902.275	0.0144583
902.353	0.0143177
902.432	0.0141678
902.510	0.0142558
902.588	0.0142714
902.666	0.0142413
902.744	0.0142171
902.822	0.0143372
902.900	0.0143288
902.978	0.0143582
903.057	0.0142754
903.135	0.0141955
903.213	0.0145025
903.291	0.0142886
903.369	0.0143056
903.447	0.0143245
903.525	0.0143684
903.603	0.0144527
903.682	0.0144262
903.760	0.0144035
903.838	0.0143789
903.916	0.0142818
903.994	0.0141853
904.072	0.0143710
904.150	0.0142307
904.228	0.0140148
904.307	0.0140902
904.385	0.0142420
904.463	0.0141629
904.541	0.0141390
904.619	0.0140375
904.697	0.0140337
904.775	0.0139037
904.853	0.0138529
904.932	0.0139513
905.010	0.0139446
905.088	0.0139665
905.166	0.0138905
905.244	0.0138451
905.322	0.0138556
905.400	0.0138369
905.478	0.0139482
905.557	0.0138368
905.635	0.0138597
905.713	0.0137803
905.791	0.0137901
905.869	0.0137819
905.947	0.0138242
906.025	0.0138660
906.103	0.0138379
906.182	0.0138877
906.260	0.0138180
906.338	0.0139275
906.416	0.0138549
906.494	0.0139725
906.572	0.0140092
906.650	0.0141431
906.728	0.0141740
906.807	0.0141521
906.885	0.0140540
906.963	0.0141959
907.041	0.0141580
907.119	0.0142115
907.197	0.0143402
907.275	0.0143584
907.353	0.0142885
907.432	0.0142700
907.510	0.0142406
907.588	0.0142151
907.666	0.0142097
907.744	0.0142413
907.822	0.0142641
907.900	0.0143414
907.978	0.0143126
908.057	0.0143851
908.135	0.0144167
908.213	0.0143142
908.291	0.0144557
908.369	0.0144785
908.447	0.0143697
908.525	0.0143629
908.603	0.0144288
908.682	0.0143410
908.760	0.0143849
908.838	0.0143757
908.916	0.0143697
908.994	0.0142637
909.072	0.0141419
909.150	0.0141178
909.228	0.0143059
909.307	0.0142763
909.385	0.0141662
909.463	0.0142024
909.541	0.0141824
909.619	0.0141654
909.697	0.0140749
909.775	0.0140409
909.853	0.0139944
909.932	0.0139375
910.010	0.0138517
910.088	0.0140197
910.166	0.0140298
910.244	0.0138470
910.322	0.0139580
910.400	0.0140272
910.478	0.0138977
910.557	0.0139017
910.635	0.0138048
910.713	0.0139824
910.791	0.0139442
910.869	0.0139516
910.947	0.0139397
911.025	0.0139098
911.103	0.0139783
911.182	0.0139237
911.260	0.0139169
911.338	0.0138484
911.416	0.0138252
911.494	0.0137316
911.572	0.0138011
911.650	0.0138487
911.728	0.0138654
911.807	0.0138127
911.885	0.0137030
911.963	0.0139717
912.041	0.0138481
912.119	0.0139112
912.197	0.0138752
912.275	0.0138007
912.353	0.0138353
912.432	0.0138791
912.510	0.0139317
912.588	0.0139320
912.666	0.0139916
912.744	0.0138113
912.822	0.0141409
912.900	0.0141775
912.978	0.0138866
913.057	0.0139587
913.135	0.0139919
913.213	0.0140226
913.291	0.0140559
913.369	0.0139727
913.447	0.0140258
913.525	0.0140149
913.603	0.0140157
913.682	0.0141871
913.760	0.0141582
913.838	0.0139511
913.916	0.0141183
913.994	0.0142709
914.072	0.0141820
914.150	0.0142171
914.228	0.0142726
914.307	0.0142326
914.385	0.0142503
914.463	0.0142547
914.541	0.0142387
914.619	0.0141818
914.697	0.0141865
914.775	0.0141769
914.853	0.0141566
914.932	0.0141650
915.010	0.0141576
915.088	0.0140611
915.166	0.0140317
915.244	0.0140379
915.322	0.0139223
915.400	0.0141130
915.478	0.0139839
915.557	0.0141145
915.635	0.0140134
915.713	0.0139189
915.791	0.0139510
915.869	0.0138966
915.947	0.0138401
916.025	0.0138466
916.103	0.0137604
916.182	0.0139905
916.260	0.0139774
916.338	0.0138931
916.416	0.0138350
916.494	0.0141005
916.572	0.0139597
916.650	0.0139497
916.728	0.0139422
916.807	0.0140074
916.885	0.0139637
916.963	0.0139634
917.041	0.0140078
917.119	0.0139079
917.197	0.0138450
917.275	0.0139913
917.353	0.0140035
917.432	0.0140321
917.510	0.0139645
917.588	0.0139723
917.666	0.0141484
917.744	0.0141579
917.822	0.0141362
917.900	0.0141660
917.978	0.0141219
918.057	0.0141428
918.135	0.0141927
918.213	0.0141324
918.291	0.0140684
918.369	0.0140667
918.447	0.0141524
918.525	0.0141113
918.603	0.0140701
918.682	0.0140092
918.760	0.0141615
918.838	0.0140316
918.916	0.0139929
918.994	0.0141285
919.072	0.0140553
919.150	0.0140908
919.228	0.0140196
919.307	0.0140355
919.385	0.0140833
919.463	0.0141467
919.541	0.0141550
919.619	0.0140550
919.697	0.0141395
919.775	0.0141157
919.853	0.0141358
919.932	0.0141396
920.010	0.0140933
920.088	0.0142094
920.166	0.0140118
920.244	0.0138915
920.322	0.0140637
920.400	0.0142113
920.478	0.0141190
920.557	0.0141152
920.635	0.0140924
920.713	0.0141171
920.791	0.0140145
920.869	0.0140339
920.947	0.0140377
921.025	0.0138490
921.103	0.0140102
921.182	0.0140183
921.260	0.0140276
921.338	0.0138809
921.416	0.0139317
921.494	0.0140369
921.572	0.0139857
921.650	0.0139924
921.728	0.0139564
921.807	0.0140357
921.885	0.0140917
921.963	0.0142361
922.041	0.0141231
922.119	0.0142623
922.197	0.0143517
922.275	0.0143482
922.353	0.0143208
922.432	0.0142233
922.510	0.0143890
922.588	0.0142702
922.666	0.0142509
922.744	0.0144041
922.822	0.0143159
922.900	0.0143848
922.978	0.0142982
923.057	0.0143144
923.135	0.0143104
923.213	0.0142413
923.291	0.0143510
923.369	0.0143156
923.447	0.0142278
923.525	0.0142938
923.603	0.0143362
923.682	0.0142521
923.760	0.0142585
923.838	0.0142143
923.916	0.0144139
923.994	0.0142821
924.072	0.0142799
924.150	0.0140997
924.228	0.0142133
924.307	0.0140712
924.385	0.0141202
924.463	0.0141513
924.541	0.0142367
924.619	0.0140936
924.697	0.0139597
924.775	0.0140270
924.853	0.0141463
924.932	0.0139382
925.010	0.0140591
925.088	0.0141131
925.166	0.0140640
925.244	0.0139901
925.322	0.0139033
925.400	0.0140018
925.478	0.0140452
925.557	0.0139439
925.635	0.0138710
925.713	0.0139349
925.791	0.0139133
925.869	0.0139688
925.947	0.0139983
926.025	0.0137505
926.103	0.0139742
926.182	0.0141080
926.260	0.0141093
926.338	0.0139558
926.416	0.0140244
926.494	0.0139917
926.572	0.0140905
926.650	0.0142168
926.728	0.0141814
926.807	0.0141608
926.885	0.0142380
926.963	0.0143073
927.041	0.0143005
927.119	0.0142652
927.197	0.0142213
927.275	0.0142995
927.353	0.0143308
927.432	0.0143082
927.510	0.0144379
927.588	0.0144760
927.666	0.0143842
927.744	0.0144305
927.822	0.0144307
927.900	0.0143676
927.978	0.0143876
928.057	0.0144872
928.135	0.0143378
928.213	0.0143537
928.291	0.0142612
928.369	0.0143919
928.447	0.0142323
928.525	0.0143529
928.603	0.0141711
928.682	0.0142621
928.760	0.0142435
928.838	0.0142212
928.916	0.0141743
928.994	0.0141122
929.072	0.0139986
929.150	0.0140948
929.228	0.0140176
929.307	0.0141279
929.385	0.0140042
929.463	0.0140837
929.541	0.0139806
929.619	0.0139024
929.697	0.0139891
929.775	0.0140066
929.853	0.0139478
929.932	0.0140648
930.010	0.0139008
930.088	0.0138847
930.166	0.0139472
930.244	0.0139526
930.322	0.0140154
930.400	0.0140971
930.478	0.0140969
930.557	0.0141553
930.635	0.0142015
930.713	0.0140849
930.791	0.0140910
930.869	0.0139915
930.947	0.0141257
931.025	0.0140596
931.103	0.0138918
931.182	0.0140823
931.260	0.0140345
931.338	0.0139240
931.416	0.0139222
931.494	0.0138673
931.572	0.0139205
931.650	0.0139584
931.728	0.0138940
931.807	0.0139703
931.885	0.0138029
931.963	0.0138466
932.041	0.0138370
932.119	0.0140017
932.197	0.0139227
932.275	0.0137774
932.353	0.0137206
932.432	0.0139823
932.510	0.0138181
932.588	0.0140581
932.666	0.0138860
932.744	0.0139484
932.822	0.0139165
932.900	0.0139878
932.978	0.0138607
933.057	0.0140530
933.135	0.0140617
933.213	0.0140893
933.291	0.0140853
933.369	0.0139754
933.447	0.0140740
933.525	0.0141923
933.603	0.0143672
933.682	0.0141211
933.760	0.0141560
933.838	0.0142137
933.916	0.0142374
933.994	0.0143530
934.072	0.0141735
934.150	0.0143182
934.228	0.0144064
934.307	0.0142621
934.385	0.0144401
934.463	0.0143501
934.541	0.0145036
934.619	0.0144272
934.697	0.0143643
934.775	0.0145358
934.853	0.0144024
934.932	0.0143394
935.010	0.0145070
935.088	0.0143748
935.166	0.0143145
935.244	0.0143903
935.322	0.0143727
935.400	0.0144534
935.478	0.0142558
935.557	0.0143585
935.635	0.0141027
935.713	0.0140717
935.791	0.0141615
935.869	0.0140834
935.947	0.0141353
936.025	0.0140733
936.103	0.0139795
936.182	0.0139614
936.260	0.0139423
936.338	0.0139449
936.416	0.0139521
936.494	0.0139561
936.572	0.0138769
936.650	0.0138965
936.728	0.0139293
936.807	0.0138802
936.885	0.0137973
936.963	0.0138285
937.041	0.0139370
937.119	0.0140527
937.197	0.0140115
937.275	0.0140227
937.353	0.0140929
937.432	0.0140992
937.510	0.0140149
937.588	0.0138911
937.666	0.0138908
937.744	0.0138934
937.822	0.0140800
937.900	0.0140639
937.978	0.0138889
938.057	0.0140002
938.135	0.0140193
938.213	0.0140167
938.291	0.0140749
938.369	0.0142252
938.447	0.0141241
938.525	0.0140205
938.603	0.0141081
938.682	0.0141467
938.760	0.0140559
938.838	0.0139672
938.916	0.0141667
938.994	0.0140740
939.072	0.0141066
939.150	0.0139938
939.228	0.0138900
939.307	0.0140359
939.385	0.0140415
939.463	0.0138707
939.541	0.0139699
939.619	0.0140338
939.697	0.0139511
939.775	0.0140517
939.853	0.0138979
939.932	0.0138803
940.010	0.0139525
940.088	0.0139115
940.166	0.0139005
940.244	0.0138364
940.322	0.0138514
940.400	0.0137697
940.478	0.0138448
940.557	0.0139522
940.635	0.0139683
940.713	0.0139486
940.791	0.0139476
940.869	0.0137734
940.947	0.0137608
941.025	0.0139349
941.103	0.0140730
941.182	0.0139788
941.260	0.0139149
941.338	0.0138478
941.416	0.0139674
941.494	0.0140697
941.572	0.0139671
941.650	0.0138879
941.728	0.0139898
941.807	0.0140305
941.885	0.0139581
941.963	0.0140100
942.041	0.0140973
942.119	0.0140124
942.197	0.0141291
942.275	0.0140877
942.353	0.0140678
942.432	0.0141375
942.510	0.0140863
942.588	0.0141505
942.666	0.0140885
942.744	0.0141902
942.822	0.0140968
942.900	0.0141297
942.978	0.0142924
943.057	0.0142606
943.135	0.0141933
943.213	0.0142723
943.291	0.0143891
943.369	0.0142139
943.447	0.0142767
943.525	0.0142548
943.603	0.0143214
943.682	0.0142242
943.760	0.0143734
943.838	0.0142362
943.916	0.0142464
943.994	0.0141637
944.072	0.0141733
944.150	0.0142425
944.228	0.0142374
944.307	0.0143096
944.385	0.0141691
944.463	0.0142102
944.541	0.0141599
944.619	0.0142715
944.697	0.0140085
944.775	0.0140372
944.853	0.0142069
944.932	0.0140742
945.010	0.0140398
945.088	0.0140796
945.166	0.0141414
945.244	0.0140995
945.322	0.0140720
945.400	0.0141732
945.478	0.0139932
945.557	0.0139537
945.635	0.0139997
945.713	0.0140535
945.791	0.0140790
945.869	0.0139935
945.947	0.0140358
946.025	0.0141364
946.103	0.0139890
946.182	0.0140720
946.260	0.0139075
946.338	0.0141917
946.416	0.0141366
946.494	0.0140083
946.572	0.0142061
946.650	0.0141122
946.728	0.0140620
946.807	0.0140931
946.885	0.0142099
946.963	0.0139531
947.041	0.0141167
947.119	0.0141751
947.197	0.0141109
947.275	0.0141724
947.353	0.0143123
947.432	0.0141055
947.510	0.0141272
947.588	0.0141634
947.666	0.0141237
947.744	0.0141300
947.822	0.0141000
947.900	0.0140785
947.978	0.0140622
948.057	0.0141042
948.135	0.0140770
948.213	0.0141970
948.291	0.0141444
948.369	0.0141132
948.447	0.0140499
948.525	0.0140268
948.603	0.0140320
948.682	0.0139919
948.760	0.0141513
948.838	0.0139617
948.916	0.0141181
948.994	0.0140295
949.072	0.0142007
949.150	0.0141877
949.228	0.0141660
949.307	0.0140876
949.385	0.0140880
949.463	0.0141032
949.541	0.0141035
949.619	0.0141058
949.697	0.0139212
949.775	0.0139537
949.853	0.0138828
949.932	0.0139926
950.010	0.0139577
950.088	0.0140144
950.166	0.0140431
950.244	0.0141473
950.322	0.0140338
950.400	0.0138586
950.478	0.0139247
950.557	0.0139960
950.635	0.0139230
950.713	0.0140134
950.791	0.0139568
950.869	0.0140960
950.947	0.0138413
951.025	0.0139877
951.103	0.0141186
951.182	0.0140658
951.260	0.0139511
951.338	0.0140768
951.416	0.0140874
951.494	0.0140974
951.572	0.0140623
951.650	0.0141712
951.728	0.0141775
951.807	0.0142886
951.885	0.0142499
951.963	0.0143555
952.041	0.0142855
952.119	0.0143680
952.197	0.0141388
952.275	0.0143615
952.353	0.0143102
952.432	0.0144886
952.510	0.0144419
952.588	0.0144553
952.666	0.0144284
952.744	0.0145451
952.822	0.0144198
952.900	0.0143999
952.978	0.0143166
953.057	0.0142870
953.135	0.0142581
953.213	0.0142796
953.291	0.0142061
953.369	0.0142664
953.447	0.0142017
953.525	0.0141817
953.603	0.0139612
953.682	0.0140752
953.760	0.0140796
953.838	0.0140831
953.916	0.0140730
953.994	0.0140116
954.072	0.0140752
954.150	0.0138886
954.228	0.0139137
954.307	0.0139969
954.385	0.0138699
954.463	0.0139078
954.541	0.0139445
954.619	0.0140106
954.697	0.0138017
954.775	0.0140549
954.853	0.0140238
954.932	0.0140914
955.010	0.0139692
955.088	0.0140482
955.166	0.0140623
955.244	0.0141045
955.322	0.0140659
955.400	0.0140031
955.478	0.0140594
955.557	0.0141578
955.635	0.0140823
955.713	0.0139671
955.791	0.0141152
955.869	0.0142332
955.947	0.0140749
956.025	0.0141108
956.103	0.0141309
956.182	0.0142108
956.260	0.0142048
956.338	0.0140944
956.416	0.0142110
956.494	0.0140990
956.572	0.0143185
956.650	0.0142599
956.728	0.0142616
956.807	0.0142200
956.885	0.0142210
956.963	0.0142992
957.041	0.0142162
957.119	0.0142403
957.197	0.0141853
957.275	0.0142442
957.353	0.0142146
957.432	0.0142797
957.510	0.0142790
957.588	0.0142680
957.666	0.0142735
957.744	0.0141633
957.822	0.0142722
957.900	0.0141589
957.978	0.0140955
958.057	0.0141542
958.135	0.0140646
958.213	0.0140414
958.291	0.0140974
958.369	0.0140298
958.447	0.0139506
958.525	0.0140282
958.603	0.0141210
958.682	0.0138972
958.760	0.0140106
958.838	0.0139803
958.916	0.0138126
958.994	0.0138857
959.072	0.0139041
959.150	0.0139000
959.228	0.0138345
959.307	0.0138306
959.385	0.0139809
959.463	0.0138892
959.541	0.0139304
959.619	0.0139488
959.697	0.0140450
959.775	0.0140021
959.853	0.0139919
959.932	0.0140204
960.010	0.0141552
960.088	0.0140313
960.166	0.0141145
960.244	0.0142480
960.322	0.0140700
960.400	0.0140996
960.478	0.0142959
960.557	0.0142529
960.635	0.0143811
960.713	0.0143699
960.791	0.0143169
960.869	0.0141273
960.947	0.0143774
961.025	0.0143786
961.103	0.0141240
961.182	0.0142193
961.260	0.0142088
961.338	0.0142094
961.416	0.0142224
961.494	0.0141738
961.572	0.0141292
961.650	0.0142199
961.728	0.0142782
961.807	0.0141042
961.885	0.0141051
961.963	0.0141311
962.041	0.0141348
962.119	0.0142404
962.197	0.0142111
962.275	0.0140775
962.353	0.0139221
962.432	0.0140945
962.510	0.0140292
962.588	0.0140412
962.666	0.0140228
962.744	0.0140886
962.822	0.0140302
962.900	0.0139799
962.978	0.0139726
963.057	0.0139210
963.135	0.0140027
963.213	0.0139736
963.291	0.0139605
963.369	0.0140606
963.447	0.0138873
963.525	0.0140119
963.603	0.0139974
963.682	0.0138216
963.760	0.0141229
963.838	0.0140506
963.916	0.0141332
963.994	0.0139792
964.072	0.0140727
964.150	0.0141096
964.228	0.0141204
964.307	0.0141289
964.385	0.0140109
964.463	0.0141847
964.541	0.0142521
964.619	0.0142529
964.697	0.0141308
964.775	0.0141832
964.853	0.0141800
964.932	0.0141944
965.010	0.0141958
965.088	0.0143175
965.166	0.0142625
965.244	0.0141082
965.322	0.0142942
965.400	0.0143400
965.478	0.0141526
965.557	0.0141898
965.635	0.0142703
965.713	0.0142323
965.791	0.0142851
965.869	0.0142293
965.947	0.0143181
966.025	0.0142040
966.103	0.0141667
966.182	0.0141015
966.260	0.0141029
966.338	0.0140969
966.416	0.0140720
966.494	0.0141721
966.572	0.0140622
966.650	0.0139892
966.728	0.0140135
966.807	0.0140471
966.885	0.0139550
966.963	0.0141319
967.041	0.0140530
967.119	0.0140559
967.197	0.0139928
967.275	0.0140049
967.353	0.0139799
967.432	0.0140018
967.510	0.0141188
967.588	0.0141135
967.666	0.0141113
967.744	0.0140845
967.822	0.0140823
967.900	0.0140115
967.978	0.0141527
968.057	0.0141343
968.135	0.0140550
968.213	0.0141000
968.291	0.0141169
968.369	0.0141158
968.447	0.0140121
968.525	0.0140285
968.603	0.0140538
968.682	0.0140852
968.760	0.0140275
968.838	0.0140472
968.916	0.0141411
968.994	0.0141393
969.072	0.0139901
969.150	0.0141011
969.228	0.0141500
969.307	0.0142294
969.385	0.0140472
969.463	0.0141430
969.541	0.0140424
969.619	0.0141217
969.697	0.0140008
969.775	0.0140073
969.853	0.0141619
969.932	0.0141742
