05/14/2022	19:14:24	Ver.	4.1	UNKNOWN
Optical Delay	650.016352	Delta X		0.078125	Sweeps	1	Scan Rate	0/0
Coordinates	Axis 1	NaN	Axis 2	NaN	Axis 3	NaN	Axis 4	NaN	Axis 5	NaN	Axis 6	0.000000
TX Power	0.000000	RX Power	0.000000

650.016	0.0144833
650.094	0.0144384
650.173	0.0144925
650.251	0.0146030
650.329	0.0145329
650.407	0.0143731
650.485	0.0144743
650.563	0.0144819
650.641	0.0146255
650.719	0.0144629
650.798	0.0144527
650.876	0.0144715
650.954	0.0145413
651.032	0.0145702
651.110	0.0146091
651.188	0.0144933
651.266	0.0143693
651.344	0.0145271
651.423	0.0145354
651.501	0.0144897
651.579	0.0144592
651.657	0.0144397
651.735	0.0145202
651.813	0.0143506
651.891	0.0145117
651.969	0.0144933
652.048	0.0145969
652.126	0.0146123
652.204	0.0144403
652.282	0.0146190
652.360	0.0145444
652.438	0.0144659
652.516	0.0145638
652.594	0.0146243
652.673	0.0144509
652.751	0.0145726
652.829	0.0144588
652.907	0.0145198
652.985	0.0146039
653.063	0.0145637
653.141	0.0144865
653.219	0.0144185
653.298	0.0144181
653.376	0.0146210
653.454	0.0144742
653.532	0.0144414
653.610	0.0145979
653.688	0.0144781
653.766	0.0144434
653.844	0.0145394
653.923	0.0145995
654.001	0.0145296
654.079	0.0145193
654.157	0.0144722
654.235	0.0144851
654.313	0.0145937
654.391	0.0144839
654.469	0.0145137
654.548	0.0145483
654.626	0.0146677
654.704	0.0145039
654.782	0.0145498
654.860	0.0145238
654.938	0.0144109
655.016	0.0145513
655.094	0.0146036
655.173	0.0144441
655.251	0.0146263
655.329	0.0143917
655.407	0.0145036
655.485	0.0145132
655.563	0.0145183
655.641	0.0144126
655.719	0.0145536
655.798	0.0145332
655.876	0.0143299
655.954	0.0144160
656.032	0.0144417
656.110	0.0144724
656.188	0.0143908
656.266	0.0144173
656.344	0.0145914
656.423	0.0144216
656.501	0.0142336
656.579	0.0143992
656.657	0.0144937
656.735	0.0144083
656.813	0.0144774
656.891	0.0145766
656.969	0.0142927
657.048	0.0145226
657.126	0.0145222
657.204	0.0144808
657.282	0.0144598
657.360	0.0145606
657.438	0.0143441
657.516	0.0143178
657.594	0.0144711
657.673	0.0144252
657.751	0.0144623
657.829	0.0144905
657.907	0.0144662
657.985	0.0145457
658.063	0.0145134
658.141	0.0145849
658.219	0.0145896
658.298	0.0145775
658.376	0.0145010
658.454	0.0144690
658.532	0.0145000
658.610	0.0145369
658.688	0.0146499
658.766	0.0143557
658.844	0.0144342
658.923	0.0144686
659.001	0.0144306
659.079	0.0144311
659.157	0.0144717
659.235	0.0145488
659.313	0.0144580
659.391	0.0145650
659.469	0.0144967
659.548	0.0144650
659.626	0.0143764
659.704	0.0144682
659.782	0.0145393
659.860	0.0145588
659.938	0.0144122
660.016	0.0144792
660.094	0.0144241
660.173	0.0143968
660.251	0.0145474
660.329	0.0144566
660.407	0.0144252
660.485	0.0144057
660.563	0.0143745
660.641	0.0145510
660.719	0.0145061
660.798	0.0144825
660.876	0.0144313
660.954	0.0144933
661.032	0.0145632
661.110	0.0144888
661.188	0.0145078
661.266	0.0146301
661.344	0.0145175
661.423	0.0144430
661.501	0.0145918
661.579	0.0144048
661.657	0.0144319
661.735	0.0144245
661.813	0.0144604
661.891	0.0145032
661.969	0.0146023
662.048	0.0146764
662.126	0.0145207
662.204	0.0145183
662.282	0.0142894
662.360	0.0144425
662.438	0.0145791
662.516	0.0146288
662.594	0.0146736
662.673	0.0144512
662.751	0.0144798
662.829	0.0145053
662.907	0.0144552
662.985	0.0143584
663.063	0.0145428
663.141	0.0145395
663.219	0.0145358
663.298	0.0145052
663.376	0.0145549
663.454	0.0144270
663.532	0.0146711
663.610	0.0145275
663.688	0.0144652
663.766	0.0145316
663.844	0.0145668
663.923	0.0145069
664.001	0.0145475
664.079	0.0144566
664.157	0.0145087
664.235	0.0144881
664.313	0.0143395
664.391	0.0144933
664.469	0.0144867
664.548	0.0144896
664.626	0.0144555
664.704	0.0143890
664.782	0.0144852
664.860	0.0143479
664.938	0.0144440
665.016	0.0145280
665.094	0.0144189
665.173	0.0145166
665.251	0.0146280
665.329	0.0143868
665.407	0.0144625
665.485	0.0145399
665.563	0.0146072
665.641	0.0145206
665.719	0.0145322
665.798	0.0144267
665.876	0.0144486
665.954	0.0144151
666.032	0.0145281
666.110	0.0145882
666.188	0.0144176
666.266	0.0143563
666.344	0.0145035
666.423	0.0144170
666.501	0.0143783
666.579	0.0145383
666.657	0.0145568
666.735	0.0144127
666.813	0.0144525
666.891	0.0145172
666.969	0.0144222
667.048	0.0145787
667.126	0.0145105
667.204	0.0146082
667.282	0.0145551
667.360	0.0145508
667.438	0.0145200
667.516	0.0144074
667.594	0.0145435
667.673	0.0144898
667.751	0.0144978
667.829	0.0146107
667.907	0.0144841
667.985	0.0144943
668.063	0.0144653
668.141	0.0145677
668.219	0.0143787
668.298	0.0146290
668.376	0.0145951
668.454	0.0143687
668.532	0.0145357
668.610	0.0145213
668.688	0.0145097
668.766	0.0144808
668.844	0.0144248
668.923	0.0144743
669.001	0.0146164
669.079	0.0144673
669.157	0.0144309
669.235	0.0145003
669.313	0.0143563
669.391	0.0145483
669.469	0.0144492
669.548	0.0144424
669.626	0.0145834
669.704	0.0144443
669.782	0.0144864
669.860	0.0145522
669.938	0.0143803
670.016	0.0145615
670.094	0.0144124
670.173	0.0144198
670.251	0.0144238
670.329	0.0146458
670.407	0.0144933
670.485	0.0144391
670.563	0.0143300
670.641	0.0144736
670.719	0.0144357
670.798	0.0144335
670.876	0.0144390
670.954	0.0144593
671.032	0.0146142
671.110	0.0144003
671.188	0.0144190
671.266	0.0145895
671.344	0.0144746
671.423	0.0144714
671.501	0.0143941
671.579	0.0143891
671.657	0.0144865
671.735	0.0146115
671.813	0.0146031
671.891	0.0144609
671.969	0.0144952
672.048	0.0145539
672.126	0.0144734
672.204	0.0144447
672.282	0.0146425
672.360	0.0145841
672.438	0.0144344
672.516	0.0144380
672.594	0.0145395
672.673	0.0145903
672.751	0.0144503
672.829	0.0145487
672.907	0.0144057
672.985	0.0145045
673.063	0.0144947
673.141	0.0144367
673.219	0.0143927
673.298	0.0144437
673.376	0.0144467
673.454	0.0144534
673.532	0.0145786
673.610	0.0144955
673.688	0.0143407
673.766	0.0143556
673.844	0.0145333
673.923	0.0145660
674.001	0.0144437
674.079	0.0145050
674.157	0.0145668
674.235	0.0144070
674.313	0.0145943
674.391	0.0143418
674.469	0.0143850
674.548	0.0144912
674.626	0.0146275
674.704	0.0145036
674.782	0.0144344
674.860	0.0143398
674.938	0.0144495
675.016	0.0144552
675.094	0.0144437
675.173	0.0144758
675.251	0.0143188
675.329	0.0144076
675.407	0.0144947
675.485	0.0145492
675.563	0.0145340
675.641	0.0144677
675.719	0.0145677
675.798	0.0144158
675.876	0.0144278
675.954	0.0144434
676.032	0.0144839
676.110	0.0144150
676.188	0.0144584
676.266	0.0145810
676.344	0.0144616
676.423	0.0144164
676.501	0.0145072
676.579	0.0145493
676.657	0.0145483
676.735	0.0144193
676.813	0.0143629
676.891	0.0145061
676.969	0.0145159
677.048	0.0145467
677.126	0.0143393
677.204	0.0144724
677.282	0.0144105
677.360	0.0143092
677.438	0.0144292
677.516	0.0143437
677.594	0.0145008
677.673	0.0143488
677.751	0.0143427
677.829	0.0145722
677.907	0.0145969
677.985	0.0143856
678.063	0.0144757
678.141	0.0144335
678.219	0.0144430
678.298	0.0144487
678.376	0.0144072
678.454	0.0144165
678.532	0.0143576
678.610	0.0144297
678.688	0.0144034
678.766	0.0144128
678.844	0.0144330
678.923	0.0143105
679.001	0.0144737
679.079	0.0144889
679.157	0.0144099
679.235	0.0144803
679.313	0.0144881
679.391	0.0145801
679.469	0.0145560
679.548	0.0144400
679.626	0.0144633
679.704	0.0144461
679.782	0.0146075
679.860	0.0144962
679.938	0.0144997
680.016	0.0144286
680.094	0.0145511
680.173	0.0143315
680.251	0.0143214
680.329	0.0145132
680.407	0.0145242
680.485	0.0145389
680.563	0.0145065
680.641	0.0144905
680.719	0.0145195
680.798	0.0144942
680.876	0.0145414
680.954	0.0145129
681.032	0.0144995
681.110	0.0145364
681.188	0.0145287
681.266	0.0144670
681.344	0.0143881
681.423	0.0144570
681.501	0.0145550
681.579	0.0145914
681.657	0.0144161
681.735	0.0143939
681.813	0.0144260
681.891	0.0145116
681.969	0.0145380
682.048	0.0143916
682.126	0.0144799
682.204	0.0144431
682.282	0.0145692
682.360	0.0145605
682.438	0.0145821
682.516	0.0144389
682.594	0.0144708
682.673	0.0144791
682.751	0.0144471
682.829	0.0144985
682.907	0.0145718
682.985	0.0145306
683.063	0.0145338
683.141	0.0145080
683.219	0.0144816
683.298	0.0145523
683.376	0.0144648
683.454	0.0147019
683.532	0.0145343
683.610	0.0145515
683.688	0.0144514
683.766	0.0143441
683.844	0.0143250
683.923	0.0143990
684.001	0.0142919
684.079	0.0143766
684.157	0.0145619
684.235	0.0145006
684.313	0.0145895
684.391	0.0146294
684.469	0.0145888
684.548	0.0145565
684.626	0.0146936
684.704	0.0146933
684.782	0.0146450
684.860	0.0145967
684.938	0.0144906
685.016	0.0145239
685.094	0.0144166
685.173	0.0141121
685.251	0.0141460
685.329	0.0140567
685.407	0.0139130
685.485	0.0140350
685.563	0.0140060
685.641	0.0138806
685.719	0.0141724
685.798	0.0141879
685.876	0.0142455
685.954	0.0146384
686.032	0.0146857
686.110	0.0148454
686.188	0.0150480
686.266	0.0152932
686.344	0.0152938
686.423	0.0151858
686.501	0.0151777
686.579	0.0152282
686.657	0.0151159
686.735	0.0149079
686.813	0.0147038
686.891	0.0145393
686.969	0.0143856
687.048	0.0141808
687.126	0.0140311
687.204	0.0137505
687.282	0.0137518
687.360	0.0135751
687.438	0.0133701
687.516	0.0133875
687.594	0.0133798
687.673	0.0132864
687.751	0.0130532
687.829	0.0132224
687.907	0.0132449
687.985	0.0133385
688.063	0.0135429
688.141	0.0136291
688.219	0.0137922
688.298	0.0143092
688.376	0.0147793
688.454	0.0151604
688.532	0.0157188
688.610	0.0160237
688.688	0.0164704
688.766	0.0169555
688.844	0.0172612
688.923	0.0174094
689.001	0.0175799
689.079	0.0176688
689.157	0.0175101
689.235	0.0173652
689.313	0.0166880
689.391	0.0163689
689.469	0.0157797
689.548	0.0149384
689.626	0.0141664
689.704	0.0133737
689.782	0.0125943
689.860	0.0117652
689.938	0.0110072
690.016	0.0105945
690.094	0.0101785
690.173	0.00968910
690.251	0.00960167
690.329	0.00951660
690.407	0.00981483
690.485	0.00992897
690.563	0.0101837
690.641	0.0106753
690.719	0.0111909
690.798	0.0118898
690.876	0.0127222
690.954	0.0136481
691.032	0.0145064
691.110	0.0155592
691.188	0.0164153
691.266	0.0176096
691.344	0.0186395
691.423	0.0196148
691.501	0.0205328
691.579	0.0213200
691.657	0.0218874
691.735	0.0222923
691.813	0.0223892
691.891	0.0222912
691.969	0.0218020
692.048	0.0209435
692.126	0.0200240
692.204	0.0189360
692.282	0.0179032
692.360	0.0164191
692.438	0.0150664
692.516	0.0137888
692.594	0.0126472
692.673	0.0113235
692.751	0.0101115
692.829	0.00936447
692.907	0.00844078
692.985	0.00756020
693.063	0.00712410
693.141	0.00639099
693.219	0.00592384
693.298	0.00564224
693.376	0.00539490
693.454	0.00540825
693.532	0.00564331
693.610	0.00615166
693.688	0.00680252
693.766	0.00784836
693.844	0.00894150
693.923	0.0103192
694.001	0.0117715
694.079	0.0133527
694.157	0.0149545
694.235	0.0164632
694.313	0.0180813
694.391	0.0194494
694.469	0.0207734
694.548	0.0221202
694.626	0.0232687
694.704	0.0242586
694.782	0.0253156
694.860	0.0260786
694.938	0.0266360
695.016	0.0269812
695.094	0.0269957
695.173	0.0266460
695.251	0.0261876
695.329	0.0252086
695.407	0.0238090
695.485	0.0220303
695.563	0.0201568
695.641	0.0178477
695.719	0.0156442
695.798	0.0134863
695.876	0.0111739
695.954	0.00919907
696.032	0.00719948
696.110	0.00576111
696.188	0.00452919
696.266	0.00347244
696.344	0.00286720
696.423	0.00248787
696.501	0.00231888
696.579	0.00223564
696.657	0.00248001
696.735	0.00288284
696.813	0.00333153
696.891	0.00389633
696.969	0.00447937
697.048	0.00536743
697.126	0.00643425
697.204	0.00753555
697.282	0.00892883
697.360	0.0104559
697.438	0.0123509
697.516	0.0142007
697.594	0.0158894
697.673	0.0177505
697.751	0.0194334
697.829	0.0208972
697.907	0.0220874
697.985	0.0233195
698.063	0.0242059
698.141	0.0246811
698.219	0.0253142
698.298	0.0255299
698.376	0.0257108
698.454	0.0258183
698.532	0.0257071
698.610	0.0255347
698.688	0.0251685
698.766	0.0247694
698.844	0.0244586
698.923	0.0236002
699.001	0.0227106
699.079	0.0215929
699.157	0.0202633
699.235	0.0187673
699.313	0.0171505
699.391	0.0154115
699.469	0.0136376
699.548	0.0121204
699.626	0.0103139
699.704	0.00881493
699.782	0.00749489
699.860	0.00621979
699.938	0.00519798
700.016	0.00422066
700.094	0.00340828
700.173	0.00295700
700.251	0.00265808
700.329	0.00260368
700.407	0.00277657
700.485	0.00307068
700.563	0.00325127
700.641	0.00394714
700.719	0.00453941
700.798	0.00523056
700.876	0.00629196
700.954	0.00721191
701.032	0.00856728
701.110	0.00999115
701.188	0.0113195
701.266	0.0129318
701.344	0.0143674
701.423	0.0159423
701.501	0.0173731
701.579	0.0186678
701.657	0.0198734
701.735	0.0210835
701.813	0.0222302
701.891	0.0230148
701.969	0.0236993
702.048	0.0245566
702.126	0.0250222
702.204	0.0252997
702.282	0.0256311
702.360	0.0258781
702.438	0.0256694
702.516	0.0251574
702.594	0.0248884
702.673	0.0240099
702.751	0.0231008
702.829	0.0219425
702.907	0.0206366
702.985	0.0192646
703.063	0.0179069
703.141	0.0165461
703.219	0.0150897
703.298	0.0136527
703.376	0.0125536
703.454	0.0112300
703.532	0.0100877
703.610	0.00922783
703.688	0.00837448
703.766	0.00742905
703.844	0.00692924
703.923	0.00659370
704.001	0.00605133
704.079	0.00594032
704.157	0.00561028
704.235	0.00574707
704.313	0.00579208
704.391	0.00601685
704.469	0.00654305
704.548	0.00708038
704.626	0.00759003
704.704	0.00844055
704.782	0.00918694
704.860	0.00993126
704.938	0.0110610
705.016	0.0119033
705.094	0.0129094
705.173	0.0138695
705.251	0.0148646
705.329	0.0157703
705.407	0.0166690
705.485	0.0172457
705.563	0.0178423
705.641	0.0185066
705.719	0.0189147
705.798	0.0192448
705.876	0.0194560
705.954	0.0196240
706.032	0.0198267
706.110	0.0196684
706.188	0.0195193
706.266	0.0194135
706.344	0.0191309
706.423	0.0187175
706.501	0.0182471
706.579	0.0178976
706.657	0.0174030
706.735	0.0166787
706.813	0.0162032
706.891	0.0158354
706.969	0.0153886
707.048	0.0150217
707.126	0.0146674
707.204	0.0143351
707.282	0.0143446
707.360	0.0142187
707.438	0.0142078
707.516	0.0141662
707.594	0.0140260
707.673	0.0140912
707.751	0.0141189
707.829	0.0140984
707.907	0.0140546
707.985	0.0142883
708.063	0.0141592
708.141	0.0139365
708.219	0.0138374
708.298	0.0138121
708.376	0.0137347
708.454	0.0136197
708.532	0.0136344
708.610	0.0134876
708.688	0.0132647
708.766	0.0132886
708.844	0.0133279
708.923	0.0132518
709.001	0.0131227
709.079	0.0130853
709.157	0.0132980
709.235	0.0133345
709.313	0.0133981
709.391	0.0133434
709.469	0.0132612
709.548	0.0131906
709.626	0.0130926
709.704	0.0130672
709.782	0.0131415
709.860	0.0130604
709.938	0.0131216
710.016	0.0131652
710.094	0.0132893
710.173	0.0133345
710.251	0.0135472
710.329	0.0136333
710.407	0.0137579
710.485	0.0139894
710.563	0.0140401
710.641	0.0139362
710.719	0.0141390
710.798	0.0141254
710.876	0.0142987
710.954	0.0142255
711.032	0.0143063
711.110	0.0142514
711.188	0.0143200
711.266	0.0143228
711.344	0.0143003
711.423	0.0145889
711.501	0.0147722
711.579	0.0150482
711.657	0.0152357
711.735	0.0156421
711.813	0.0159286
711.891	0.0163999
711.969	0.0164239
712.048	0.0166858
712.126	0.0170797
712.204	0.0172683
712.282	0.0172988
712.360	0.0173689
712.438	0.0173991
712.516	0.0172840
712.594	0.0171059
712.673	0.0170751
712.751	0.0170541
712.829	0.0166522
712.907	0.0164130
712.985	0.0162772
713.063	0.0160508
713.141	0.0157763
713.219	0.0153544
713.298	0.0151851
713.376	0.0148413
713.454	0.0145902
713.532	0.0142537
713.610	0.0139628
713.688	0.0138043
713.766	0.0134273
713.844	0.0132288
713.923	0.0131079
714.001	0.0127509
714.079	0.0127268
714.157	0.0125427
714.235	0.0125468
714.313	0.0125179
714.391	0.0125366
714.469	0.0123759
714.548	0.0124722
714.626	0.0125883
714.704	0.0124564
714.782	0.0126249
714.860	0.0126605
714.938	0.0125799
715.016	0.0126530
715.094	0.0125916
715.173	0.0125986
715.251	0.0125845
715.329	0.0128088
715.407	0.0128030
715.485	0.0128754
715.563	0.0131313
715.641	0.0131903
715.719	0.0134864
715.798	0.0136583
715.876	0.0138071
715.954	0.0138881
716.032	0.0143189
716.110	0.0144136
716.188	0.0145876
716.266	0.0147908
716.344	0.0149644
716.423	0.0152732
716.501	0.0153916
716.579	0.0155312
716.657	0.0156902
716.735	0.0159296
716.813	0.0160036
716.891	0.0160224
716.969	0.0162604
717.048	0.0163866
717.126	0.0163531
717.204	0.0164875
717.282	0.0163853
717.360	0.0163685
717.438	0.0163054
717.516	0.0160574
717.594	0.0159213
717.673	0.0157986
717.751	0.0157484
717.829	0.0153666
717.907	0.0152399
717.985	0.0151113
718.063	0.0152261
718.141	0.0151237
718.219	0.0150641
718.298	0.0150446
718.376	0.0149813
718.454	0.0148614
718.532	0.0150578
718.610	0.0149990
718.688	0.0150752
718.766	0.0148890
718.844	0.0148158
718.923	0.0149533
719.001	0.0148549
719.079	0.0146088
719.157	0.0147096
719.235	0.0147020
719.313	0.0144908
719.391	0.0143200
719.469	0.0142273
719.548	0.0140922
719.626	0.0140083
719.704	0.0137798
719.782	0.0138461
719.860	0.0136014
719.938	0.0134277
720.016	0.0133089
720.094	0.0131098
720.173	0.0130707
720.251	0.0128152
720.329	0.0128092
720.407	0.0126942
720.485	0.0125953
720.563	0.0125621
720.641	0.0126708
720.719	0.0125987
720.798	0.0124990
720.876	0.0125605
720.954	0.0126938
721.032	0.0128285
721.110	0.0129128
721.188	0.0130054
721.266	0.0131261
721.344	0.0133677
721.423	0.0134795
721.501	0.0136066
721.579	0.0138477
721.657	0.0140645
721.735	0.0141575
721.813	0.0145064
721.891	0.0147947
721.969	0.0150114
722.048	0.0152632
722.126	0.0154350
722.204	0.0156279
722.282	0.0159991
722.360	0.0161801
722.438	0.0163943
722.516	0.0165586
722.594	0.0166552
722.673	0.0167422
722.751	0.0166763
722.829	0.0167505
722.907	0.0167528
722.985	0.0164175
723.063	0.0162406
723.141	0.0160654
723.219	0.0159650
723.298	0.0156496
723.376	0.0155468
723.454	0.0153392
723.532	0.0151570
723.610	0.0149899
723.688	0.0149165
723.766	0.0148428
723.844	0.0148920
723.923	0.0149628
724.001	0.0148644
724.079	0.0148429
724.157	0.0148763
724.235	0.0148755
724.313	0.0148319
724.391	0.0148084
724.469	0.0147939
724.548	0.0148509
724.626	0.0146854
724.704	0.0145977
724.782	0.0144956
724.860	0.0144090
724.938	0.0144267
725.016	0.0143261
725.094	0.0142626
725.173	0.0141100
725.251	0.0139722
725.329	0.0139012
725.407	0.0137829
725.485	0.0137690
725.563	0.0136387
725.641	0.0136780
725.719	0.0135860
725.798	0.0134873
725.876	0.0133555
725.954	0.0133817
726.032	0.0132692
726.110	0.0133067
726.188	0.0134452
726.266	0.0133194
726.344	0.0133140
726.423	0.0134585
726.501	0.0134787
726.579	0.0134714
726.657	0.0134017
726.735	0.0134874
726.813	0.0135352
726.891	0.0134870
726.969	0.0135956
727.048	0.0135959
727.126	0.0136243
727.204	0.0136156
727.282	0.0135487
727.360	0.0136287
727.438	0.0138246
727.516	0.0138062
727.594	0.0139980
727.673	0.0141827
727.751	0.0143164
727.829	0.0143931
727.907	0.0147543
727.985	0.0147445
728.063	0.0150141
728.141	0.0151821
728.219	0.0153651
728.298	0.0154749
728.376	0.0156481
728.454	0.0158047
728.532	0.0158136
728.610	0.0158519
728.688	0.0159351
728.766	0.0159097
728.844	0.0161176
728.923	0.0161917
729.001	0.0160172
729.079	0.0160292
729.157	0.0160857
729.235	0.0159914
729.313	0.0159516
729.391	0.0160315
729.469	0.0161041
729.548	0.0159611
729.626	0.0158568
729.704	0.0158849
729.782	0.0158263
729.860	0.0156561
729.938	0.0156231
730.016	0.0156483
730.094	0.0154486
730.173	0.0154748
730.251	0.0151675
730.329	0.0151418
730.407	0.0151358
730.485	0.0148756
730.563	0.0148110
730.641	0.0144083
730.719	0.0141192
730.798	0.0140340
730.876	0.0138811
730.954	0.0135960
731.032	0.0133932
731.110	0.0132631
731.188	0.0131528
731.266	0.0130015
731.344	0.0128405
731.423	0.0126334
731.501	0.0126378
731.579	0.0126688
731.657	0.0127366
731.735	0.0127756
731.813	0.0126598
731.891	0.0126379
731.969	0.0126119
732.048	0.0126754
732.126	0.0125666
732.204	0.0126569
732.282	0.0127205
732.360	0.0127329
732.438	0.0128338
732.516	0.0128332
732.594	0.0129181
732.673	0.0130949
732.751	0.0134795
732.829	0.0135506
732.907	0.0138493
732.985	0.0140838
733.063	0.0142726
733.141	0.0145303
733.219	0.0148077
733.298	0.0151028
733.376	0.0151730
733.454	0.0154989
733.532	0.0155146
733.610	0.0155913
733.688	0.0159512
733.766	0.0157885
733.844	0.0158083
733.923	0.0159392
734.001	0.0160852
734.079	0.0160907
734.157	0.0160569
734.235	0.0159315
734.313	0.0159827
734.391	0.0159326
734.469	0.0158442
734.548	0.0157383
734.626	0.0157355
734.704	0.0157540
734.782	0.0157203
734.860	0.0155070
734.938	0.0153845
735.016	0.0155206
735.094	0.0154636
735.173	0.0152895
735.251	0.0152081
735.329	0.0150546
735.407	0.0151392
735.485	0.0148826
735.563	0.0149744
735.641	0.0147052
735.719	0.0144907
735.798	0.0143234
735.876	0.0141823
735.954	0.0140326
736.032	0.0138456
736.110	0.0137371
736.188	0.0136309
736.266	0.0134699
736.344	0.0135044
736.423	0.0135350
736.501	0.0133238
736.579	0.0134711
736.657	0.0134261
736.735	0.0134570
736.813	0.0135017
736.891	0.0134535
736.969	0.0134348
737.048	0.0134849
737.126	0.0135596
737.204	0.0136435
737.282	0.0136294
737.360	0.0137643
737.438	0.0138615
737.516	0.0141227
737.594	0.0139847
737.673	0.0140707
737.751	0.0141342
737.829	0.0141843
737.907	0.0142831
737.985	0.0142703
738.063	0.0142616
738.141	0.0143242
738.219	0.0143768
738.298	0.0143585
738.376	0.0144805
738.454	0.0144312
738.532	0.0144766
738.610	0.0143052
738.688	0.0144415
738.766	0.0144908
738.844	0.0146301
738.923	0.0148057
739.001	0.0145909
739.079	0.0147856
739.157	0.0146844
739.235	0.0147810
739.313	0.0146825
739.391	0.0146700
739.469	0.0149009
739.548	0.0146997
739.626	0.0145904
739.704	0.0145853
739.782	0.0145419
739.860	0.0144986
739.938	0.0145585
740.016	0.0146852
740.094	0.0146230
740.173	0.0145031
740.251	0.0147727
740.329	0.0146554
740.407	0.0148467
740.485	0.0148374
740.563	0.0149757
740.641	0.0150651
740.719	0.0150741
740.798	0.0151774
740.876	0.0151433
740.954	0.0151550
741.032	0.0151410
741.110	0.0151172
741.188	0.0149732
741.266	0.0150401
741.344	0.0150380
741.423	0.0149266
741.501	0.0147803
741.579	0.0147658
741.657	0.0146989
741.735	0.0145215
741.813	0.0144151
741.891	0.0142915
741.969	0.0144011
742.048	0.0142561
742.126	0.0141953
742.204	0.0141620
742.282	0.0141555
742.360	0.0139114
742.438	0.0140339
742.516	0.0138826
742.594	0.0141108
742.673	0.0140587
742.751	0.0140583
742.829	0.0141975
742.907	0.0142231
742.985	0.0141001
743.063	0.0142851
743.141	0.0142945
743.219	0.0142369
743.298	0.0142747
743.376	0.0143839
743.454	0.0144536
743.532	0.0143654
743.610	0.0142618
743.688	0.0144378
743.766	0.0144861
743.844	0.0144578
743.923	0.0144891
744.001	0.0146169
744.079	0.0143844
744.157	0.0145388
744.235	0.0145517
744.313	0.0146431
744.391	0.0145639
744.469	0.0145319
744.548	0.0144812
744.626	0.0144656
744.704	0.0145137
744.782	0.0145841
744.860	0.0145171
744.938	0.0145809
745.016	0.0144252
745.094	0.0145783
745.173	0.0145371
745.251	0.0145397
745.329	0.0144894
745.407	0.0144661
745.485	0.0144338
745.563	0.0144159
745.641	0.0145325
745.719	0.0144214
745.798	0.0144171
745.876	0.0145444
745.954	0.0145201
746.032	0.0144521
746.110	0.0144616
746.188	0.0145036
746.266	0.0145791
746.344	0.0143768
746.423	0.0145716
746.501	0.0145724
746.579	0.0144317
746.657	0.0145476
746.735	0.0143601
746.813	0.0144245
746.891	0.0145548
746.969	0.0144769
747.048	0.0144485
747.126	0.0144881
747.204	0.0145076
747.282	0.0145888
747.360	0.0145493
747.438	0.0146993
747.516	0.0146938
747.594	0.0146217
747.673	0.0148077
747.751	0.0147144
747.829	0.0149256
747.907	0.0148782
747.985	0.0149536
748.063	0.0150311
748.141	0.0150516
748.219	0.0151476
748.298	0.0150312
748.376	0.0148765
748.454	0.0147633
748.532	0.0147675
748.610	0.0146996
748.688	0.0145991
748.766	0.0144856
748.844	0.0143336
748.923	0.0143101
749.001	0.0142278
749.079	0.0141378
749.157	0.0141006
749.235	0.0142100
749.313	0.0142732
749.391	0.0141156
749.469	0.0141979
749.548	0.0143738
749.626	0.0144170
749.704	0.0145682
749.782	0.0146327
749.860	0.0146715
749.938	0.0148300
750.016	0.0148785
750.094	0.0148506
750.173	0.0148362
750.251	0.0148897
750.329	0.0150057
750.407	0.0149416
750.485	0.0147456
750.563	0.0148617
750.641	0.0147995
750.719	0.0146874
750.798	0.0147569
750.876	0.0146442
750.954	0.0145663
751.032	0.0145622
751.110	0.0144763
751.188	0.0144568
751.266	0.0144727
751.344	0.0142844
751.423	0.0143111
751.501	0.0142776
751.579	0.0143040
751.657	0.0142638
751.735	0.0143666
751.813	0.0143296
751.891	0.0142965
751.969	0.0143294
752.048	0.0144144
752.126	0.0142876
752.204	0.0143472
752.282	0.0143056
752.360	0.0142999
752.438	0.0142613
752.516	0.0141357
752.594	0.0141684
752.673	0.0142007
752.751	0.0140774
752.829	0.0141821
752.907	0.0140447
752.985	0.0141418
753.063	0.0140913
753.141	0.0139918
753.219	0.0138808
753.298	0.0141016
753.376	0.0142389
753.454	0.0140095
753.532	0.0140841
753.610	0.0140517
753.688	0.0141983
753.766	0.0142846
753.844	0.0143846
753.923	0.0144014
754.001	0.0143936
754.079	0.0146729
754.157	0.0145840
754.235	0.0147231
754.313	0.0147014
754.391	0.0148733
754.469	0.0149690
754.548	0.0149959
754.626	0.0151385
754.704	0.0151970
754.782	0.0151150
754.860	0.0151944
754.938	0.0153479
755.016	0.0153571
755.094	0.0153777
755.173	0.0153609
755.251	0.0151738
755.329	0.0151644
755.407	0.0152216
755.485	0.0152798
755.563	0.0151468
755.641	0.0150697
755.719	0.0151644
755.798	0.0150211
755.876	0.0148839
755.954	0.0147025
756.032	0.0147097
756.110	0.0146709
756.188	0.0146619
756.266	0.0145683
756.344	0.0145424
756.423	0.0145321
756.501	0.0144826
756.579	0.0143987
756.657	0.0142718
756.735	0.0141813
756.813	0.0141402
756.891	0.0142307
756.969	0.0142112
757.048	0.0140086
757.126	0.0140623
757.204	0.0139133
757.282	0.0140262
757.360	0.0139497
757.438	0.0139397
757.516	0.0139429
757.594	0.0138952
757.673	0.0139444
757.751	0.0138672
757.829	0.0139500
757.907	0.0139214
757.985	0.0139213
758.063	0.0139201
758.141	0.0139413
758.219	0.0141582
758.298	0.0140940
758.376	0.0142223
758.454	0.0141156
758.532	0.0142098
758.610	0.0142561
758.688	0.0142690
758.766	0.0141661
758.844	0.0143076
758.923	0.0141493
759.001	0.0139787
759.079	0.0139986
759.157	0.0140955
759.235	0.0141711
759.313	0.0138184
759.391	0.0137757
759.469	0.0139781
759.548	0.0139038
759.626	0.0138943
759.704	0.0140619
759.782	0.0139672
759.860	0.0141174
759.938	0.0142641
760.016	0.0142246
760.094	0.0145909
760.173	0.0146072
760.251	0.0145574
760.329	0.0147578
760.407	0.0149819
760.485	0.0150992
760.563	0.0151506
760.641	0.0152916
760.719	0.0153493
760.798	0.0152837
760.876	0.0154434
760.954	0.0155940
761.032	0.0154312
761.110	0.0155038
761.188	0.0156516
761.266	0.0154694
761.344	0.0153999
761.423	0.0153364
761.501	0.0152164
761.579	0.0150580
761.657	0.0151065
761.735	0.0148882
761.813	0.0147636
761.891	0.0145591
761.969	0.0143945
762.048	0.0143277
762.126	0.0142532
762.204	0.0141663
762.282	0.0141000
762.360	0.0140813
762.438	0.0140561
762.516	0.0139447
762.594	0.0141582
762.673	0.0141033
762.751	0.0140774
762.829	0.0141088
762.907	0.0142158
762.985	0.0142698
763.063	0.0142474
763.141	0.0141416
763.219	0.0141445
763.298	0.0142467
763.376	0.0141640
763.454	0.0141949
763.532	0.0141884
763.610	0.0143022
763.688	0.0142106
763.766	0.0141759
763.844	0.0141466
763.923	0.0141074
764.001	0.0141178
764.079	0.0140105
764.157	0.0141171
764.235	0.0140952
764.313	0.0140334
764.391	0.0139423
764.469	0.0140128
764.548	0.0140183
764.626	0.0140536
764.704	0.0140876
764.782	0.0139431
764.860	0.0140246
764.938	0.0141812
765.016	0.0143157
765.094	0.0144179
765.173	0.0143959
765.251	0.0142686
765.329	0.0143782
765.407	0.0145329
765.485	0.0144873
765.563	0.0145827
765.641	0.0145396
765.719	0.0146173
765.798	0.0144124
765.876	0.0146899
765.954	0.0148003
766.032	0.0147108
766.110	0.0145699
766.188	0.0147552
766.266	0.0147890
766.344	0.0147734
766.423	0.0146682
766.501	0.0148214
766.579	0.0147489
766.657	0.0146775
766.735	0.0145311
766.813	0.0147912
766.891	0.0146881
766.969	0.0147260
767.048	0.0148075
767.126	0.0148306
767.204	0.0147985
767.282	0.0148213
767.360	0.0149129
767.438	0.0149187
767.516	0.0148856
767.594	0.0148746
767.673	0.0150855
767.751	0.0148817
767.829	0.0149484
767.907	0.0149232
767.985	0.0149246
768.063	0.0149377
768.141	0.0147958
768.219	0.0147962
768.298	0.0147440
768.376	0.0146899
768.454	0.0145744
768.532	0.0143839
768.610	0.0143852
768.688	0.0143388
768.766	0.0142145
768.844	0.0142610
768.923	0.0142371
769.001	0.0143791
769.079	0.0142439
769.157	0.0141366
769.235	0.0142067
769.313	0.0142133
769.391	0.0144244
769.469	0.0143886
769.548	0.0145064
769.626	0.0144853
769.704	0.0144109
769.782	0.0144864
769.860	0.0143989
769.938	0.0144231
770.016	0.0144970
770.094	0.0145132
770.173	0.0144267
770.251	0.0143211
770.329	0.0144032
770.407	0.0144280
770.485	0.0143263
770.563	0.0141969
770.641	0.0143011
770.719	0.0141954
770.798	0.0141365
770.876	0.0141195
770.954	0.0141601
771.032	0.0142845
771.110	0.0139745
771.188	0.0140243
771.266	0.0141596
771.344	0.0141699
771.423	0.0141280
771.501	0.0142489
771.579	0.0142577
771.657	0.0142389
771.735	0.0142329
771.813	0.0142989
771.891	0.0142797
771.969	0.0143620
772.048	0.0142876
772.126	0.0144765
772.204	0.0144005
772.282	0.0144880
772.360	0.0143475
772.438	0.0143926
772.516	0.0144075
772.594	0.0145937
772.673	0.0145791
772.751	0.0146563
772.829	0.0147919
772.907	0.0147488
772.985	0.0146548
773.063	0.0147647
773.141	0.0147927
773.219	0.0147486
773.298	0.0149337
773.376	0.0150387
773.454	0.0149475
773.532	0.0150043
773.610	0.0150632
773.688	0.0149070
773.766	0.0147540
773.844	0.0148585
773.923	0.0147716
774.001	0.0147443
774.079	0.0147921
774.157	0.0146667
774.235	0.0146800
774.313	0.0147421
774.391	0.0146384
774.469	0.0144941
774.548	0.0145054
774.626	0.0145097
774.704	0.0144817
774.782	0.0144621
774.860	0.0145632
774.938	0.0145063
775.016	0.0145235
775.094	0.0144521
775.173	0.0143482
775.251	0.0144308
775.329	0.0145035
775.407	0.0145066
775.485	0.0143523
775.563	0.0143270
775.641	0.0144281
775.719	0.0143828
775.798	0.0143089
775.876	0.0143771
775.954	0.0144044
776.032	0.0143850
776.110	0.0142220
776.188	0.0143511
776.266	0.0143156
776.344	0.0143460
776.423	0.0144029
776.501	0.0143951
776.579	0.0143131
776.657	0.0144099
776.735	0.0142304
776.813	0.0143069
776.891	0.0144312
776.969	0.0142146
777.048	0.0142638
777.126	0.0144247
777.204	0.0142999
777.282	0.0143173
777.360	0.0142870
777.438	0.0143368
777.516	0.0144592
777.594	0.0143277
777.673	0.0142821
777.751	0.0142532
777.829	0.0143790
777.907	0.0144738
777.985	0.0144926
778.063	0.0144386
778.141	0.0144721
778.219	0.0145824
778.298	0.0145824
778.376	0.0144231
778.454	0.0145856
778.532	0.0146815
778.610	0.0145361
778.688	0.0145078
778.766	0.0147477
778.844	0.0146800
778.923	0.0145802
779.001	0.0146968
779.079	0.0146274
779.157	0.0144701
779.235	0.0145434
779.313	0.0144418
779.391	0.0145115
779.469	0.0144141
779.548	0.0144097
779.626	0.0143575
779.704	0.0142887
779.782	0.0143461
779.860	0.0143323
779.938	0.0143750
780.016	0.0144019
780.094	0.0143636
780.173	0.0143797
780.251	0.0142898
780.329	0.0142958
780.407	0.0144882
780.485	0.0144430
780.563	0.0145277
780.641	0.0146552
780.719	0.0145670
780.798	0.0145497
780.876	0.0147727
780.954	0.0147259
781.032	0.0146336
781.110	0.0146703
781.188	0.0146023
781.266	0.0147312
781.344	0.0148524
781.423	0.0147403
781.501	0.0147150
781.579	0.0147202
781.657	0.0147310
781.735	0.0146655
781.813	0.0145963
781.891	0.0146048
781.969	0.0145653
782.048	0.0147665
782.126	0.0146774
782.204	0.0144741
782.282	0.0146392
782.360	0.0146484
782.438	0.0145021
782.516	0.0143966
782.594	0.0144798
782.673	0.0144603
782.751	0.0143987
782.829	0.0143674
782.907	0.0142549
782.985	0.0141418
783.063	0.0142308
783.141	0.0143540
783.219	0.0143163
783.298	0.0142062
783.376	0.0142995
783.454	0.0141578
783.532	0.0142085
783.610	0.0140855
783.688	0.0140765
783.766	0.0140966
783.844	0.0140670
783.923	0.0139788
784.001	0.0139413
784.079	0.0140645
784.157	0.0139793
784.235	0.0140462
784.313	0.0139778
784.391	0.0139173
784.469	0.0140968
784.548	0.0141646
784.626	0.0142480
784.704	0.0142493
784.782	0.0143718
784.860	0.0144865
784.938	0.0145425
785.016	0.0145617
785.094	0.0145567
785.173	0.0148298
785.251	0.0147827
785.329	0.0148859
785.407	0.0148621
785.485	0.0150706
785.563	0.0150952
785.641	0.0149468
785.719	0.0149702
785.798	0.0149356
785.876	0.0149459
785.954	0.0149100
786.032	0.0148929
786.110	0.0148810
786.188	0.0146060
786.266	0.0145988
786.344	0.0145923
786.423	0.0144581
786.501	0.0143670
786.579	0.0143288
786.657	0.0142771
786.735	0.0141872
786.813	0.0141110
786.891	0.0139897
786.969	0.0141427
787.048	0.0141907
787.126	0.0139027
787.204	0.0139433
787.282	0.0141025
787.360	0.0142377
787.438	0.0142504
787.516	0.0142442
787.594	0.0144311
787.673	0.0144968
787.751	0.0144390
787.829	0.0146512
787.907	0.0147311
787.985	0.0149184
788.063	0.0150397
788.141	0.0151060
788.219	0.0151122
788.298	0.0149500
788.376	0.0149406
788.454	0.0150515
788.532	0.0150420
788.610	0.0149033
788.688	0.0147514
788.766	0.0147000
788.844	0.0146738
788.923	0.0147133
789.001	0.0143245
789.079	0.0142596
789.157	0.0142583
789.235	0.0140966
789.313	0.0138792
789.391	0.0139606
789.469	0.0137885
789.548	0.0137868
789.626	0.0138410
789.704	0.0136317
789.782	0.0137386
789.860	0.0137312
789.938	0.0137653
790.016	0.0138087
790.094	0.0137100
790.173	0.0138008
790.251	0.0139699
790.329	0.0140440
790.407	0.0143824
790.485	0.0142594
790.563	0.0142365
790.641	0.0144341
790.719	0.0144384
790.798	0.0147874
790.876	0.0150658
790.954	0.0150533
791.032	0.0151515
791.110	0.0153411
791.188	0.0154791
791.266	0.0154416
791.344	0.0156612
791.423	0.0158521
791.501	0.0157357
791.579	0.0159087
791.657	0.0158236
791.735	0.0157609
791.813	0.0158333
791.891	0.0156107
791.969	0.0154104
792.048	0.0153455
792.126	0.0150724
792.204	0.0149260
792.282	0.0147857
792.360	0.0145237
792.438	0.0142786
792.516	0.0142725
792.594	0.0138855
792.673	0.0137734
792.751	0.0134248
792.829	0.0133897
792.907	0.0133179
792.985	0.0130825
793.063	0.0130481
793.141	0.0129967
793.219	0.0127686
793.298	0.0129654
793.376	0.0129620
793.454	0.0129096
793.532	0.0129943
793.610	0.0130547
793.688	0.0131827
793.766	0.0131834
793.844	0.0132672
793.923	0.0136411
794.001	0.0139220
794.079	0.0141168
794.157	0.0141901
794.235	0.0145049
794.313	0.0146362
794.391	0.0147638
794.469	0.0150483
794.548	0.0151653
794.626	0.0152393
794.704	0.0154684
794.782	0.0156268
794.860	0.0158095
794.938	0.0162727
795.016	0.0161550
795.094	0.0162601
795.173	0.0164512
795.251	0.0165480
795.329	0.0164516
795.407	0.0163060
795.485	0.0163052
795.563	0.0161566
795.641	0.0159321
795.719	0.0159145
795.798	0.0155257
795.876	0.0150420
795.954	0.0150165
796.032	0.0147364
796.110	0.0143705
796.188	0.0142609
796.266	0.0138882
796.344	0.0136636
796.423	0.0134436
796.501	0.0132487
796.579	0.0130982
796.657	0.0129120
796.735	0.0128236
796.813	0.0125886
796.891	0.0126482
796.969	0.0126694
797.048	0.0126241
797.126	0.0127482
797.204	0.0128963
797.282	0.0130346
797.360	0.0130679
797.438	0.0133173
797.516	0.0135517
797.594	0.0137755
797.673	0.0139540
797.751	0.0141448
797.829	0.0142625
797.907	0.0146329
797.985	0.0147513
798.063	0.0151141
798.141	0.0150909
798.219	0.0152077
798.298	0.0154609
798.376	0.0154232
798.454	0.0154641
798.532	0.0156358
798.610	0.0158961
798.688	0.0157970
798.766	0.0158146
798.844	0.0159131
798.923	0.0158851
799.001	0.0156523
799.079	0.0156750
799.157	0.0156978
799.235	0.0157377
799.313	0.0154686
799.391	0.0154123
799.469	0.0153534
799.548	0.0151311
799.626	0.0150045
799.704	0.0147430
799.782	0.0148296
799.860	0.0146296
799.938	0.0145765
800.016	0.0143109
800.094	0.0142229
800.173	0.0141128
800.251	0.0140003
800.329	0.0140151
800.407	0.0137254
800.485	0.0135351
800.563	0.0134312
800.641	0.0133363
800.719	0.0133849
800.798	0.0132584
800.876	0.0131326
800.954	0.0132285
801.032	0.0132831
801.110	0.0133100
801.188	0.0133771
801.266	0.0134507
801.344	0.0134706
801.423	0.0134644
801.501	0.0135516
801.579	0.0138931
801.657	0.0138329
801.735	0.0138823
801.813	0.0141447
801.891	0.0143867
801.969	0.0144832
802.048	0.0146099
802.126	0.0146582
802.204	0.0149034
802.282	0.0149050
802.360	0.0150754
802.438	0.0150843
802.516	0.0151594
802.594	0.0152359
802.673	0.0152975
802.751	0.0153474
802.829	0.0153802
802.907	0.0153476
802.985	0.0152010
803.063	0.0151925
803.141	0.0151608
803.219	0.0150975
803.298	0.0150159
803.376	0.0150901
803.454	0.0150153
803.532	0.0150256
803.610	0.0150094
803.688	0.0148220
803.766	0.0149538
803.844	0.0149013
803.923	0.0149126
804.001	0.0148475
804.079	0.0147257
804.157	0.0147385
804.235	0.0148421
804.313	0.0147688
804.391	0.0147210
804.469	0.0145023
804.548	0.0146249
804.626	0.0145626
804.704	0.0145586
804.782	0.0145334
804.860	0.0145129
804.938	0.0142773
805.016	0.0144862
805.094	0.0143996
805.173	0.0141740
805.251	0.0142576
805.329	0.0142644
805.407	0.0140077
805.485	0.0140729
805.563	0.0139190
805.641	0.0138751
805.719	0.0139076
805.798	0.0137414
805.876	0.0137231
805.954	0.0138181
806.032	0.0135882
806.110	0.0137502
806.188	0.0137364
806.266	0.0138721
806.344	0.0138918
806.423	0.0138062
806.501	0.0138496
806.579	0.0139403
806.657	0.0139693
806.735	0.0139907
806.813	0.0141624
806.891	0.0142424
806.969	0.0141558
807.048	0.0143941
807.126	0.0144214
807.204	0.0143956
807.282	0.0145156
807.360	0.0145324
807.438	0.0144411
807.516	0.0146848
807.594	0.0146429
807.673	0.0147737
807.751	0.0149247
807.829	0.0149487
807.907	0.0146888
807.985	0.0148594
808.063	0.0147857
808.141	0.0148205
808.219	0.0148409
808.298	0.0147805
808.376	0.0147852
808.454	0.0147520
808.532	0.0148712
808.610	0.0147645
808.688	0.0148510
808.766	0.0149008
808.844	0.0149426
808.923	0.0148477
809.001	0.0149660
809.079	0.0147632
809.157	0.0149210
809.235	0.0149541
809.313	0.0149092
809.391	0.0148315
809.469	0.0149190
809.548	0.0148142
809.626	0.0147783
809.704	0.0147744
809.782	0.0148681
809.860	0.0148009
809.938	0.0147807
810.016	0.0146587
810.094	0.0144846
810.173	0.0145720
810.251	0.0145662
810.329	0.0144374
810.407	0.0142476
810.485	0.0142153
810.563	0.0142740
810.641	0.0141812
810.719	0.0141512
810.798	0.0141267
810.876	0.0139140
810.954	0.0139747
811.032	0.0140065
811.110	0.0139648
811.188	0.0141129
811.266	0.0140818
811.344	0.0141362
811.423	0.0140675
811.501	0.0140791
811.579	0.0142198
811.657	0.0141756
811.735	0.0141561
811.813	0.0142245
811.891	0.0144101
811.969	0.0143825
812.048	0.0144929
812.126	0.0143678
812.204	0.0144990
812.282	0.0145792
812.360	0.0145433
812.438	0.0144721
812.516	0.0145374
812.594	0.0143289
812.673	0.0142948
812.751	0.0144368
812.829	0.0144680
812.907	0.0143787
812.985	0.0143348
813.063	0.0143270
813.141	0.0142298
813.219	0.0144501
813.298	0.0145023
813.376	0.0143955
813.454	0.0145958
813.532	0.0147792
813.610	0.0147013
813.688	0.0147270
813.766	0.0147160
813.844	0.0148900
813.923	0.0150639
814.001	0.0148479
814.079	0.0150105
814.157	0.0150088
814.235	0.0149583
814.313	0.0149991
814.391	0.0148530
814.469	0.0148540
814.548	0.0148598
814.626	0.0149274
814.704	0.0149485
814.782	0.0147337
814.860	0.0146652
814.938	0.0145997
815.016	0.0146162
815.094	0.0147311
815.173	0.0145993
815.251	0.0145757
815.329	0.0145016
815.407	0.0145245
815.485	0.0147039
815.563	0.0145172
815.641	0.0144022
815.719	0.0144964
815.798	0.0144596
815.876	0.0146704
815.954	0.0145624
816.032	0.0143621
816.110	0.0144597
816.188	0.0144764
816.266	0.0143193
816.344	0.0142852
816.423	0.0144734
816.501	0.0143237
816.579	0.0142840
816.657	0.0141561
816.735	0.0143753
816.813	0.0140598
816.891	0.0141622
816.969	0.0139713
817.048	0.0140479
817.126	0.0139376
817.204	0.0139484
817.282	0.0138531
817.360	0.0139066
817.438	0.0139211
817.516	0.0138854
817.594	0.0139579
817.673	0.0139777
817.751	0.0140275
817.829	0.0140330
817.907	0.0139825
817.985	0.0143104
818.063	0.0143335
818.141	0.0143537
818.219	0.0143806
818.298	0.0145266
818.376	0.0146642
818.454	0.0147094
818.532	0.0146532
818.610	0.0147833
818.688	0.0150071
818.766	0.0151138
818.844	0.0150697
818.923	0.0151776
819.001	0.0150818
819.079	0.0151447
819.157	0.0152115
819.235	0.0152369
819.313	0.0151418
819.391	0.0152275
819.469	0.0151792
819.548	0.0151811
819.626	0.0150250
819.704	0.0150409
819.782	0.0150117
819.860	0.0149722
819.938	0.0147990
820.016	0.0148301
820.094	0.0148240
820.173	0.0148330
820.251	0.0148106
820.329	0.0147176
820.407	0.0145778
820.485	0.0145512
820.563	0.0145565
820.641	0.0145890
820.719	0.0144492
820.798	0.0144518
820.876	0.0144909
820.954	0.0144855
821.032	0.0145148
821.110	0.0142067
821.188	0.0140981
821.266	0.0140408
821.344	0.0141156
821.423	0.0141212
821.501	0.0141071
821.579	0.0140304
821.657	0.0141113
821.735	0.0140676
821.813	0.0139316
821.891	0.0139771
821.969	0.0139713
822.048	0.0138100
822.126	0.0140408
822.204	0.0138988
822.282	0.0139527
822.360	0.0139526
822.438	0.0141331
822.516	0.0141499
822.594	0.0141544
822.673	0.0142777
822.751	0.0142271
822.829	0.0142832
822.907	0.0143530
822.985	0.0144102
823.063	0.0143520
823.141	0.0145103
823.219	0.0145172
823.298	0.0145041
823.376	0.0144645
823.454	0.0146311
823.532	0.0146875
823.610	0.0146233
823.688	0.0146321
823.766	0.0145415
823.844	0.0146645
823.923	0.0144608
824.001	0.0145764
824.079	0.0147059
824.157	0.0146983
824.235	0.0145355
824.313	0.0146997
824.391	0.0145647
824.469	0.0146024
824.548	0.0147301
824.626	0.0146765
824.704	0.0147251
824.782	0.0148050
824.860	0.0148557
824.938	0.0149915
825.016	0.0149780
825.094	0.0150095
825.173	0.0150244
825.251	0.0151957
825.329	0.0150242
825.407	0.0152034
825.485	0.0150917
825.563	0.0151765
825.641	0.0151900
825.719	0.0151917
825.798	0.0151601
825.876	0.0149937
825.954	0.0150713
826.032	0.0151128
826.110	0.0148898
826.188	0.0148195
826.266	0.0147975
826.344	0.0147443
826.423	0.0145944
826.501	0.0145134
826.579	0.0145074
826.657	0.0144218
826.735	0.0142474
826.813	0.0142825
826.891	0.0143161
826.969	0.0141639
827.048	0.0141972
827.126	0.0140654
827.204	0.0139601
827.282	0.0140651
827.360	0.0141166
827.438	0.0139948
827.516	0.0139629
827.594	0.0139513
827.673	0.0140012
827.751	0.0140473
827.829	0.0140337
827.907	0.0140694
827.985	0.0139911
828.063	0.0140618
828.141	0.0140691
828.219	0.0141061
828.298	0.0142159
828.376	0.0141443
828.454	0.0140911
828.532	0.0141393
828.610	0.0142318
828.688	0.0143819
828.766	0.0144324
828.844	0.0142863
828.923	0.0143301
829.001	0.0144291
829.079	0.0144360
829.157	0.0143484
829.235	0.0143962
829.313	0.0145576
829.391	0.0143499
829.469	0.0144321
829.548	0.0145818
829.626	0.0143800
829.704	0.0145654
829.782	0.0145185
829.860	0.0147362
829.938	0.0147150
830.016	0.0144408
830.094	0.0145076
830.173	0.0144427
830.251	0.0145897
830.329	0.0146243
830.407	0.0146992
830.485	0.0147965
830.563	0.0147354
830.641	0.0148282
830.719	0.0148917
830.798	0.0148700
830.876	0.0149143
830.954	0.0150120
831.032	0.0149898
831.110	0.0149490
831.188	0.0148695
831.266	0.0148370
831.344	0.0149139
831.423	0.0148505
831.501	0.0148622
831.579	0.0148840
831.657	0.0147965
831.735	0.0148299
831.813	0.0147938
831.891	0.0145594
831.969	0.0147274
832.048	0.0146650
832.126	0.0145399
832.204	0.0145095
832.282	0.0146342
832.360	0.0145167
832.438	0.0143541
832.516	0.0143274
832.594	0.0142693
832.673	0.0144205
832.751	0.0142535
832.829	0.0142032
832.907	0.0141955
832.985	0.0141922
833.063	0.0142271
833.141	0.0142258
833.219	0.0141821
833.298	0.0141732
833.376	0.0140859
833.454	0.0142271
833.532	0.0141476
833.610	0.0141533
833.688	0.0141656
833.766	0.0140530
833.844	0.0140118
833.923	0.0141192
834.001	0.0141174
834.079	0.0141720
834.157	0.0141550
834.235	0.0143678
834.313	0.0142371
834.391	0.0143246
834.469	0.0144176
834.548	0.0144015
834.626	0.0144514
834.704	0.0145115
834.782	0.0144911
834.860	0.0146444
834.938	0.0147228
835.016	0.0146333
835.094	0.0145263
835.173	0.0146231
835.251	0.0146357
835.329	0.0146635
835.407	0.0145303
835.485	0.0145914
835.563	0.0145457
835.641	0.0144701
835.719	0.0144438
835.798	0.0144498
835.876	0.0145148
835.954	0.0144995
836.032	0.0143638
836.110	0.0143104
836.188	0.0143375
836.266	0.0143600
836.344	0.0143092
836.423	0.0143770
836.501	0.0142979
836.579	0.0143133
836.657	0.0143442
836.735	0.0143156
836.813	0.0144759
836.891	0.0145172
836.969	0.0143927
837.048	0.0144852
837.126	0.0146123
837.204	0.0144971
837.282	0.0146704
837.360	0.0145835
837.438	0.0146646
837.516	0.0146806
837.594	0.0146358
837.673	0.0146177
837.751	0.0146412
837.829	0.0148226
837.907	0.0146864
837.985	0.0146584
838.063	0.0146203
838.141	0.0145936
838.219	0.0146139
838.298	0.0144332
838.376	0.0145451
838.454	0.0143758
838.532	0.0143015
838.610	0.0145451
838.688	0.0142730
838.766	0.0143082
838.844	0.0142496
838.923	0.0141730
839.001	0.0141561
839.079	0.0142599
839.157	0.0142196
839.235	0.0141928
839.313	0.0142596
839.391	0.0143335
839.469	0.0142892
839.548	0.0143165
839.626	0.0143333
839.704	0.0144147
839.782	0.0145921
839.860	0.0144839
839.938	0.0145503
840.016	0.0147135
840.094	0.0145538
840.173	0.0145717
840.251	0.0147255
840.329	0.0146152
840.407	0.0146804
840.485	0.0146980
840.563	0.0146721
840.641	0.0148074
840.719	0.0146961
840.798	0.0147500
840.876	0.0148148
840.954	0.0146327
841.032	0.0145586
841.110	0.0144630
841.188	0.0143195
841.266	0.0145253
841.344	0.0144662
841.423	0.0143463
841.501	0.0144501
841.579	0.0143679
841.657	0.0142715
841.735	0.0144342
841.813	0.0143856
841.891	0.0143218
841.969	0.0142909
842.048	0.0143584
842.126	0.0143900
842.204	0.0143437
842.282	0.0144096
842.360	0.0143678
842.438	0.0144202
842.516	0.0143420
842.594	0.0143301
842.673	0.0143917
842.751	0.0144550
842.829	0.0141321
842.907	0.0143218
842.985	0.0142175
843.063	0.0141982
843.141	0.0143013
843.219	0.0143880
843.298	0.0143602
843.376	0.0143242
843.454	0.0142461
843.532	0.0143363
843.610	0.0143610
843.688	0.0143810
843.766	0.0144014
843.844	0.0144637
843.923	0.0144392
844.001	0.0145482
844.079	0.0146227
844.157	0.0144858
844.235	0.0148107
844.313	0.0147806
844.391	0.0146978
844.469	0.0147587
844.548	0.0147344
844.626	0.0149363
844.704	0.0148899
844.782	0.0148199
844.860	0.0148402
844.938	0.0147635
845.016	0.0148985
845.094	0.0149331
845.173	0.0148383
845.251	0.0147990
845.329	0.0149323
845.407	0.0148687
845.485	0.0147237
845.563	0.0146705
845.641	0.0146161
845.719	0.0146777
845.798	0.0147448
845.876	0.0145660
845.954	0.0144514
846.032	0.0145632
846.110	0.0145398
846.188	0.0143819
846.266	0.0143571
846.344	0.0144430
846.423	0.0143641
846.501	0.0142642
846.579	0.0144368
846.657	0.0144090
846.735	0.0142750
846.813	0.0142229
846.891	0.0142387
846.969	0.0142189
847.048	0.0141300
847.126	0.0141851
847.204	0.0140722
847.282	0.0143704
847.360	0.0142493
847.438	0.0142617
847.516	0.0142646
847.594	0.0141950
847.673	0.0143372
847.751	0.0144254
847.829	0.0143080
847.907	0.0143346
847.985	0.0143590
848.063	0.0144387
848.141	0.0146553
848.219	0.0145716
848.298	0.0145038
848.376	0.0146661
848.454	0.0146735
848.532	0.0146796
848.610	0.0146486
848.688	0.0146491
848.766	0.0147677
848.844	0.0147112
848.923	0.0144814
849.001	0.0146376
849.079	0.0144880
849.157	0.0145750
849.235	0.0145704
849.313	0.0144679
849.391	0.0143806
849.469	0.0144521
849.548	0.0145583
849.626	0.0144740
849.704	0.0143964
849.782	0.0144260
849.860	0.0143746
849.938	0.0143616
850.016	0.0144561
850.094	0.0144092
850.173	0.0144945
850.251	0.0145534
850.329	0.0145512
850.407	0.0145515
850.485	0.0145708
850.563	0.0145657
850.641	0.0146685
850.719	0.0145615
850.798	0.0146687
850.876	0.0146062
850.954	0.0146146
851.032	0.0146789
851.110	0.0147071
851.188	0.0147713
851.266	0.0146819
851.344	0.0146812
851.423	0.0146234
851.501	0.0147211
851.579	0.0146493
851.657	0.0147375
851.735	0.0147094
851.813	0.0146153
851.891	0.0145000
851.969	0.0148597
852.048	0.0147118
852.126	0.0145966
852.204	0.0148061
852.282	0.0146169
852.360	0.0146106
852.438	0.0145573
852.516	0.0144603
852.594	0.0145264
852.673	0.0144886
852.751	0.0143850
852.829	0.0144038
852.907	0.0143118
852.985	0.0144485
853.063	0.0143787
853.141	0.0144045
853.219	0.0143422
853.298	0.0143390
853.376	0.0143003
853.454	0.0144198
853.532	0.0143334
853.610	0.0142673
853.688	0.0143490
853.766	0.0142036
853.844	0.0142436
853.923	0.0144765
854.001	0.0144532
854.079	0.0145029
854.157	0.0144365
854.235	0.0144357
854.313	0.0144867
854.391	0.0144145
854.469	0.0145192
854.548	0.0145534
854.626	0.0144314
854.704	0.0145852
854.782	0.0146326
854.860	0.0144828
854.938	0.0145467
855.016	0.0145706
855.094	0.0145000
855.173	0.0145715
855.251	0.0145422
855.329	0.0146561
855.407	0.0145267
855.485	0.0146152
855.563	0.0145316
855.641	0.0145015
855.719	0.0145721
855.798	0.0144978
855.876	0.0146019
855.954	0.0146247
856.032	0.0144542
856.110	0.0144485
856.188	0.0145133
856.266	0.0144631
856.344	0.0144902
856.423	0.0144670
856.501	0.0145483
856.579	0.0144655
856.657	0.0144019
856.735	0.0144287
856.813	0.0145860
856.891	0.0144491
856.969	0.0143428
857.048	0.0144614
857.126	0.0145747
857.204	0.0145433
857.282	0.0144431
857.360	0.0143796
857.438	0.0144289
857.516	0.0142910
857.594	0.0144944
857.673	0.0145620
857.751	0.0143235
857.829	0.0143649
857.907	0.0145297
857.985	0.0142429
858.063	0.0143080
858.141	0.0144260
858.219	0.0144489
858.298	0.0144173
858.376	0.0143961
858.454	0.0142853
858.532	0.0143362
858.610	0.0143329
858.688	0.0142445
858.766	0.0143471
858.844	0.0143777
858.923	0.0144164
859.001	0.0143902
859.079	0.0143830
859.157	0.0144574
859.235	0.0144048
859.313	0.0143067
859.391	0.0143272
859.469	0.0143719
859.548	0.0144370
859.626	0.0145132
859.704	0.0145313
859.782	0.0145538
859.860	0.0144328
859.938	0.0144156
860.016	0.0143353
860.094	0.0144872
860.173	0.0144193
860.251	0.0144417
860.329	0.0145049
860.407	0.0144521
860.485	0.0144197
860.563	0.0144793
860.641	0.0142913
860.719	0.0145977
860.798	0.0146023
860.876	0.0145585
860.954	0.0144877
861.032	0.0144525
861.110	0.0145839
861.188	0.0146360
861.266	0.0144809
861.344	0.0146114
861.423	0.0146191
861.501	0.0145731
861.579	0.0146230
861.657	0.0146518
861.735	0.0147578
861.813	0.0147234
861.891	0.0148186
861.969	0.0147522
862.048	0.0147668
862.126	0.0146978
862.204	0.0145531
862.282	0.0147260
862.360	0.0146677
862.438	0.0146222
862.516	0.0146693
862.594	0.0144825
862.673	0.0144653
862.751	0.0144740
862.829	0.0144514
862.907	0.0143695
862.985	0.0143345
863.063	0.0142668
863.141	0.0142764
863.219	0.0143147
863.298	0.0143143
863.376	0.0143090
863.454	0.0141663
863.532	0.0142007
863.610	0.0141123
863.688	0.0141152
863.766	0.0141694
863.844	0.0144125
863.923	0.0143165
864.001	0.0142177
864.079	0.0140613
864.157	0.0141625
864.235	0.0142510
864.313	0.0142467
864.391	0.0143338
864.469	0.0144251
864.548	0.0142941
864.626	0.0142692
864.704	0.0144057
864.782	0.0144768
864.860	0.0145139
864.938	0.0145420
865.016	0.0145709
865.094	0.0145645
865.173	0.0145226
865.251	0.0143697
865.329	0.0145723
865.407	0.0146092
865.485	0.0144537
865.563	0.0145504
865.641	0.0144852
865.719	0.0144794
865.798	0.0143004
865.876	0.0142953
865.954	0.0145836
866.032	0.0145317
866.110	0.0144798
866.188	0.0145901
866.266	0.0144821
866.344	0.0145451
866.423	0.0145654
866.501	0.0147272
866.579	0.0146149
866.657	0.0146312
866.735	0.0146667
866.813	0.0147208
866.891	0.0148351
866.969	0.0148045
867.048	0.0146757
867.126	0.0148605
867.204	0.0149025
867.282	0.0148810
867.360	0.0148383
867.438	0.0147392
867.516	0.0146562
867.594	0.0147074
867.673	0.0147820
867.751	0.0147295
867.829	0.0145809
867.907	0.0146478
867.985	0.0145958
868.063	0.0145033
868.141	0.0146198
868.219	0.0146089
868.298	0.0144454
868.376	0.0143582
868.454	0.0142886
868.532	0.0142912
868.610	0.0143368
868.688	0.0142259
868.766	0.0142856
868.844	0.0142368
868.923	0.0141226
869.001	0.0141972
869.079	0.0140708
869.157	0.0140495
869.235	0.0142290
869.313	0.0141252
869.391	0.0140607
869.469	0.0141074
869.548	0.0142158
869.626	0.0142007
869.704	0.0142384
869.782	0.0142023
869.860	0.0141385
869.938	0.0143162
870.016	0.0143907
870.094	0.0143394
870.173	0.0143095
870.251	0.0144834
870.329	0.0145363
870.407	0.0145087
870.485	0.0145658
870.563	0.0147330
870.641	0.0147331
870.719	0.0146584
870.798	0.0146250
870.876	0.0145171
870.954	0.0145647
871.032	0.0147382
871.110	0.0147297
871.188	0.0146346
871.266	0.0146828
871.344	0.0147857
871.423	0.0146030
871.501	0.0144774
871.579	0.0145962
871.657	0.0144766
871.735	0.0145741
871.813	0.0145338
871.891	0.0144948
871.969	0.0144279
872.048	0.0145014
872.126	0.0144037
872.204	0.0142534
872.282	0.0144546
872.360	0.0145233
872.438	0.0143084
872.516	0.0142646
872.594	0.0143771
872.673	0.0144156
872.751	0.0144514
872.829	0.0144740
872.907	0.0144556
872.985	0.0145760
873.063	0.0146544
873.141	0.0145740
873.219	0.0146391
873.298	0.0145976
873.376	0.0147265
873.454	0.0146973
873.532	0.0147590
873.610	0.0147049
873.688	0.0148133
873.766	0.0148911
873.844	0.0148116
873.923	0.0147608
874.001	0.0149712
874.079	0.0149315
874.157	0.0148193
874.235	0.0147714
874.313	0.0146506
874.391	0.0146701
874.469	0.0147660
874.548	0.0146903
874.626	0.0145609
874.704	0.0145376
874.782	0.0145763
874.860	0.0143705
874.938	0.0143855
875.016	0.0144350
875.094	0.0143674
875.173	0.0143633
875.251	0.0142056
875.329	0.0143374
875.407	0.0142094
875.485	0.0142683
875.563	0.0140730
875.641	0.0142194
875.719	0.0141679
875.798	0.0142406
875.876	0.0140787
875.954	0.0142165
876.032	0.0141273
876.110	0.0141846
876.188	0.0142429
876.266	0.0141837
876.344	0.0142605
876.423	0.0143423
876.501	0.0143870
876.579	0.0144061
876.657	0.0143336
876.735	0.0143182
876.813	0.0145352
876.891	0.0145817
876.969	0.0145288
877.048	0.0146040
877.126	0.0144423
877.204	0.0145203
877.282	0.0146071
877.360	0.0147500
877.438	0.0146473
877.516	0.0147952
877.594	0.0147186
877.673	0.0148489
877.751	0.0147387
877.829	0.0148196
877.907	0.0147581
877.985	0.0148183
878.063	0.0146622
878.141	0.0146698
878.219	0.0147038
878.298	0.0146030
878.376	0.0147404
878.454	0.0146178
878.532	0.0146017
878.610	0.0145396
878.688	0.0145323
878.766	0.0145124
878.844	0.0144448
878.923	0.0143754
879.001	0.0144093
879.079	0.0143208
879.157	0.0142699
879.235	0.0143457
879.313	0.0142942
879.391	0.0143436
879.469	0.0143629
879.548	0.0142757
879.626	0.0142143
879.704	0.0142281
879.782	0.0142232
879.860	0.0143401
879.938	0.0143393
880.016	0.0142545
880.094	0.0143141
880.173	0.0143825
880.251	0.0145164
880.329	0.0144590
880.407	0.0145463
880.485	0.0145677
880.563	0.0146579
880.641	0.0146976
880.719	0.0147328
880.798	0.0145522
880.876	0.0146760
880.954	0.0148221
881.032	0.0147452
881.110	0.0145316
881.188	0.0145977
881.266	0.0145359
881.344	0.0144002
881.423	0.0144403
881.501	0.0145316
881.579	0.0142491
881.657	0.0142607
881.735	0.0142330
881.813	0.0142889
881.891	0.0143497
881.969	0.0143400
882.048	0.0142785
882.126	0.0143820
882.204	0.0143571
882.282	0.0143974
882.360	0.0144920
882.438	0.0146458
882.516	0.0143958
882.594	0.0145812
882.673	0.0146626
882.751	0.0145081
882.829	0.0148080
882.907	0.0146832
882.985	0.0147274
883.063	0.0148002
883.141	0.0148393
883.219	0.0149118
883.298	0.0149638
883.376	0.0150239
883.454	0.0149761
883.532	0.0149561
883.610	0.0148815
883.688	0.0148084
883.766	0.0145679
883.844	0.0145493
883.923	0.0144912
884.001	0.0142107
884.079	0.0141914
884.157	0.0140330
884.235	0.0139323
884.313	0.0139845
884.391	0.0139052
884.469	0.0139770
884.548	0.0139909
884.626	0.0139406
884.704	0.0140659
884.782	0.0142279
884.860	0.0141198
884.938	0.0141575
885.016	0.0142184
885.094	0.0141692
885.173	0.0142953
885.251	0.0142812
885.329	0.0143666
885.407	0.0142623
885.485	0.0143568
885.563	0.0144820
885.641	0.0145658
885.719	0.0146781
885.798	0.0147144
885.876	0.0148328
885.954	0.0149799
886.032	0.0148491
886.110	0.0150031
886.188	0.0150381
886.266	0.0151411
886.344	0.0150761
886.423	0.0151512
886.501	0.0150461
886.579	0.0150648
886.657	0.0150613
886.735	0.0148831
886.813	0.0147442
886.891	0.0148495
886.969	0.0147654
887.048	0.0144863
887.126	0.0143063
887.204	0.0141338
887.282	0.0140215
887.360	0.0139581
887.438	0.0137994
887.516	0.0135010
887.594	0.0136205
887.673	0.0135108
887.751	0.0134747
887.829	0.0134521
887.907	0.0135635
887.985	0.0137212
888.063	0.0138615
888.141	0.0139874
888.219	0.0140059
888.298	0.0141833
888.376	0.0142729
888.454	0.0143282
888.532	0.0144808
888.610	0.0144775
888.688	0.0146958
888.766	0.0146864
888.844	0.0146347
888.923	0.0148329
889.001	0.0149550
889.079	0.0149478
889.157	0.0148525
889.235	0.0149786
889.313	0.0151730
889.391	0.0152257
889.469	0.0151695
889.548	0.0151308
889.626	0.0151352
889.704	0.0151492
889.782	0.0153178
889.860	0.0151360
889.938	0.0150960
890.016	0.0150645
890.094	0.0148933
890.173	0.0149616
890.251	0.0149566
890.329	0.0149226
890.407	0.0146416
890.485	0.0147420
890.563	0.0145120
890.641	0.0143012
890.719	0.0142809
890.798	0.0140804
890.876	0.0141698
890.954	0.0140012
891.032	0.0136844
891.110	0.0137099
891.188	0.0134450
891.266	0.0134460
891.344	0.0133495
891.423	0.0133838
891.501	0.0133645
891.579	0.0134464
891.657	0.0135450
891.735	0.0136985
891.813	0.0135774
891.891	0.0138094
891.969	0.0138891
892.048	0.0140585
892.126	0.0141631
892.204	0.0142054
892.282	0.0143739
892.360	0.0144923
892.438	0.0146463
892.516	0.0147169
892.594	0.0147446
892.673	0.0149003
892.751	0.0149948
892.829	0.0151135
892.907	0.0151173
892.985	0.0151649
893.063	0.0152234
893.141	0.0153271
893.219	0.0153180
893.298	0.0153113
893.376	0.0153748
893.454	0.0153682
893.532	0.0152651
893.610	0.0151997
893.688	0.0151887
893.766	0.0151900
893.844	0.0151593
893.923	0.0148351
894.001	0.0149098
894.079	0.0149345
894.157	0.0149872
894.235	0.0147273
894.313	0.0146204
894.391	0.0145216
894.469	0.0144061
894.548	0.0143849
894.626	0.0140922
894.704	0.0139570
894.782	0.0140947
894.860	0.0138968
894.938	0.0137892
895.016	0.0138487
895.094	0.0138138
895.173	0.0138554
895.251	0.0138650
895.329	0.0140334
895.407	0.0139269
895.485	0.0141125
895.563	0.0142157
895.641	0.0142067
895.719	0.0143482
895.798	0.0141643
895.876	0.0141346
895.954	0.0142762
896.032	0.0144677
896.110	0.0145825
896.188	0.0146259
896.266	0.0145193
896.344	0.0147508
896.423	0.0147057
896.501	0.0145303
896.579	0.0147039
896.657	0.0147134
896.735	0.0147070
896.813	0.0146571
896.891	0.0146389
896.969	0.0145914
897.048	0.0147844
897.126	0.0147200
897.204	0.0145844
897.282	0.0147025
897.360	0.0146483
897.438	0.0146851
897.516	0.0146521
897.594	0.0145726
897.673	0.0145821
897.751	0.0145815
897.829	0.0145851
897.907	0.0145990
897.985	0.0144910
898.063	0.0143987
898.141	0.0143834
898.219	0.0143168
898.298	0.0143275
898.376	0.0144144
898.454	0.0143942
898.532	0.0143210
898.610	0.0142813
898.688	0.0145550
898.766	0.0145140
898.844	0.0144816
898.923	0.0145774
899.001	0.0145152
899.079	0.0146895
899.157	0.0147810
899.235	0.0147071
899.313	0.0146542
899.391	0.0147244
899.469	0.0148550
899.548	0.0147515
899.626	0.0146695
899.704	0.0148001
899.782	0.0147013
899.860	0.0145818
899.938	0.0145396
900.016	0.0144271
900.094	0.0143673
900.173	0.0142918
900.251	0.0145607
900.329	0.0143343
900.407	0.0142974
900.485	0.0140950
900.563	0.0141631
900.641	0.0140385
900.719	0.0142189
900.798	0.0141548
900.876	0.0141939
900.954	0.0142167
901.032	0.0142785
901.110	0.0144591
901.188	0.0144136
901.266	0.0142873
901.344	0.0144374
901.423	0.0146087
901.501	0.0146667
901.579	0.0147208
901.657	0.0146710
901.735	0.0146924
901.813	0.0146282
901.891	0.0147606
901.969	0.0148146
902.048	0.0147187
902.126	0.0146308
902.204	0.0146124
902.282	0.0145557
902.360	0.0144797
902.438	0.0145119
902.516	0.0143875
902.594	0.0144690
902.673	0.0144209
902.751	0.0143491
902.829	0.0144624
902.907	0.0143325
902.985	0.0142564
903.063	0.0143274
903.141	0.0143600
903.219	0.0142856
903.298	0.0141932
903.376	0.0142265
903.454	0.0142852
903.532	0.0143507
903.610	0.0142976
903.688	0.0141946
903.766	0.0143963
903.844	0.0143729
903.923	0.0143553
904.001	0.0144157
904.079	0.0143921
904.157	0.0143343
904.235	0.0143883
904.313	0.0143952
904.391	0.0143607
904.469	0.0143643
904.548	0.0144624
904.626	0.0145690
904.704	0.0145306
904.782	0.0145989
904.860	0.0146057
904.938	0.0146519
905.016	0.0147379
905.094	0.0146661
905.173	0.0147019
905.251	0.0146661
905.329	0.0147872
905.407	0.0147450
905.485	0.0148271
905.563	0.0148015
905.641	0.0148777
905.719	0.0149206
905.798	0.0148633
905.876	0.0147933
905.954	0.0147683
906.032	0.0146864
906.110	0.0146196
906.188	0.0147756
906.266	0.0147729
906.344	0.0146223
906.423	0.0146044
906.501	0.0145852
906.579	0.0144849
906.657	0.0144897
906.735	0.0144641
906.813	0.0143615
906.891	0.0142841
906.969	0.0142835
907.048	0.0143523
907.126	0.0143126
907.204	0.0140679
907.282	0.0140206
907.360	0.0140292
907.438	0.0140498
907.516	0.0141242
907.594	0.0141022
907.673	0.0139453
907.751	0.0141814
907.829	0.0141331
907.907	0.0141212
907.985	0.0142313
908.063	0.0141184
908.141	0.0141296
908.219	0.0142027
908.298	0.0143871
908.376	0.0144572
908.454	0.0142921
908.532	0.0143361
908.610	0.0144433
908.688	0.0145406
908.766	0.0144781
908.844	0.0145483
908.923	0.0144707
909.001	0.0145154
909.079	0.0145950
909.157	0.0146444
909.235	0.0144398
909.313	0.0144562
909.391	0.0146053
909.469	0.0145529
909.548	0.0145182
909.626	0.0145850
909.704	0.0145522
909.782	0.0145366
909.860	0.0145208
909.938	0.0145149
910.016	0.0147403
910.094	0.0147263
910.173	0.0148077
910.251	0.0146844
910.329	0.0148170
910.407	0.0148000
910.485	0.0148640
910.563	0.0149878
910.641	0.0149498
910.719	0.0150231
910.798	0.0147787
910.876	0.0149047
910.954	0.0147939
911.032	0.0148382
911.110	0.0147789
911.188	0.0147587
911.266	0.0147655
911.344	0.0145886
911.423	0.0145710
911.501	0.0144632
911.579	0.0143536
911.657	0.0143120
911.735	0.0142069
911.813	0.0142082
911.891	0.0140865
911.969	0.0141415
912.048	0.0139577
912.126	0.0140826
912.204	0.0141303
912.282	0.0141628
912.360	0.0141023
912.438	0.0141031
912.516	0.0140067
912.594	0.0140696
912.673	0.0140592
912.751	0.0141080
912.829	0.0141010
912.907	0.0141995
912.985	0.0144077
913.063	0.0143944
913.141	0.0145122
913.219	0.0145524
913.298	0.0145849
913.376	0.0146870
913.454	0.0146626
913.532	0.0147602
913.610	0.0148723
913.688	0.0150549
913.766	0.0150626
913.844	0.0150279
913.923	0.0149654
914.001	0.0149905
914.079	0.0150241
914.157	0.0151070
914.235	0.0148499
914.313	0.0149100
914.391	0.0148966
914.469	0.0149564
914.548	0.0148247
914.626	0.0147167
914.704	0.0147771
914.782	0.0147539
914.860	0.0147136
914.938	0.0144418
915.016	0.0144707
915.094	0.0145889
915.173	0.0143417
915.251	0.0143150
915.329	0.0143645
915.407	0.0142165
915.485	0.0141392
915.563	0.0143381
915.641	0.0142007
915.719	0.0142384
915.798	0.0143781
915.876	0.0143402
915.954	0.0142332
916.032	0.0144052
916.110	0.0145929
916.188	0.0144666
916.266	0.0144471
916.344	0.0145909
916.423	0.0145932
916.501	0.0144987
916.579	0.0144759
916.657	0.0144772
916.735	0.0146211
916.813	0.0144969
916.891	0.0144367
916.969	0.0146170
917.048	0.0145087
917.126	0.0145231
917.204	0.0145496
917.282	0.0145136
917.360	0.0145123
917.438	0.0145592
917.516	0.0145395
917.594	0.0146405
917.673	0.0147057
917.751	0.0147068
917.829	0.0146433
917.907	0.0146440
917.985	0.0147326
918.063	0.0146571
918.141	0.0148232
918.219	0.0148657
918.298	0.0146960
918.376	0.0146580
918.454	0.0146030
918.532	0.0147044
918.610	0.0147144
918.688	0.0146181
918.766	0.0146455
918.844	0.0146011
918.923	0.0146274
919.001	0.0145158
919.079	0.0145135
919.157	0.0145120
919.235	0.0146086
919.313	0.0144451
919.391	0.0145040
919.469	0.0144685
919.548	0.0144544
919.626	0.0144785
919.704	0.0145647
919.782	0.0144171
919.860	0.0145128
919.938	0.0143778
920.016	0.0143809
920.094	0.0143852
920.173	0.0143800
920.251	0.0143038
920.329	0.0143346
920.407	0.0142641
920.485	0.0143478
920.563	0.0142936
920.641	0.0142956
920.719	0.0142376
920.798	0.0142236
920.876	0.0141415
920.954	0.0142409
921.032	0.0141960
921.110	0.0142883
921.188	0.0143121
921.266	0.0144395
921.344	0.0144931
921.423	0.0145503
921.501	0.0144885
921.579	0.0143860
921.657	0.0146775
921.735	0.0146132
921.813	0.0145997
921.891	0.0147075
921.969	0.0147202
922.048	0.0146106
922.126	0.0147293
922.204	0.0145487
922.282	0.0147371
922.360	0.0147708
922.438	0.0146857
922.516	0.0147871
922.594	0.0148744
922.673	0.0148077
922.751	0.0148154
922.829	0.0146773
922.907	0.0148402
922.985	0.0149018
923.063	0.0147341
923.141	0.0148816
923.219	0.0148492
923.298	0.0147555
923.376	0.0147677
923.454	0.0146299
923.532	0.0146188
923.610	0.0146619
923.688	0.0146091
923.766	0.0146221
923.844	0.0145167
923.923	0.0143987
924.001	0.0144842
924.079	0.0143441
924.157	0.0144423
924.235	0.0142908
924.313	0.0143243
924.391	0.0143121
924.469	0.0142836
924.548	0.0141647
924.626	0.0141545
924.704	0.0142048
924.782	0.0141029
924.860	0.0142075
924.938	0.0142355
925.016	0.0143446
925.094	0.0144259
925.173	0.0144160
925.251	0.0144411
925.329	0.0143883
925.407	0.0144310
925.485	0.0144597
925.563	0.0144058
925.641	0.0146139
925.719	0.0144520
925.798	0.0145910
925.876	0.0145864
925.954	0.0143410
926.032	0.0143263
926.110	0.0143968
926.188	0.0145784
926.266	0.0146197
926.344	0.0144689
926.423	0.0145563
926.501	0.0147196
926.579	0.0145909
926.657	0.0145938
926.735	0.0144683
926.813	0.0146333
926.891	0.0146886
926.969	0.0146074
927.048	0.0147205
927.126	0.0146656
927.204	0.0146830
927.282	0.0147627
927.360	0.0145982
927.438	0.0146552
927.516	0.0146284
927.594	0.0146954
927.673	0.0145905
927.751	0.0146355
927.829	0.0146409
927.907	0.0146055
927.985	0.0145129
928.063	0.0145279
928.141	0.0145694
928.219	0.0145422
928.298	0.0146255
928.376	0.0146071
928.454	0.0144511
928.532	0.0144661
928.610	0.0145705
928.688	0.0144737
928.766	0.0145940
928.844	0.0145679
928.923	0.0145670
929.001	0.0146684
929.079	0.0144943
929.157	0.0146667
929.235	0.0145314
929.313	0.0145141
929.391	0.0145183
929.469	0.0143846
929.548	0.0145198
929.626	0.0144603
929.704	0.0143666
929.782	0.0142953
929.860	0.0143181
929.938	0.0144678
930.016	0.0143709
930.094	0.0143298
930.173	0.0145071
930.251	0.0143553
930.329	0.0142441
930.407	0.0142706
930.485	0.0144069
930.563	0.0143664
930.641	0.0143439
930.719	0.0143022
930.798	0.0144904
930.876	0.0143629
930.954	0.0143714
931.032	0.0143935
931.110	0.0144086
931.188	0.0145219
931.266	0.0142852
931.344	0.0143745
931.423	0.0144886
931.501	0.0144124
931.579	0.0144530
931.657	0.0143881
931.735	0.0144553
931.813	0.0144890
931.891	0.0145168
931.969	0.0145567
932.048	0.0145509
932.126	0.0146005
932.204	0.0144580
932.282	0.0145732
932.360	0.0146528
932.438	0.0146519
932.516	0.0146824
932.594	0.0147350
932.673	0.0147078
932.751	0.0146855
932.829	0.0146765
932.907	0.0147557
932.985	0.0145341
933.063	0.0146550
933.141	0.0147707
933.219	0.0145738
933.298	0.0145834
933.376	0.0145772
933.454	0.0144583
933.532	0.0144098
933.610	0.0144833
933.688	0.0144133
933.766	0.0143734
933.844	0.0143414
933.923	0.0142626
934.001	0.0141698
934.079	0.0142759
934.157	0.0142007
934.235	0.0140581
934.313	0.0141258
934.391	0.0141400
934.469	0.0142065
934.548	0.0142445
934.626	0.0141640
934.704	0.0142818
934.782	0.0142359
934.860	0.0142839
934.938	0.0142475
935.016	0.0142236
935.094	0.0142678
935.173	0.0143259
935.251	0.0143272
935.329	0.0144268
935.407	0.0144061
935.485	0.0144775
935.563	0.0144879
935.641	0.0146339
935.719	0.0146441
935.798	0.0146366
935.876	0.0145967
935.954	0.0147208
936.032	0.0147525
936.110	0.0148489
936.188	0.0147745
936.266	0.0147333
936.344	0.0148463
936.423	0.0149192
936.501	0.0148826
936.579	0.0149712
936.657	0.0149052
936.735	0.0150468
936.813	0.0147679
936.891	0.0148830
936.969	0.0147856
937.048	0.0146857
937.126	0.0146815
937.204	0.0147755
937.282	0.0146869
937.360	0.0144947
937.438	0.0146233
937.516	0.0145345
937.594	0.0143934
937.673	0.0144339
937.751	0.0143791
937.829	0.0144025
937.907	0.0143700
937.985	0.0143433
938.063	0.0144438
938.141	0.0143134
938.219	0.0141994
938.298	0.0145019
938.376	0.0144671
938.454	0.0141340
938.532	0.0144613
938.610	0.0143803
938.688	0.0143024
938.766	0.0145318
938.844	0.0143822
938.923	0.0142973
939.001	0.0143787
939.079	0.0144721
939.157	0.0143805
939.235	0.0144966
939.313	0.0145674
939.391	0.0143274
939.469	0.0143748
939.548	0.0143317
939.626	0.0142699
939.704	0.0143892
939.782	0.0143629
939.860	0.0142794
939.938	0.0142011
940.016	0.0142543
940.094	0.0142992
940.173	0.0142909
940.251	0.0142039
940.329	0.0142303
940.407	0.0142764
940.485	0.0140353
940.563	0.0143053
940.641	0.0144238
940.719	0.0143047
940.798	0.0143164
940.876	0.0144028
940.954	0.0144341
941.032	0.0144419
941.110	0.0145425
941.188	0.0145910
941.266	0.0147506
941.344	0.0145724
941.423	0.0147295
941.501	0.0147858
941.579	0.0148579
941.657	0.0149117
941.735	0.0148835
941.813	0.0148862
941.891	0.0150312
941.969	0.0150500
942.048	0.0149065
942.126	0.0149651
942.204	0.0149213
942.282	0.0148295
942.360	0.0148437
942.438	0.0146843
942.516	0.0146490
942.594	0.0147392
942.673	0.0146101
942.751	0.0145629
942.829	0.0145277
942.907	0.0144189
942.985	0.0145354
943.063	0.0144054
943.141	0.0142504
943.219	0.0142703
943.298	0.0141678
943.376	0.0142403
943.454	0.0141071
943.532	0.0140921
943.610	0.0142078
943.688	0.0140313
943.766	0.0140212
943.844	0.0141413
943.923	0.0142343
944.001	0.0141550
944.079	0.0140298
944.157	0.0140878
944.235	0.0142723
944.313	0.0140817
944.391	0.0141663
944.469	0.0141967
944.548	0.0143685
944.626	0.0144702
944.704	0.0142795
944.782	0.0144363
944.860	0.0144579
944.938	0.0146391
945.016	0.0145811
945.094	0.0146082
945.173	0.0147916
945.251	0.0147633
945.329	0.0147118
945.407	0.0146612
945.485	0.0147516
945.563	0.0146146
945.641	0.0147528
945.719	0.0146338
945.798	0.0147250
945.876	0.0146823
945.954	0.0146211
946.032	0.0148472
946.110	0.0146735
946.188	0.0146653
946.266	0.0145798
946.344	0.0146234
946.423	0.0146284
946.501	0.0145432
946.579	0.0144360
946.657	0.0143752
946.735	0.0143782
946.813	0.0143660
946.891	0.0144387
946.969	0.0144260
947.048	0.0143107
947.126	0.0141763
947.204	0.0143440
947.282	0.0140736
947.360	0.0141985
947.438	0.0142849
947.516	0.0142673
947.594	0.0143609
947.673	0.0142969
947.751	0.0142624
947.829	0.0144288
947.907	0.0144519
947.985	0.0144070
948.063	0.0144052
948.141	0.0144019
948.219	0.0143522
948.298	0.0144570
948.376	0.0144392
948.454	0.0145872
948.532	0.0145235
948.610	0.0145395
948.688	0.0147189
948.766	0.0146439
948.844	0.0145840
948.923	0.0146104
949.001	0.0146546
949.079	0.0147091
949.157	0.0147581
949.235	0.0146973
949.313	0.0147061
949.391	0.0146082
949.469	0.0146614
949.548	0.0147961
949.626	0.0148096
949.704	0.0147794
949.782	0.0147930
949.860	0.0146542
949.938	0.0145576
950.016	0.0145467
950.094	0.0145890
950.173	0.0145914
950.251	0.0146162
950.329	0.0145726
950.407	0.0144326
950.485	0.0143499
950.563	0.0143442
950.641	0.0142686
950.719	0.0142959
950.798	0.0142139
950.876	0.0141946
950.954	0.0140656
951.032	0.0140961
951.110	0.0141331
951.188	0.0141227
951.266	0.0143673
951.344	0.0142567
951.423	0.0144394
951.501	0.0143845
951.579	0.0144984
951.657	0.0145985
951.735	0.0146667
951.813	0.0144709
951.891	0.0147711
951.969	0.0146844
952.048	0.0146972
952.126	0.0146445
952.204	0.0146525
952.282	0.0146011
952.360	0.0146492
952.438	0.0146998
952.516	0.0146222
952.594	0.0145347
952.673	0.0144711
952.751	0.0145150
952.829	0.0145098
952.907	0.0144307
952.985	0.0144727
953.063	0.0145071
953.141	0.0145503
953.219	0.0144361
953.298	0.0147336
953.376	0.0144977
953.454	0.0144730
953.532	0.0146493
953.610	0.0146383
953.688	0.0145742
953.766	0.0146191
953.844	0.0144764
953.923	0.0145243
954.001	0.0146604
954.079	0.0144592
954.157	0.0146369
954.235	0.0145905
954.313	0.0144464
954.391	0.0145827
954.469	0.0144360
954.548	0.0143890
954.626	0.0145000
954.704	0.0144602
954.782	0.0143493
954.860	0.0143106
954.938	0.0142447
955.016	0.0144189
955.094	0.0144801
955.173	0.0144566
955.251	0.0144903
955.329	0.0144435
955.407	0.0144211
955.485	0.0145547
955.563	0.0143807
955.641	0.0143650
955.719	0.0145197
955.798	0.0144909
955.876	0.0146554
955.954	0.0146281
956.032	0.0145056
956.110	0.0145200
956.188	0.0144694
956.266	0.0145563
956.344	0.0145660
956.423	0.0144759
956.501	0.0144591
956.579	0.0144212
956.657	0.0145493
956.735	0.0145089
956.813	0.0143385
956.891	0.0145133
956.969	0.0143671
957.048	0.0143082
957.126	0.0144260
957.204	0.0142500
957.282	0.0145149
957.360	0.0144322
957.438	0.0144315
957.516	0.0144035
957.594	0.0144486
957.673	0.0144567
957.751	0.0145054
957.829	0.0145560
957.907	0.0145692
957.985	0.0146706
958.063	0.0146785
958.141	0.0145692
958.219	0.0147140
958.298	0.0148217
958.376	0.0148226
958.454	0.0147076
958.532	0.0147028
958.610	0.0147126
958.688	0.0145059
958.766	0.0146838
958.844	0.0145220
958.923	0.0147269
959.001	0.0144825
959.079	0.0145357
959.157	0.0144519
959.235	0.0142937
959.313	0.0142233
959.391	0.0141975
959.469	0.0141025
959.548	0.0142556
959.626	0.0142266
959.704	0.0141792
959.782	0.0141235
959.860	0.0142174
959.938	0.0142324
960.016	0.0142007
960.094	0.0142900
960.173	0.0141798
960.251	0.0143188
960.329	0.0144384
960.407	0.0142899
960.485	0.0144656
960.563	0.0143731
960.641	0.0142919
960.719	0.0144167
960.798	0.0143214
960.876	0.0144601
960.954	0.0144305
961.032	0.0146219
961.110	0.0144634
961.188	0.0145583
961.266	0.0145867
961.344	0.0144698
961.423	0.0145190
961.501	0.0145944
961.579	0.0145925
961.657	0.0146626
961.735	0.0147321
961.813	0.0145844
961.891	0.0145397
961.969	0.0146128
962.048	0.0146242
962.126	0.0145538
962.204	0.0146217
962.282	0.0145755
962.360	0.0145865
962.438	0.0146926
962.516	0.0143655
962.594	0.0145352
962.673	0.0144321
962.751	0.0142720
962.829	0.0144083
962.907	0.0143327
962.985	0.0143098
963.063	0.0142352
963.141	0.0143980
963.219	0.0141789
963.298	0.0144276
963.376	0.0143409
963.454	0.0142728
963.532	0.0145309
963.610	0.0143157
963.688	0.0142965
963.766	0.0143914
963.844	0.0143652
963.923	0.0144692
964.001	0.0145577
964.079	0.0145231
964.157	0.0143649
964.235	0.0144247
964.313	0.0144334
964.391	0.0146362
964.469	0.0145266
964.548	0.0145776
964.626	0.0145992
964.704	0.0146657
964.782	0.0145894
964.860	0.0146383
964.938	0.0145381
965.016	0.0146348
965.094	0.0144134
965.173	0.0144331
965.251	0.0144618
965.329	0.0144170
965.407	0.0144153
965.485	0.0143459
965.563	0.0142953
965.641	0.0143489
965.719	0.0142232
965.798	0.0142205
965.876	0.0143426
965.954	0.0141914
966.032	0.0141723
966.110	0.0142358
966.188	0.0142911
966.266	0.0143164
966.344	0.0142426
966.423	0.0142381
966.501	0.0142617
966.579	0.0142754
966.657	0.0142748
966.735	0.0143339
966.813	0.0144400
966.891	0.0141988
966.969	0.0142102
967.048	0.0144010
967.126	0.0143192
967.204	0.0141895
967.282	0.0141512
967.360	0.0142703
967.438	0.0142764
967.516	0.0144746
967.594	0.0145016
967.673	0.0144071
967.751	0.0145959
967.829	0.0145757
967.907	0.0144971
967.985	0.0147482
968.063	0.0145250
968.141	0.0147948
968.219	0.0148396
968.298	0.0148557
968.376	0.0150339
968.454	0.0149830
968.532	0.0149677
968.610	0.0148557
968.688	0.0148502
968.766	0.0148711
968.844	0.0149329
968.923	0.0148617
969.001	0.0148709
969.079	0.0147612
969.157	0.0146312
969.235	0.0145889
969.313	0.0145568
969.391	0.0146527
969.469	0.0144743
969.548	0.0144406
969.626	0.0143723
969.704	0.0143029
969.782	0.0142375
969.860	0.0142960
969.938	0.0142572
