05/14/2022	19:22:40	Ver.	4.1	UNKNOWN
Optical Delay	650.009681	Delta X		0.078125	Sweeps	1	Scan Rate	0/0
Coordinates	Axis 1	NaN	Axis 2	NaN	Axis 3	NaN	Axis 4	NaN	Axis 5	NaN	Axis 6	0.000000
TX Power	0.000000	RX Power	0.000000

650.010	0.0143362
650.088	0.0144141
650.166	0.0143010
650.244	0.0143876
650.322	0.0142517
650.400	0.0142738
650.478	0.0143118
650.557	0.0144067
650.635	0.0143695
650.713	0.0143542
650.791	0.0141805
650.869	0.0142546
650.947	0.0142693
651.025	0.0142804
651.103	0.0143098
651.182	0.0143114
651.260	0.0142914
651.338	0.0143240
651.416	0.0144323
651.494	0.0142832
651.572	0.0143137
651.650	0.0140960
651.728	0.0141902
651.807	0.0142300
651.885	0.0141948
651.963	0.0141042
652.041	0.0142793
652.119	0.0142738
652.197	0.0142952
652.275	0.0141818
652.353	0.0142760
652.432	0.0141769
652.510	0.0142235
652.588	0.0142046
652.666	0.0142274
652.744	0.0141826
652.822	0.0143287
652.900	0.0142686
652.978	0.0142420
653.057	0.0141692
653.135	0.0143461
653.213	0.0143340
653.291	0.0141510
653.369	0.0142829
653.447	0.0142216
653.525	0.0143123
653.603	0.0141762
653.682	0.0143042
653.760	0.0142212
653.838	0.0141904
653.916	0.0142229
653.994	0.0141885
654.072	0.0142733
654.150	0.0142493
654.228	0.0142625
654.307	0.0142561
654.385	0.0141975
654.463	0.0141621
654.541	0.0142999
654.619	0.0142359
654.697	0.0142314
654.775	0.0143077
654.853	0.0141916
654.932	0.0140878
655.010	0.0142256
655.088	0.0143393
655.166	0.0142397
655.244	0.0142967
655.322	0.0142694
655.400	0.0142683
655.478	0.0142797
655.557	0.0143133
655.635	0.0142385
655.713	0.0142316
655.791	0.0141695
655.869	0.0142335
655.947	0.0142083
656.025	0.0142462
656.103	0.0143227
656.182	0.0140605
656.260	0.0141315
656.338	0.0142729
656.416	0.0141535
656.494	0.0141279
656.572	0.0141823
656.650	0.0141504
656.728	0.0141381
656.807	0.0142580
656.885	0.0141164
656.963	0.0142194
657.041	0.0143439
657.119	0.0142336
657.197	0.0142797
657.275	0.0142016
657.353	0.0140657
657.432	0.0142436
657.510	0.0142340
657.588	0.0141219
657.666	0.0142510
657.744	0.0142037
657.822	0.0143439
657.900	0.0141340
657.978	0.0142010
658.057	0.0143739
658.135	0.0142339
658.213	0.0141384
658.291	0.0143009
658.369	0.0142491
658.447	0.0142340
658.525	0.0142715
658.603	0.0142131
658.682	0.0142849
658.760	0.0144978
658.838	0.0143246
658.916	0.0141331
658.994	0.0141761
659.072	0.0143960
659.150	0.0143595
659.228	0.0143602
659.307	0.0142393
659.385	0.0143632
659.463	0.0143170
659.541	0.0142266
659.619	0.0143143
659.697	0.0142698
659.775	0.0142838
659.853	0.0143237
659.932	0.0142996
660.010	0.0142819
660.088	0.0144235
660.166	0.0143442
660.244	0.0142699
660.322	0.0143181
660.400	0.0143600
660.478	0.0142464
660.557	0.0142759
660.635	0.0143850
660.713	0.0143283
660.791	0.0141761
660.869	0.0142809
660.947	0.0143922
661.025	0.0143172
661.103	0.0142947
661.182	0.0142657
661.260	0.0142313
661.338	0.0142799
661.416	0.0142661
661.494	0.0141943
661.572	0.0143231
661.650	0.0141943
661.728	0.0143564
661.807	0.0143234
661.885	0.0142809
661.963	0.0142968
662.041	0.0143436
662.119	0.0142990
662.197	0.0143677
662.275	0.0142604
662.353	0.0140694
662.432	0.0143327
662.510	0.0142982
662.588	0.0141902
662.666	0.0142334
662.744	0.0143906
662.822	0.0142754
662.900	0.0142859
662.978	0.0143394
663.057	0.0142135
663.135	0.0143258
663.213	0.0142667
663.291	0.0142342
663.369	0.0142275
663.447	0.0143794
663.525	0.0141338
663.603	0.0142635
663.682	0.0144254
663.760	0.0143682
663.838	0.0143083
663.916	0.0141740
663.994	0.0142209
664.072	0.0143085
664.150	0.0143653
664.228	0.0142587
664.307	0.0143776
664.385	0.0144462
664.463	0.0142714
664.541	0.0142956
664.619	0.0144709
664.697	0.0144541
664.775	0.0142812
664.853	0.0143109
664.932	0.0142883
665.010	0.0143760
665.088	0.0143964
665.166	0.0143562
665.244	0.0144131
665.322	0.0145422
665.400	0.0143845
665.478	0.0144405
665.557	0.0144273
665.635	0.0144657
665.713	0.0145018
665.791	0.0144228
665.869	0.0143857
665.947	0.0144855
666.025	0.0144539
666.103	0.0143867
666.182	0.0143467
666.260	0.0144186
666.338	0.0142996
666.416	0.0143292
666.494	0.0142601
666.572	0.0143436
666.650	0.0143001
666.728	0.0143347
666.807	0.0144647
666.885	0.0143404
666.963	0.0142588
667.041	0.0143574
667.119	0.0143504
667.197	0.0144502
667.275	0.0144735
667.353	0.0143661
667.432	0.0143800
667.510	0.0143109
667.588	0.0145430
667.666	0.0144447
667.744	0.0141711
667.822	0.0143607
667.900	0.0145035
667.978	0.0143350
668.057	0.0144147
668.135	0.0144458
668.213	0.0144551
668.291	0.0143994
668.369	0.0144083
668.447	0.0144081
668.525	0.0145068
668.603	0.0142855
668.682	0.0143563
668.760	0.0145115
668.838	0.0143542
668.916	0.0143594
668.994	0.0145554
669.072	0.0144054
669.150	0.0144030
669.228	0.0143746
669.307	0.0143922
669.385	0.0144334
669.463	0.0144444
669.541	0.0142709
669.619	0.0143377
669.697	0.0143445
669.775	0.0143420
669.853	0.0143774
669.932	0.0144002
670.010	0.0143387
670.088	0.0144634
670.166	0.0144036
670.244	0.0143841
670.322	0.0143561
670.400	0.0144308
670.478	0.0143771
670.557	0.0143715
670.635	0.0142561
670.713	0.0142477
670.791	0.0142384
670.869	0.0143001
670.947	0.0142532
671.025	0.0143371
671.103	0.0143039
671.182	0.0143272
671.260	0.0143369
671.338	0.0141205
671.416	0.0142524
671.494	0.0142717
671.572	0.0142207
671.650	0.0143842
671.728	0.0143311
671.807	0.0142433
671.885	0.0143182
671.963	0.0143858
672.041	0.0143248
672.119	0.0142782
672.197	0.0143323
672.275	0.0142222
672.353	0.0143251
672.432	0.0144723
672.510	0.0143534
672.588	0.0143354
672.666	0.0142173
672.744	0.0142496
672.822	0.0142429
672.900	0.0143253
672.978	0.0142342
673.057	0.0143728
673.135	0.0144926
673.213	0.0143407
673.291	0.0143703
673.369	0.0143597
673.447	0.0145211
673.525	0.0142898
673.603	0.0142744
673.682	0.0143705
673.760	0.0144023
673.838	0.0142276
673.916	0.0141256
673.994	0.0140830
674.072	0.0139684
674.150	0.0138478
674.228	0.0138498
674.307	0.0139796
674.385	0.0140834
674.463	0.0140293
674.541	0.0142814
674.619	0.0143594
674.697	0.0145861
674.775	0.0145769
674.853	0.0146910
674.932	0.0149399
675.010	0.0150774
675.088	0.0149785
675.166	0.0149800
675.244	0.0149247
675.322	0.0148295
675.400	0.0145287
675.478	0.0142934
675.557	0.0139749
675.635	0.0137972
675.713	0.0136343
675.791	0.0134437
675.869	0.0132791
675.947	0.0132388
676.025	0.0133678
676.103	0.0131532
676.182	0.0130865
676.260	0.0134321
676.338	0.0136108
676.416	0.0137228
676.494	0.0138854
676.572	0.0139899
676.650	0.0142098
676.728	0.0144866
676.807	0.0145702
676.885	0.0146025
676.963	0.0148039
677.041	0.0148502
677.119	0.0149516
677.197	0.0152039
677.275	0.0152766
677.353	0.0150290
677.432	0.0151039
677.510	0.0152675
677.588	0.0151954
677.666	0.0151577
677.744	0.0150324
677.822	0.0149079
677.900	0.0147292
677.978	0.0146292
678.057	0.0143842
678.135	0.0141451
678.213	0.0139898
678.291	0.0138838
678.369	0.0137469
678.447	0.0135693
678.525	0.0134423
678.603	0.0133849
678.682	0.0132195
678.760	0.0131221
678.838	0.0132065
678.916	0.0131562
678.994	0.0132185
679.072	0.0132957
679.150	0.0131573
679.228	0.0131474
679.307	0.0131033
679.385	0.0132087
679.463	0.0133211
679.541	0.0134885
679.619	0.0136989
679.697	0.0138823
679.775	0.0142114
679.853	0.0144106
679.932	0.0145510
680.010	0.0149194
680.088	0.0152811
680.166	0.0156273
680.244	0.0158504
680.322	0.0160800
680.400	0.0163991
680.478	0.0164187
680.557	0.0164555
680.635	0.0164226
680.713	0.0162508
680.791	0.0160548
680.869	0.0157559
680.947	0.0153016
681.025	0.0150197
681.103	0.0146507
681.182	0.0143764
681.260	0.0140089
681.338	0.0139068
681.416	0.0137305
681.494	0.0136067
681.572	0.0137716
681.650	0.0136219
681.728	0.0136050
681.807	0.0135898
681.885	0.0132540
681.963	0.0129681
682.041	0.0128812
682.119	0.0123743
682.197	0.0120531
682.275	0.0117141
682.353	0.0115177
682.432	0.0115678
682.510	0.0114893
682.588	0.0116509
682.666	0.0119311
682.744	0.0123190
682.822	0.0128145
682.900	0.0133720
682.978	0.0140824
683.057	0.0147120
683.135	0.0154952
683.213	0.0157857
683.291	0.0164865
683.369	0.0167752
683.447	0.0170729
683.525	0.0171442
683.603	0.0174518
683.682	0.0173624
683.760	0.0173391
683.838	0.0173945
683.916	0.0171961
683.994	0.0170839
684.072	0.0167466
684.150	0.0165711
684.228	0.0164481
684.307	0.0161019
684.385	0.0154804
684.463	0.0150686
684.541	0.0146532
684.619	0.0142207
684.697	0.0136069
684.775	0.0130818
684.853	0.0128238
684.932	0.0124898
685.010	0.0121478
685.088	0.0120362
685.166	0.0119688
685.244	0.0119619
685.322	0.0120549
685.400	0.0119373
685.478	0.0119982
685.557	0.0122160
685.635	0.0122446
685.713	0.0122565
685.791	0.0122919
685.869	0.0126481
685.947	0.0127409
686.025	0.0128002
686.103	0.0130848
686.182	0.0134745
686.260	0.0138095
686.338	0.0142088
686.416	0.0145794
686.494	0.0148308
686.572	0.0153017
686.650	0.0156881
686.728	0.0159425
686.807	0.0163622
686.885	0.0164946
686.963	0.0165738
687.041	0.0166238
687.119	0.0166323
687.197	0.0165972
687.275	0.0164967
687.353	0.0160341
687.432	0.0157517
687.510	0.0155000
687.588	0.0150526
687.666	0.0147729
687.744	0.0144587
687.822	0.0140397
687.900	0.0139899
687.978	0.0137106
688.057	0.0135028
688.135	0.0137207
688.213	0.0137745
688.291	0.0137630
688.369	0.0139887
688.447	0.0139397
688.525	0.0139768
688.603	0.0139304
688.682	0.0140453
688.760	0.0140093
688.838	0.0139934
688.916	0.0138383
688.994	0.0139097
689.072	0.0136496
689.150	0.0138526
689.228	0.0139264
689.307	0.0142009
689.385	0.0142503
689.463	0.0144530
689.541	0.0147386
689.619	0.0147982
689.697	0.0148494
689.775	0.0147941
689.853	0.0147890
689.932	0.0147481
690.010	0.0147240
690.088	0.0143893
690.166	0.0142079
690.244	0.0141101
690.322	0.0139835
690.400	0.0137851
690.478	0.0135752
690.557	0.0135696
690.635	0.0134157
690.713	0.0132782
690.791	0.0131738
690.869	0.0132274
690.947	0.0131566
691.025	0.0130854
691.103	0.0130338
691.182	0.0130334
691.260	0.0127871
691.338	0.0127744
691.416	0.0128325
691.494	0.0128217
691.572	0.0129079
691.650	0.0129741
691.728	0.0132518
691.807	0.0135726
691.885	0.0138637
691.963	0.0141755
692.041	0.0146390
692.119	0.0151751
692.197	0.0156723
692.275	0.0159027
692.353	0.0161970
692.432	0.0165555
692.510	0.0166928
692.588	0.0165040
692.666	0.0166962
692.744	0.0167444
692.822	0.0163018
692.900	0.0163216
692.978	0.0160688
693.057	0.0158121
693.135	0.0157466
693.213	0.0156384
693.291	0.0155320
693.369	0.0154729
693.447	0.0152990
693.525	0.0152931
693.603	0.0150607
693.682	0.0148555
693.760	0.0145680
693.838	0.0144737
693.916	0.0142601
693.994	0.0138486
694.072	0.0136639
694.150	0.0135279
694.228	0.0132272
694.307	0.0130956
694.385	0.0129236
694.463	0.0128446
694.541	0.0128406
694.619	0.0128045
694.697	0.0128577
694.775	0.0128600
694.853	0.0127335
694.932	0.0128688
695.010	0.0127433
695.088	0.0125352
695.166	0.0124986
695.244	0.0124134
695.322	0.0122427
695.400	0.0120475
695.478	0.0120081
695.557	0.0118736
695.635	0.0116881
695.713	0.0119276
695.791	0.0122093
695.869	0.0123754
695.947	0.0126994
696.025	0.0132298
696.103	0.0137135
696.182	0.0142509
696.260	0.0148270
696.338	0.0151920
696.416	0.0157963
696.494	0.0162228
696.572	0.0165987
696.650	0.0170602
696.728	0.0172382
696.807	0.0175828
696.885	0.0176842
696.963	0.0178563
697.041	0.0179198
697.119	0.0179420
697.197	0.0178561
697.275	0.0175965
697.353	0.0175371
697.432	0.0171823
697.510	0.0169393
697.588	0.0167258
697.666	0.0163017
697.744	0.0158807
697.822	0.0154904
697.900	0.0152425
697.978	0.0147816
698.057	0.0144369
698.135	0.0139521
698.213	0.0135374
698.291	0.0131095
698.369	0.0127799
698.447	0.0123115
698.525	0.0120071
698.603	0.0117700
698.682	0.0114719
698.760	0.0113210
698.838	0.0114498
698.916	0.0113411
698.994	0.0113465
699.072	0.0116119
699.150	0.0118410
699.228	0.0119191
699.307	0.0123045
699.385	0.0124993
699.463	0.0127999
699.541	0.0131645
699.619	0.0134768
699.697	0.0137389
699.775	0.0138947
699.853	0.0141461
699.932	0.0143826
700.010	0.0148029
700.088	0.0151070
700.166	0.0151436
700.244	0.0153647
700.322	0.0155953
700.400	0.0158242
700.478	0.0157629
700.557	0.0158829
700.635	0.0160255
700.713	0.0162270
700.791	0.0160297
700.869	0.0159546
700.947	0.0159196
701.025	0.0158667
701.103	0.0156039
701.182	0.0154309
701.260	0.0150059
701.338	0.0145663
701.416	0.0139835
701.494	0.0135689
701.572	0.0130614
701.650	0.0127192
701.728	0.0122399
701.807	0.0120116
701.885	0.0117966
701.963	0.0116345
702.041	0.0116093
702.119	0.0117474
702.197	0.0118077
702.275	0.0121781
702.353	0.0125888
702.432	0.0127940
702.510	0.0132643
702.588	0.0138764
702.666	0.0144544
702.744	0.0149708
702.822	0.0156403
702.900	0.0160335
702.978	0.0165688
703.057	0.0172316
703.135	0.0175558
703.213	0.0178762
703.291	0.0180561
703.369	0.0181346
703.447	0.0181689
703.525	0.0182005
703.603	0.0178705
703.682	0.0175342
703.760	0.0173976
703.838	0.0170621
703.916	0.0164585
703.994	0.0160287
704.072	0.0155910
704.150	0.0152500
704.228	0.0147549
704.307	0.0143227
704.385	0.0138982
704.463	0.0136256
704.541	0.0134666
704.619	0.0130711
704.697	0.0129334
704.775	0.0126488
704.853	0.0124567
704.932	0.0121584
705.010	0.0119599
705.088	0.0118058
705.166	0.0114487
705.244	0.0112831
705.322	0.0111114
705.400	0.0109183
705.478	0.0108669
705.557	0.0108693
705.635	0.0110109
705.713	0.0110425
705.791	0.0112515
705.869	0.0115103
705.947	0.0118410
706.025	0.0120845
706.103	0.0123601
706.182	0.0126277
706.260	0.0131171
706.338	0.0135507
706.416	0.0136862
706.494	0.0140403
706.572	0.0142405
706.650	0.0143742
706.728	0.0148512
706.807	0.0150712
706.885	0.0153359
706.963	0.0155842
707.041	0.0158797
707.119	0.0160504
707.197	0.0161220
707.275	0.0166000
707.353	0.0168724
707.432	0.0169882
707.510	0.0173491
707.588	0.0173811
707.666	0.0174240
707.744	0.0175237
707.822	0.0173939
707.900	0.0172995
707.978	0.0170058
708.057	0.0166865
708.135	0.0165269
708.213	0.0161168
708.291	0.0158562
708.369	0.0153915
708.447	0.0152328
708.525	0.0149619
708.603	0.0146307
708.682	0.0145343
708.760	0.0143066
708.838	0.0141165
708.916	0.0140522
708.994	0.0138365
709.072	0.0137264
709.150	0.0137451
709.228	0.0135278
709.307	0.0134440
709.385	0.0135079
709.463	0.0132763
709.541	0.0134103
709.619	0.0132999
709.697	0.0133729
709.775	0.0133958
709.853	0.0134187
709.932	0.0134337
710.010	0.0134988
710.088	0.0135544
710.166	0.0135876
710.244	0.0136439
710.322	0.0135034
710.400	0.0132371
710.478	0.0131389
710.557	0.0130371
710.635	0.0129044
710.713	0.0126490
710.791	0.0126459
710.869	0.0126007
710.947	0.0125642
711.025	0.0125631
711.103	0.0128300
711.182	0.0129614
711.260	0.0132089
711.338	0.0134284
711.416	0.0134970
711.494	0.0139582
711.572	0.0142375
711.650	0.0143498
711.728	0.0143749
711.807	0.0143988
711.885	0.0145960
711.963	0.0145053
712.041	0.0144020
712.119	0.0143425
712.197	0.0143878
712.275	0.0141516
712.353	0.0141832
712.432	0.0142763
712.510	0.0141155
712.588	0.0140950
712.666	0.0142220
712.744	0.0143384
712.822	0.0143312
712.900	0.0144296
712.978	0.0145031
713.057	0.0145278
713.135	0.0143046
713.213	0.0143058
713.291	0.0141615
713.369	0.0141246
713.447	0.0141112
713.525	0.0143808
713.603	0.0143105
713.682	0.0142681
713.760	0.0144536
713.838	0.0146115
713.916	0.0148400
713.994	0.0151929
714.072	0.0155669
714.150	0.0157061
714.228	0.0157320
714.307	0.0159820
714.385	0.0161626
714.463	0.0160890
714.541	0.0161231
714.619	0.0162247
714.697	0.0161383
714.775	0.0162457
714.853	0.0161486
714.932	0.0160709
715.010	0.0161791
715.088	0.0162205
715.166	0.0161334
715.244	0.0160741
715.322	0.0161588
715.400	0.0159337
715.478	0.0159270
715.557	0.0158401
715.635	0.0157082
715.713	0.0154044
715.791	0.0150241
715.869	0.0146350
715.947	0.0142407
716.025	0.0136754
716.103	0.0132967
716.182	0.0127890
716.260	0.0123145
716.338	0.0118603
716.416	0.0114297
716.494	0.0111073
716.572	0.0108719
716.650	0.0106683
716.728	0.0104860
716.807	0.0103761
716.885	0.0104350
716.963	0.0105290
717.041	0.0108459
717.119	0.0110583
717.197	0.0113230
717.275	0.0117471
717.353	0.0120682
717.432	0.0126646
717.510	0.0129858
717.588	0.0134441
717.666	0.0138239
717.744	0.0143977
717.822	0.0146630
717.900	0.0150309
717.978	0.0151402
718.057	0.0153497
718.135	0.0153908
718.213	0.0153313
718.291	0.0155180
718.369	0.0153497
718.447	0.0152927
718.525	0.0150780
718.603	0.0150703
718.682	0.0150562
718.760	0.0150948
718.838	0.0151670
718.916	0.0150471
718.994	0.0150359
719.072	0.0152278
719.150	0.0152817
719.228	0.0155416
719.307	0.0156443
719.385	0.0155890
719.463	0.0155894
719.541	0.0158909
719.619	0.0159966
719.697	0.0161650
719.775	0.0161888
719.853	0.0160491
719.932	0.0160460
720.010	0.0158871
720.088	0.0159853
720.166	0.0159113
720.244	0.0157759
720.322	0.0156287
720.400	0.0155116
720.478	0.0152918
720.557	0.0151321
720.635	0.0151022
720.713	0.0148828
720.791	0.0148581
720.869	0.0146720
720.947	0.0146136
721.025	0.0146378
721.103	0.0147427
721.182	0.0147203
721.260	0.0147962
721.338	0.0148094
721.416	0.0149855
721.494	0.0151321
721.572	0.0150867
721.650	0.0150448
721.728	0.0149491
721.807	0.0148183
721.885	0.0147868
721.963	0.0145143
722.041	0.0142108
722.119	0.0136449
722.197	0.0131918
722.275	0.0127857
722.353	0.0122991
722.432	0.0117373
722.510	0.0112565
722.588	0.0111153
722.666	0.0108001
722.744	0.0105630
722.822	0.0105694
722.900	0.0107517
722.978	0.0108775
723.057	0.0111264
723.135	0.0114920
723.213	0.0119363
723.291	0.0125310
723.369	0.0129163
723.447	0.0134437
723.525	0.0138786
723.603	0.0142104
723.682	0.0147344
723.760	0.0150491
723.838	0.0153468
723.916	0.0155121
723.994	0.0154816
724.072	0.0154930
724.150	0.0154028
724.228	0.0153297
724.307	0.0151928
724.385	0.0148899
724.463	0.0146259
724.541	0.0145979
724.619	0.0144269
724.697	0.0142886
724.775	0.0143065
724.853	0.0143058
724.932	0.0144353
725.010	0.0145580
725.088	0.0146624
725.166	0.0149342
725.244	0.0151270
725.322	0.0151726
725.400	0.0154133
725.478	0.0155582
725.557	0.0156461
725.635	0.0156625
725.713	0.0157671
725.791	0.0157826
725.869	0.0158171
725.947	0.0159332
726.025	0.0159357
726.103	0.0158324
726.182	0.0159271
726.260	0.0157854
726.338	0.0158110
726.416	0.0157112
726.494	0.0156870
726.572	0.0155026
726.650	0.0153098
726.728	0.0151476
726.807	0.0150539
726.885	0.0149425
726.963	0.0148424
727.041	0.0149100
727.119	0.0149352
727.197	0.0147900
727.275	0.0148779
727.353	0.0149392
727.432	0.0150008
727.510	0.0149825
727.588	0.0149090
727.666	0.0149363
727.744	0.0147546
727.822	0.0145851
727.900	0.0144279
727.978	0.0140974
728.057	0.0137684
728.135	0.0135282
728.213	0.0132177
728.291	0.0128263
728.369	0.0125834
728.447	0.0123468
728.525	0.0120155
728.603	0.0117489
728.682	0.0114668
728.760	0.0115352
728.838	0.0114719
728.916	0.0116002
728.994	0.0115547
729.072	0.0116393
729.150	0.0118767
729.228	0.0121908
729.307	0.0124773
729.385	0.0127598
729.463	0.0130561
729.541	0.0135175
729.619	0.0138537
729.697	0.0142157
729.775	0.0144164
729.853	0.0147021
729.932	0.0148878
730.010	0.0149893
730.088	0.0150950
730.166	0.0150684
730.244	0.0151587
730.322	0.0150320
730.400	0.0148383
730.478	0.0145004
730.557	0.0141662
730.635	0.0139707
730.713	0.0137368
730.791	0.0135632
730.869	0.0131988
730.947	0.0131493
731.025	0.0133036
731.103	0.0133765
731.182	0.0133713
731.260	0.0135466
731.338	0.0139913
731.416	0.0141730
731.494	0.0145351
731.572	0.0146935
731.650	0.0149892
731.728	0.0151736
731.807	0.0154523
731.885	0.0155482
731.963	0.0156564
732.041	0.0157655
732.119	0.0158097
732.197	0.0157694
732.275	0.0156708
732.353	0.0156690
732.432	0.0157199
732.510	0.0157653
732.588	0.0157388
732.666	0.0158309
732.744	0.0158690
732.822	0.0158412
732.900	0.0159978
732.978	0.0158835
733.057	0.0159828
733.135	0.0159798
733.213	0.0160275
733.291	0.0160318
733.369	0.0160992
733.447	0.0159693
733.525	0.0159270
733.603	0.0160107
733.682	0.0158408
733.760	0.0156577
733.838	0.0156630
733.916	0.0153464
733.994	0.0152175
734.072	0.0150768
734.150	0.0145883
734.228	0.0144955
734.307	0.0141084
734.385	0.0136370
734.463	0.0131979
734.541	0.0130505
734.619	0.0125706
734.697	0.0121508
734.775	0.0121631
734.853	0.0118189
734.932	0.0115427
735.010	0.0112611
735.088	0.0112309
735.166	0.0112181
735.244	0.0112075
735.322	0.0111106
735.400	0.0112756
735.478	0.0114095
735.557	0.0114826
735.635	0.0117246
735.713	0.0118587
735.791	0.0120831
735.869	0.0123899
735.947	0.0125464
736.025	0.0129311
736.103	0.0131854
736.182	0.0132906
736.260	0.0134914
736.338	0.0138666
736.416	0.0140339
736.494	0.0140968
736.572	0.0144538
736.650	0.0145023
736.728	0.0145206
736.807	0.0145633
736.885	0.0145618
736.963	0.0146551
737.041	0.0147762
737.119	0.0146149
737.197	0.0146588
737.275	0.0149188
737.353	0.0147903
737.432	0.0147950
737.510	0.0149573
737.588	0.0149709
737.666	0.0151196
737.744	0.0152130
737.822	0.0154270
737.900	0.0156458
737.978	0.0158670
738.057	0.0158496
738.135	0.0158762
738.213	0.0161564
738.291	0.0163036
738.369	0.0162791
738.447	0.0162627
738.525	0.0161909
738.603	0.0161686
738.682	0.0161910
738.760	0.0162450
738.838	0.0161255
738.916	0.0161039
738.994	0.0159763
739.072	0.0160699
739.150	0.0159777
739.228	0.0159067
739.307	0.0158344
739.385	0.0158991
739.463	0.0158872
739.541	0.0158467
739.619	0.0159306
739.697	0.0157722
739.775	0.0154919
739.853	0.0155543
739.932	0.0154666
740.010	0.0153535
740.088	0.0150691
740.166	0.0148492
740.244	0.0145702
740.322	0.0143279
740.400	0.0141005
740.478	0.0136575
740.557	0.0133073
740.635	0.0131149
740.713	0.0126501
740.791	0.0124511
740.869	0.0122674
740.947	0.0119216
741.025	0.0116595
741.103	0.0115657
741.182	0.0111660
741.260	0.0110014
741.338	0.0110295
741.416	0.0109703
741.494	0.0109278
741.572	0.0110800
741.650	0.0111234
741.728	0.0111353
741.807	0.0113367
741.885	0.0116324
741.963	0.0118324
742.041	0.0120384
742.119	0.0123139
742.197	0.0126816
742.275	0.0129632
742.353	0.0132439
742.432	0.0135734
742.510	0.0139172
742.588	0.0142302
742.666	0.0145892
742.744	0.0146633
742.822	0.0147426
742.900	0.0150677
742.978	0.0151265
743.057	0.0151645
743.135	0.0152821
743.213	0.0154398
743.291	0.0153027
743.369	0.0152901
743.447	0.0153697
743.525	0.0153951
743.603	0.0154717
743.682	0.0155764
743.760	0.0156351
743.838	0.0156863
743.916	0.0158608
743.994	0.0159251
744.072	0.0160398
744.150	0.0160754
744.228	0.0160715
744.307	0.0161095
744.385	0.0161852
744.463	0.0160903
744.541	0.0161484
744.619	0.0160448
744.697	0.0159190
744.775	0.0159415
744.853	0.0159617
744.932	0.0159641
745.010	0.0158485
745.088	0.0158799
745.166	0.0157016
745.244	0.0157866
745.322	0.0157338
745.400	0.0156519
745.478	0.0156138
745.557	0.0155677
745.635	0.0154955
745.713	0.0154729
745.791	0.0152489
745.869	0.0153303
745.947	0.0150639
746.025	0.0149997
746.103	0.0148615
746.182	0.0146535
746.260	0.0144874
746.338	0.0143613
746.416	0.0141334
746.494	0.0141356
746.572	0.0139730
746.650	0.0138636
746.728	0.0136722
746.807	0.0135065
746.885	0.0131551
746.963	0.0131996
747.041	0.0131746
747.119	0.0129610
747.197	0.0128561
747.275	0.0126677
747.353	0.0125975
747.432	0.0124991
747.510	0.0125893
747.588	0.0124062
747.666	0.0123686
747.744	0.0121979
747.822	0.0122094
747.900	0.0122859
747.978	0.0123785
748.057	0.0124538
748.135	0.0125710
748.213	0.0127516
748.291	0.0127024
748.369	0.0128855
748.447	0.0131167
748.525	0.0131715
748.603	0.0132697
748.682	0.0136903
748.760	0.0138775
748.838	0.0139664
748.916	0.0141998
748.994	0.0143275
749.072	0.0143984
749.150	0.0145728
749.228	0.0145898
749.307	0.0145436
749.385	0.0145868
749.463	0.0146516
749.541	0.0145729
749.619	0.0147028
749.697	0.0148398
749.775	0.0147534
749.853	0.0147882
749.932	0.0148369
750.010	0.0149668
750.088	0.0151851
750.166	0.0153782
750.244	0.0154000
750.322	0.0153544
750.400	0.0155703
750.478	0.0154570
750.557	0.0155782
750.635	0.0156311
750.713	0.0155101
750.791	0.0156870
750.869	0.0155403
750.947	0.0155781
751.025	0.0155107
751.103	0.0153905
751.182	0.0154690
751.260	0.0153523
751.338	0.0152979
751.416	0.0152112
751.494	0.0152892
751.572	0.0151725
751.650	0.0151498
751.728	0.0151424
751.807	0.0148740
751.885	0.0150114
751.963	0.0152060
752.041	0.0147746
752.119	0.0148647
752.197	0.0148309
752.275	0.0147868
752.353	0.0146581
752.432	0.0147404
752.510	0.0143824
752.588	0.0144218
752.666	0.0143218
752.744	0.0143975
752.822	0.0140561
752.900	0.0140405
752.978	0.0138760
753.057	0.0139000
753.135	0.0137060
753.213	0.0135805
753.291	0.0134711
753.369	0.0134230
753.447	0.0132667
753.525	0.0131331
753.603	0.0131549
753.682	0.0131211
753.760	0.0132077
753.838	0.0130669
753.916	0.0130685
753.994	0.0129916
754.072	0.0132623
754.150	0.0130255
754.228	0.0130694
754.307	0.0131196
754.385	0.0130550
754.463	0.0132404
754.541	0.0132132
754.619	0.0132164
754.697	0.0133126
754.775	0.0132162
754.853	0.0133894
754.932	0.0132796
755.010	0.0133177
755.088	0.0132491
755.166	0.0133911
755.244	0.0135264
755.322	0.0136233
755.400	0.0133716
755.478	0.0136744
755.557	0.0138206
755.635	0.0139181
755.713	0.0140041
755.791	0.0140108
755.869	0.0141975
755.947	0.0142741
756.025	0.0143739
756.103	0.0145211
756.182	0.0146550
756.260	0.0147974
756.338	0.0148608
756.416	0.0149332
756.494	0.0150957
756.572	0.0151499
756.650	0.0151195
756.728	0.0150807
756.807	0.0150888
756.885	0.0152359
756.963	0.0151579
757.041	0.0151209
757.119	0.0149915
757.197	0.0149936
757.275	0.0149347
757.353	0.0149467
757.432	0.0150414
757.510	0.0151160
757.588	0.0149683
757.666	0.0148588
757.744	0.0149148
757.822	0.0149796
757.900	0.0150088
757.978	0.0150437
758.057	0.0149761
758.135	0.0149586
758.213	0.0150780
758.291	0.0149555
758.369	0.0149588
758.447	0.0149268
758.525	0.0148882
758.603	0.0147443
758.682	0.0148775
758.760	0.0145974
758.838	0.0146590
758.916	0.0145734
758.994	0.0144794
759.072	0.0143793
759.150	0.0143221
759.228	0.0141676
759.307	0.0140986
759.385	0.0140504
759.463	0.0140524
759.541	0.0139142
759.619	0.0139474
759.697	0.0139579
759.775	0.0137671
759.853	0.0137895
759.932	0.0137483
760.010	0.0137138
760.088	0.0138034
760.166	0.0137649
760.244	0.0137973
760.322	0.0137309
760.400	0.0137584
760.478	0.0137280
760.557	0.0137230
760.635	0.0138644
760.713	0.0136987
760.791	0.0138364
760.869	0.0137931
760.947	0.0138375
761.025	0.0139610
761.103	0.0138428
761.182	0.0137139
761.260	0.0138989
761.338	0.0138387
761.416	0.0138350
761.494	0.0138516
761.572	0.0139865
761.650	0.0139461
761.728	0.0138819
761.807	0.0137883
761.885	0.0137573
761.963	0.0136776
762.041	0.0137100
762.119	0.0137472
762.197	0.0139323
762.275	0.0139668
762.353	0.0140929
762.432	0.0140205
762.510	0.0140841
762.588	0.0140885
762.666	0.0143679
762.744	0.0143241
762.822	0.0143069
762.900	0.0143855
762.978	0.0146036
763.057	0.0146759
763.135	0.0147018
763.213	0.0147157
763.291	0.0147203
763.369	0.0147480
763.447	0.0147949
763.525	0.0148701
763.603	0.0148247
763.682	0.0147623
763.760	0.0149091
763.838	0.0148463
763.916	0.0148379
763.994	0.0148200
764.072	0.0149523
764.150	0.0150404
764.228	0.0147504
764.307	0.0148035
764.385	0.0148251
764.463	0.0149598
764.541	0.0149073
764.619	0.0148128
764.697	0.0148024
764.775	0.0149419
764.853	0.0148309
764.932	0.0147652
765.010	0.0147900
765.088	0.0148029
765.166	0.0146214
765.244	0.0145782
765.322	0.0147422
765.400	0.0146899
765.478	0.0146078
765.557	0.0146414
765.635	0.0146065
765.713	0.0145628
765.791	0.0145706
765.869	0.0144029
765.947	0.0145671
766.025	0.0145606
766.103	0.0145290
766.182	0.0144853
766.260	0.0144511
766.338	0.0145097
766.416	0.0144286
766.494	0.0144907
766.572	0.0144627
766.650	0.0143763
766.728	0.0144215
766.807	0.0143846
766.885	0.0143613
766.963	0.0141988
767.041	0.0141472
767.119	0.0141550
767.197	0.0141335
767.275	0.0139115
767.353	0.0139228
767.432	0.0138501
767.510	0.0137904
767.588	0.0137781
767.666	0.0136958
767.744	0.0138060
767.822	0.0136801
767.900	0.0136347
767.978	0.0137659
768.057	0.0135338
768.135	0.0135662
768.213	0.0136048
768.291	0.0136696
768.369	0.0137445
768.447	0.0137679
768.525	0.0137342
768.603	0.0137531
768.682	0.0139925
768.760	0.0139883
768.838	0.0140666
768.916	0.0140877
768.994	0.0141363
769.072	0.0141586
769.150	0.0141731
769.228	0.0141875
769.307	0.0141677
769.385	0.0141299
769.463	0.0141429
769.541	0.0140436
769.619	0.0142451
769.697	0.0141777
769.775	0.0140389
769.853	0.0141544
769.932	0.0141383
770.010	0.0142321
770.088	0.0141998
770.166	0.0143718
770.244	0.0144341
770.322	0.0144384
770.400	0.0145862
770.478	0.0146902
770.557	0.0147610
770.635	0.0149381
770.713	0.0149010
770.791	0.0149500
770.869	0.0151014
770.947	0.0151743
771.025	0.0150784
771.103	0.0150748
771.182	0.0153291
771.260	0.0152009
771.338	0.0151019
771.416	0.0149443
771.494	0.0148831
771.572	0.0149289
771.650	0.0148076
771.728	0.0147234
771.807	0.0146714
771.885	0.0147340
771.963	0.0146669
772.041	0.0145435
772.119	0.0145252
772.197	0.0144632
772.275	0.0144575
772.353	0.0145113
772.432	0.0146762
772.510	0.0144242
772.588	0.0145313
772.666	0.0145946
772.744	0.0145350
772.822	0.0144571
772.900	0.0145471
772.978	0.0144225
773.057	0.0146059
773.135	0.0144095
773.213	0.0144255
773.291	0.0143993
773.369	0.0143649
773.447	0.0141994
773.525	0.0141978
773.603	0.0142606
773.682	0.0142999
773.760	0.0141087
773.838	0.0140173
773.916	0.0141303
773.994	0.0141589
774.072	0.0140256
774.150	0.0139306
774.228	0.0138830
774.307	0.0138541
774.385	0.0137621
774.463	0.0137878
774.541	0.0136170
774.619	0.0136157
774.697	0.0136909
774.775	0.0135841
774.853	0.0135078
774.932	0.0136530
775.010	0.0136370
775.088	0.0136956
775.166	0.0136140
775.244	0.0136058
775.322	0.0135599
775.400	0.0136814
775.478	0.0136863
775.557	0.0134886
775.635	0.0135880
775.713	0.0135987
775.791	0.0136423
775.869	0.0136010
775.947	0.0137410
776.025	0.0136922
776.103	0.0138904
776.182	0.0139697
776.260	0.0139562
776.338	0.0141066
776.416	0.0142450
776.494	0.0142503
776.572	0.0143590
776.650	0.0144686
776.728	0.0145068
776.807	0.0146769
776.885	0.0149067
776.963	0.0149988
777.041	0.0149117
777.119	0.0148848
777.197	0.0150136
777.275	0.0150729
777.353	0.0150855
777.432	0.0150542
777.510	0.0150497
777.588	0.0150893
777.666	0.0149966
777.744	0.0148174
777.822	0.0148814
777.900	0.0147843
777.978	0.0147265
778.057	0.0147418
778.135	0.0145559
778.213	0.0145116
778.291	0.0145284
778.369	0.0145695
778.447	0.0145438
778.525	0.0143307
778.603	0.0143379
778.682	0.0143655
778.760	0.0143994
778.838	0.0145112
778.916	0.0143501
778.994	0.0142771
779.072	0.0143492
779.150	0.0144342
779.228	0.0144437
779.307	0.0143764
779.385	0.0144188
779.463	0.0145625
779.541	0.0145903
779.619	0.0146158
779.697	0.0146819
779.775	0.0147575
779.853	0.0146516
779.932	0.0146043
780.010	0.0145854
780.088	0.0145546
780.166	0.0144548
780.244	0.0144720
780.322	0.0143965
780.400	0.0142934
780.478	0.0142222
780.557	0.0141962
780.635	0.0140808
780.713	0.0140730
780.791	0.0139839
780.869	0.0139381
780.947	0.0139603
781.025	0.0139326
781.103	0.0139350
781.182	0.0139860
781.260	0.0139711
781.338	0.0139722
781.416	0.0139153
781.494	0.0138823
781.572	0.0140394
781.650	0.0140149
781.728	0.0139807
781.807	0.0140388
781.885	0.0140769
781.963	0.0138503
782.041	0.0139438
782.119	0.0138579
782.197	0.0137101
782.275	0.0137701
782.353	0.0136830
782.432	0.0137264
782.510	0.0138390
782.588	0.0137173
782.666	0.0136537
782.744	0.0138797
782.822	0.0138898
782.900	0.0138481
782.978	0.0141312
783.057	0.0140421
783.135	0.0141688
783.213	0.0142497
783.291	0.0142313
783.369	0.0142725
783.447	0.0145181
783.525	0.0145409
783.603	0.0146800
783.682	0.0147811
783.760	0.0148122
783.838	0.0147103
783.916	0.0149200
783.994	0.0148978
784.072	0.0149669
784.150	0.0148981
784.228	0.0149480
784.307	0.0148930
784.385	0.0149778
784.463	0.0149774
784.541	0.0148811
784.619	0.0147147
784.697	0.0148259
784.775	0.0147359
784.853	0.0146970
784.932	0.0146847
785.010	0.0146774
785.088	0.0146259
785.166	0.0144675
785.244	0.0145245
785.322	0.0144569
785.400	0.0145281
785.478	0.0144667
785.557	0.0146113
785.635	0.0145020
785.713	0.0145844
785.791	0.0146011
785.869	0.0145009
785.947	0.0145195
786.025	0.0145957
786.103	0.0145408
786.182	0.0145166
786.260	0.0147302
786.338	0.0145047
786.416	0.0143941
786.494	0.0144215
786.572	0.0143404
786.650	0.0142796
786.728	0.0143674
786.807	0.0142549
786.885	0.0141750
786.963	0.0142217
787.041	0.0140692
787.119	0.0142235
787.197	0.0141717
787.275	0.0141103
787.353	0.0140348
787.432	0.0141679
787.510	0.0140515
787.588	0.0140369
787.666	0.0140093
787.744	0.0140967
787.822	0.0140841
787.900	0.0139937
787.978	0.0140134
788.057	0.0141192
788.135	0.0140961
788.213	0.0139983
788.291	0.0142429
788.369	0.0142160
788.447	0.0142227
788.525	0.0142732
788.603	0.0141962
788.682	0.0141613
788.760	0.0142538
788.838	0.0142483
788.916	0.0141007
788.994	0.0142123
789.072	0.0141650
789.150	0.0141533
789.228	0.0142123
789.307	0.0142863
789.385	0.0143116
789.463	0.0142509
789.541	0.0142106
789.619	0.0143716
789.697	0.0144398
789.775	0.0144106
789.853	0.0143906
789.932	0.0143236
790.010	0.0143696
790.088	0.0144627
790.166	0.0143746
790.244	0.0145403
790.322	0.0143603
790.400	0.0144134
790.478	0.0144418
790.557	0.0142526
790.635	0.0143565
790.713	0.0143040
790.791	0.0142960
790.869	0.0142579
790.947	0.0142755
791.025	0.0139682
791.103	0.0140426
791.182	0.0139592
791.260	0.0139342
791.338	0.0139970
791.416	0.0138922
791.494	0.0137755
791.572	0.0138564
791.650	0.0139997
791.728	0.0138708
791.807	0.0138925
791.885	0.0138885
791.963	0.0139203
792.041	0.0139654
792.119	0.0139867
792.197	0.0141282
792.275	0.0141663
792.353	0.0143688
792.432	0.0143019
792.510	0.0143524
792.588	0.0144109
792.666	0.0145217
792.744	0.0145999
792.822	0.0144556
792.900	0.0147458
792.978	0.0147533
793.057	0.0146851
793.135	0.0146741
793.213	0.0147748
793.291	0.0146785
793.369	0.0148666
793.447	0.0150285
793.525	0.0150077
793.603	0.0149957
793.682	0.0150146
793.760	0.0148697
793.838	0.0150239
793.916	0.0149413
793.994	0.0148439
794.072	0.0148479
794.150	0.0149061
794.228	0.0147322
794.307	0.0146182
794.385	0.0146004
794.463	0.0144591
794.541	0.0143041
794.619	0.0142645
794.697	0.0140076
794.775	0.0140790
794.853	0.0139765
794.932	0.0137682
795.010	0.0137679
795.088	0.0137934
795.166	0.0136105
795.244	0.0135312
795.322	0.0135595
795.400	0.0136957
795.478	0.0135706
795.557	0.0136708
795.635	0.0135136
795.713	0.0138174
795.791	0.0137816
795.869	0.0136845
795.947	0.0138420
796.025	0.0140239
796.103	0.0139499
796.182	0.0139656
796.260	0.0139306
796.338	0.0140968
796.416	0.0141423
796.494	0.0142473
796.572	0.0143341
796.650	0.0142471
796.728	0.0143116
796.807	0.0143198
796.885	0.0143399
796.963	0.0144416
797.041	0.0144647
797.119	0.0145757
797.197	0.0144521
797.275	0.0143446
797.353	0.0142619
797.432	0.0143110
797.510	0.0145415
797.588	0.0143466
797.666	0.0142852
797.744	0.0142177
797.822	0.0143077
797.900	0.0141790
797.978	0.0142287
798.057	0.0141421
798.135	0.0142107
798.213	0.0142857
798.291	0.0142699
798.369	0.0143293
798.447	0.0143431
798.525	0.0142800
798.603	0.0143179
798.682	0.0143412
798.760	0.0144446
798.838	0.0145547
798.916	0.0144989
798.994	0.0143926
799.072	0.0144763
799.150	0.0143364
799.228	0.0145293
799.307	0.0146215
799.385	0.0144708
799.463	0.0146002
799.541	0.0145676
799.619	0.0145932
799.697	0.0144877
799.775	0.0145943
799.853	0.0146570
799.932	0.0144829
800.010	0.0144801
800.088	0.0145197
800.166	0.0146244
800.244	0.0148067
800.322	0.0145796
800.400	0.0145132
800.478	0.0146709
800.557	0.0146450
800.635	0.0147532
800.713	0.0146265
800.791	0.0146674
800.869	0.0145861
800.947	0.0145927
801.025	0.0145726
801.103	0.0144137
801.182	0.0143349
801.260	0.0143066
801.338	0.0142361
801.416	0.0141661
801.494	0.0141560
801.572	0.0140778
801.650	0.0140170
801.728	0.0140734
801.807	0.0139421
801.885	0.0139215
801.963	0.0139008
802.041	0.0139966
802.119	0.0138323
802.197	0.0137441
802.275	0.0137819
802.353	0.0139392
802.432	0.0139825
802.510	0.0139298
802.588	0.0139829
802.666	0.0139938
802.744	0.0140575
802.822	0.0140123
802.900	0.0141405
802.978	0.0140768
803.057	0.0141135
803.135	0.0143919
803.213	0.0143231
803.291	0.0144167
803.369	0.0143745
803.447	0.0142281
803.525	0.0145058
803.603	0.0144687
803.682	0.0144205
803.760	0.0143839
803.838	0.0143192
803.916	0.0144442
803.994	0.0144170
804.072	0.0142609
804.150	0.0144475
804.228	0.0143175
804.307	0.0143793
804.385	0.0142631
804.463	0.0141827
804.541	0.0142863
804.619	0.0142355
804.697	0.0142526
804.775	0.0142669
804.853	0.0143137
804.932	0.0144434
805.010	0.0144170
805.088	0.0144717
805.166	0.0146056
805.244	0.0144988
805.322	0.0143901
805.400	0.0144691
805.478	0.0145207
805.557	0.0145216
805.635	0.0145181
805.713	0.0144747
805.791	0.0144591
805.869	0.0144085
805.947	0.0144543
806.025	0.0145734
806.103	0.0143685
806.182	0.0143586
806.260	0.0143422
806.338	0.0143456
806.416	0.0144411
806.494	0.0144347
806.572	0.0142770
806.650	0.0144820
806.728	0.0144074
806.807	0.0142952
806.885	0.0144935
806.963	0.0144357
807.041	0.0143967
807.119	0.0144453
807.197	0.0142519
807.275	0.0143117
807.353	0.0143894
807.432	0.0143953
807.510	0.0143875
807.588	0.0142756
807.666	0.0142828
807.744	0.0144811
807.822	0.0143721
807.900	0.0142452
807.978	0.0144139
808.057	0.0142490
808.135	0.0140611
808.213	0.0140694
808.291	0.0142164
808.369	0.0142141
808.447	0.0139842
808.525	0.0140076
808.603	0.0141035
808.682	0.0141293
808.760	0.0140977
808.838	0.0142178
808.916	0.0141049
808.994	0.0142995
809.072	0.0143203
809.150	0.0142281
809.228	0.0142487
809.307	0.0143301
809.385	0.0143529
809.463	0.0143016
809.541	0.0143447
809.619	0.0143958
809.697	0.0143739
809.775	0.0144155
809.853	0.0146645
809.932	0.0144572
810.010	0.0146037
810.088	0.0147816
810.166	0.0145458
810.244	0.0146346
810.322	0.0146246
810.400	0.0144436
810.478	0.0144917
810.557	0.0144563
810.635	0.0144556
810.713	0.0143637
810.791	0.0141753
810.869	0.0143275
810.947	0.0141972
811.025	0.0142013
811.103	0.0141206
811.182	0.0140123
811.260	0.0140788
811.338	0.0141219
811.416	0.0142467
811.494	0.0142736
811.572	0.0142554
811.650	0.0141283
811.728	0.0143825
811.807	0.0142713
811.885	0.0143674
811.963	0.0142616
812.041	0.0141000
812.119	0.0144564
812.197	0.0144093
812.275	0.0142342
812.353	0.0143133
812.432	0.0143403
812.510	0.0142184
812.588	0.0143406
812.666	0.0142835
812.744	0.0143337
812.822	0.0142292
812.900	0.0141740
812.978	0.0143213
813.057	0.0142772
813.135	0.0141591
813.213	0.0143314
813.291	0.0143273
813.369	0.0142811
813.447	0.0141949
813.525	0.0142393
813.603	0.0142467
813.682	0.0141112
813.760	0.0141033
813.838	0.0140684
813.916	0.0140010
813.994	0.0140161
814.072	0.0141581
814.150	0.0141006
814.228	0.0140473
814.307	0.0141557
814.385	0.0141906
814.463	0.0141613
814.541	0.0143024
814.619	0.0144133
814.697	0.0145021
814.775	0.0144998
814.853	0.0145029
814.932	0.0145522
815.010	0.0145274
815.088	0.0146672
815.166	0.0147310
815.244	0.0145378
815.322	0.0147986
815.400	0.0146909
815.478	0.0147398
815.557	0.0147835
815.635	0.0147059
815.713	0.0145222
815.791	0.0146740
815.869	0.0146011
815.947	0.0145938
816.025	0.0144399
816.103	0.0144258
816.182	0.0143759
816.260	0.0142722
816.338	0.0142243
816.416	0.0141544
816.494	0.0142156
816.572	0.0140725
816.650	0.0141987
816.728	0.0141012
816.807	0.0141399
816.885	0.0141405
816.963	0.0142928
817.041	0.0144018
817.119	0.0144553
817.197	0.0143844
817.275	0.0145358
817.353	0.0147027
817.432	0.0145616
817.510	0.0146234
817.588	0.0148109
817.666	0.0146958
817.744	0.0147565
817.822	0.0148678
817.900	0.0146938
817.978	0.0146671
818.057	0.0146575
818.135	0.0146278
818.213	0.0145808
818.291	0.0144807
818.369	0.0144682
818.447	0.0142144
818.525	0.0142036
818.603	0.0141152
818.682	0.0140849
818.760	0.0139123
818.838	0.0138026
818.916	0.0138100
818.994	0.0137165
819.072	0.0136371
819.150	0.0135383
819.228	0.0137144
819.307	0.0136736
819.385	0.0135237
819.463	0.0135875
819.541	0.0135696
819.619	0.0137891
819.697	0.0136943
819.775	0.0137291
819.853	0.0138197
819.932	0.0137363
820.010	0.0139523
820.088	0.0139069
820.166	0.0139484
820.244	0.0140984
820.322	0.0140775
820.400	0.0141074
820.478	0.0142244
820.557	0.0143468
820.635	0.0143054
820.713	0.0143294
820.791	0.0143848
820.869	0.0144220
820.947	0.0143979
821.025	0.0144894
821.103	0.0145810
821.182	0.0146296
821.260	0.0144407
821.338	0.0145429
821.416	0.0144259
821.494	0.0144238
821.572	0.0144437
821.650	0.0143487
821.728	0.0144732
821.807	0.0144600
821.885	0.0144096
821.963	0.0144838
822.041	0.0144416
822.119	0.0144613
822.197	0.0143524
822.275	0.0144904
822.353	0.0145477
822.432	0.0145174
822.510	0.0146488
822.588	0.0146179
822.666	0.0146924
822.744	0.0147981
822.822	0.0148043
822.900	0.0147689
822.978	0.0147372
823.057	0.0148361
823.135	0.0148952
823.213	0.0148345
823.291	0.0148472
823.369	0.0146458
823.447	0.0145448
823.525	0.0145440
823.603	0.0144501
823.682	0.0144064
823.760	0.0144223
823.838	0.0144356
823.916	0.0141644
823.994	0.0143070
824.072	0.0141806
824.150	0.0142477
824.228	0.0142095
824.307	0.0141351
824.385	0.0139510
824.463	0.0140394
824.541	0.0140180
824.619	0.0139048
824.697	0.0138002
824.775	0.0139376
824.853	0.0140252
824.932	0.0138725
825.010	0.0138992
825.088	0.0139792
825.166	0.0138617
825.244	0.0139722
825.322	0.0140208
825.400	0.0139625
825.478	0.0140289
825.557	0.0141152
825.635	0.0141777
825.713	0.0140646
825.791	0.0142448
825.869	0.0140282
825.947	0.0140337
826.025	0.0141496
826.103	0.0140701
826.182	0.0141698
826.260	0.0142377
826.338	0.0141620
826.416	0.0141074
826.494	0.0142014
826.572	0.0141588
826.650	0.0141827
826.728	0.0142402
826.807	0.0143086
826.885	0.0143333
826.963	0.0143382
827.041	0.0142240
827.119	0.0143716
827.197	0.0145130
827.275	0.0142063
827.353	0.0144287
827.432	0.0144785
827.510	0.0143834
827.588	0.0142703
827.666	0.0143050
827.744	0.0143696
827.822	0.0143729
827.900	0.0145066
827.978	0.0144112
828.057	0.0143486
828.135	0.0144399
828.213	0.0144995
828.291	0.0145755
828.369	0.0144935
828.447	0.0144917
828.525	0.0144152
828.603	0.0144876
828.682	0.0144472
828.760	0.0146453
828.838	0.0146265
828.916	0.0144908
828.994	0.0145048
829.072	0.0147074
829.150	0.0146619
829.228	0.0146496
829.307	0.0148576
829.385	0.0146695
829.463	0.0148293
829.541	0.0148339
829.619	0.0147727
829.697	0.0148093
829.775	0.0147874
829.853	0.0149142
829.932	0.0148027
830.010	0.0148992
830.088	0.0148147
830.166	0.0148341
830.244	0.0147235
830.322	0.0146551
830.400	0.0146092
830.478	0.0147712
830.557	0.0146243
830.635	0.0145353
830.713	0.0144484
830.791	0.0142491
830.869	0.0141238
830.947	0.0139994
831.025	0.0138474
831.103	0.0138280
831.182	0.0136745
831.260	0.0134664
831.338	0.0136539
831.416	0.0135078
831.494	0.0134972
831.572	0.0133753
831.650	0.0133503
831.728	0.0134424
831.807	0.0134986
831.885	0.0133546
831.963	0.0133080
832.041	0.0134483
832.119	0.0136019
832.197	0.0135629
832.275	0.0135600
832.353	0.0137560
832.432	0.0137861
832.510	0.0138972
832.588	0.0140497
832.666	0.0142237
832.744	0.0143075
832.822	0.0142989
832.900	0.0143066
832.978	0.0144879
833.057	0.0146056
833.135	0.0144978
833.213	0.0145644
833.291	0.0145308
833.369	0.0145743
833.447	0.0143656
833.525	0.0144739
833.603	0.0145121
833.682	0.0143764
833.760	0.0144509
833.838	0.0144756
833.916	0.0143658
833.994	0.0144160
834.072	0.0142427
834.150	0.0143610
834.228	0.0142807
834.307	0.0143693
834.385	0.0143301
834.463	0.0145035
834.541	0.0144680
834.619	0.0145270
834.697	0.0143678
834.775	0.0146056
834.853	0.0146736
834.932	0.0146014
835.010	0.0145573
835.088	0.0146392
835.166	0.0146513
835.244	0.0146696
835.322	0.0147301
835.400	0.0146885
835.478	0.0147128
835.557	0.0147886
835.635	0.0146816
835.713	0.0146385
835.791	0.0146828
835.869	0.0148335
835.947	0.0148004
836.025	0.0146615
836.103	0.0148311
836.182	0.0148247
836.260	0.0147150
836.338	0.0147675
836.416	0.0147301
836.494	0.0146778
836.572	0.0146261
836.650	0.0145496
836.728	0.0143980
836.807	0.0143034
836.885	0.0143666
836.963	0.0142044
837.041	0.0141732
837.119	0.0140044
837.197	0.0140916
837.275	0.0139452
837.353	0.0137845
837.432	0.0138972
837.510	0.0137501
837.588	0.0136861
837.666	0.0136032
837.744	0.0136481
837.822	0.0135603
837.900	0.0134615
837.978	0.0135397
838.057	0.0136512
838.135	0.0135794
838.213	0.0135632
838.291	0.0136029
838.369	0.0136317
838.447	0.0135358
838.525	0.0136621
838.603	0.0136956
838.682	0.0135908
838.760	0.0136655
838.838	0.0135925
838.916	0.0136919
838.994	0.0137444
839.072	0.0138670
839.150	0.0138364
839.228	0.0138345
839.307	0.0140496
839.385	0.0141713
839.463	0.0142005
839.541	0.0142849
839.619	0.0144260
839.697	0.0145232
839.775	0.0146459
839.853	0.0148376
839.932	0.0148045
840.010	0.0148654
840.088	0.0149718
840.166	0.0150259
840.244	0.0151228
840.322	0.0152269
840.400	0.0150497
840.478	0.0149637
840.557	0.0149236
840.635	0.0150002
840.713	0.0150657
840.791	0.0148402
840.869	0.0146909
840.947	0.0147596
841.025	0.0149120
841.103	0.0149420
841.182	0.0145631
841.260	0.0144640
841.338	0.0145609
841.416	0.0146745
841.494	0.0146846
841.572	0.0145574
841.650	0.0144409
841.728	0.0143513
841.807	0.0143671
841.885	0.0143940
841.963	0.0145015
842.041	0.0143159
842.119	0.0142498
842.197	0.0142719
842.275	0.0142227
842.353	0.0143204
842.432	0.0142305
842.510	0.0141582
842.588	0.0141675
842.666	0.0140176
842.744	0.0140740
842.822	0.0141081
842.900	0.0140916
842.978	0.0141344
843.057	0.0140872
843.135	0.0141830
843.213	0.0140182
843.291	0.0140902
843.369	0.0140518
843.447	0.0140148
843.525	0.0140359
843.603	0.0140759
843.682	0.0140923
843.760	0.0140591
843.838	0.0141338
843.916	0.0139331
843.994	0.0139315
844.072	0.0141481
844.150	0.0140581
844.228	0.0140591
844.307	0.0140427
844.385	0.0141000
844.463	0.0141086
844.541	0.0140981
844.619	0.0140474
844.697	0.0141634
844.775	0.0141069
844.853	0.0141630
844.932	0.0140839
845.010	0.0140516
845.088	0.0140562
845.166	0.0139756
845.244	0.0139186
845.322	0.0139382
845.400	0.0140417
845.478	0.0139999
845.557	0.0139508
845.635	0.0138869
845.713	0.0141048
845.791	0.0142190
845.869	0.0140201
845.947	0.0142473
846.025	0.0142727
846.103	0.0144087
846.182	0.0144888
846.260	0.0145747
846.338	0.0145684
846.416	0.0147054
846.494	0.0148236
846.572	0.0147512
846.650	0.0147766
846.728	0.0149205
846.807	0.0148434
846.885	0.0150208
846.963	0.0149824
847.041	0.0150035
847.119	0.0149950
847.197	0.0149678
847.275	0.0150124
847.353	0.0148766
847.432	0.0150104
847.510	0.0149232
847.588	0.0149295
847.666	0.0149939
847.744	0.0148218
847.822	0.0146549
847.900	0.0147564
847.978	0.0147328
848.057	0.0147757
848.135	0.0146197
848.213	0.0146785
848.291	0.0145341
848.369	0.0144482
848.447	0.0145016
848.525	0.0145354
848.603	0.0142778
848.682	0.0143851
848.760	0.0143388
848.838	0.0142237
848.916	0.0141235
848.994	0.0141593
849.072	0.0140300
849.150	0.0141866
849.228	0.0139963
849.307	0.0140650
849.385	0.0139732
849.463	0.0138763
849.541	0.0139109
849.619	0.0138140
849.697	0.0137811
849.775	0.0138490
849.853	0.0137947
849.932	0.0136897
850.010	0.0136639
850.088	0.0137253
850.166	0.0137657
850.244	0.0139249
850.322	0.0139524
850.400	0.0139117
850.478	0.0139321
850.557	0.0138707
850.635	0.0140826
850.713	0.0139532
850.791	0.0139619
850.869	0.0141214
850.947	0.0141270
851.025	0.0141454
851.103	0.0142711
851.182	0.0143423
851.260	0.0142493
851.338	0.0141782
851.416	0.0141736
851.494	0.0141384
851.572	0.0141888
851.650	0.0143886
851.728	0.0141351
851.807	0.0142560
851.885	0.0143346
851.963	0.0142274
852.041	0.0142248
852.119	0.0140303
852.197	0.0141666
852.275	0.0143031
852.353	0.0142711
852.432	0.0141457
852.510	0.0140393
852.588	0.0141374
852.666	0.0141830
852.744	0.0141654
852.822	0.0143137
852.900	0.0142332
852.978	0.0141740
853.057	0.0142819
853.135	0.0145264
853.213	0.0144305
853.291	0.0144555
853.369	0.0143885
853.447	0.0144294
853.525	0.0144604
853.603	0.0144627
853.682	0.0146426
853.760	0.0145060
853.838	0.0146234
853.916	0.0146000
853.994	0.0144028
854.072	0.0144456
854.150	0.0145216
854.228	0.0145921
854.307	0.0145015
854.385	0.0144807
854.463	0.0146228
854.541	0.0144001
854.619	0.0144257
854.697	0.0144238
854.775	0.0143707
854.853	0.0142945
854.932	0.0143027
855.010	0.0142860
855.088	0.0142765
855.166	0.0141103
855.244	0.0140560
855.322	0.0140282
855.400	0.0139850
855.478	0.0139582
855.557	0.0139897
855.635	0.0138095
855.713	0.0137370
855.791	0.0139224
855.869	0.0138490
855.947	0.0138431
856.025	0.0138402
856.103	0.0138232
856.182	0.0139111
856.260	0.0139271
856.338	0.0140218
856.416	0.0140245
856.494	0.0142213
856.572	0.0141718
856.650	0.0141254
856.728	0.0141789
856.807	0.0141692
856.885	0.0142387
856.963	0.0142293
857.041	0.0143587
857.119	0.0143665
857.197	0.0144104
857.275	0.0144525
857.353	0.0145164
857.432	0.0144859
857.510	0.0144526
857.588	0.0142769
857.666	0.0142751
857.744	0.0143769
857.822	0.0143561
857.900	0.0142899
857.978	0.0143194
858.057	0.0142947
858.135	0.0143377
858.213	0.0142863
858.291	0.0141869
858.369	0.0140277
858.447	0.0143521
858.525	0.0141911
858.603	0.0141683
858.682	0.0142107
858.760	0.0143294
858.838	0.0142997
858.916	0.0142689
858.994	0.0143581
859.072	0.0143826
859.150	0.0145441
859.228	0.0144356
859.307	0.0143290
859.385	0.0144927
859.463	0.0145327
859.541	0.0145200
859.619	0.0144781
859.697	0.0145775
859.775	0.0144376
859.853	0.0146688
859.932	0.0146134
860.010	0.0145457
860.088	0.0145750
860.166	0.0147301
860.244	0.0147118
860.322	0.0147704
860.400	0.0146083
860.478	0.0146202
860.557	0.0147224
860.635	0.0146824
860.713	0.0144321
860.791	0.0144500
860.869	0.0145782
860.947	0.0144403
861.025	0.0143389
861.103	0.0142702
861.182	0.0142455
861.260	0.0141821
861.338	0.0141839
861.416	0.0141585
861.494	0.0141831
861.572	0.0142514
861.650	0.0142480
861.728	0.0141062
861.807	0.0142413
861.885	0.0142191
861.963	0.0141628
862.041	0.0141452
862.119	0.0142003
862.197	0.0140940
862.275	0.0140887
862.353	0.0140672
862.432	0.0141000
862.510	0.0139980
862.588	0.0141874
862.666	0.0140886
862.744	0.0140888
862.822	0.0141116
862.900	0.0141850
862.978	0.0142216
863.057	0.0141210
863.135	0.0141330
863.213	0.0141045
863.291	0.0140992
863.369	0.0141409
863.447	0.0143172
863.525	0.0142850
863.603	0.0141404
863.682	0.0142685
863.760	0.0142568
863.838	0.0143000
863.916	0.0143657
863.994	0.0144949
864.072	0.0144001
864.150	0.0142960
864.228	0.0143598
864.307	0.0142201
864.385	0.0144547
864.463	0.0145203
864.541	0.0145106
864.619	0.0143679
864.697	0.0145205
864.775	0.0144302
864.853	0.0144123
864.932	0.0145045
865.010	0.0143922
865.088	0.0142692
865.166	0.0143092
865.244	0.0144344
865.322	0.0144304
865.400	0.0143027
865.478	0.0143861
865.557	0.0142531
865.635	0.0141908
865.713	0.0141924
865.791	0.0141156
865.869	0.0141409
865.947	0.0142083
866.025	0.0142074
866.103	0.0141573
866.182	0.0143063
866.260	0.0141258
866.338	0.0141547
866.416	0.0142992
866.494	0.0143067
866.572	0.0144178
866.650	0.0144104
866.728	0.0142327
866.807	0.0142770
866.885	0.0141894
866.963	0.0142722
867.041	0.0144163
867.119	0.0142845
867.197	0.0142918
867.275	0.0143403
867.353	0.0144421
867.432	0.0145009
867.510	0.0143987
867.588	0.0144207
867.666	0.0143761
867.744	0.0143661
867.822	0.0145054
867.900	0.0145399
867.978	0.0144137
868.057	0.0144094
868.135	0.0145832
868.213	0.0146668
868.291	0.0146120
868.369	0.0144596
868.447	0.0143545
868.525	0.0144794
868.603	0.0145499
868.682	0.0143588
868.760	0.0144192
868.838	0.0144360
868.916	0.0144450
868.994	0.0143980
869.072	0.0145235
869.150	0.0143442
869.228	0.0141811
869.307	0.0143319
869.385	0.0143417
869.463	0.0144691
869.541	0.0141949
869.619	0.0142511
869.697	0.0142017
869.775	0.0141992
869.853	0.0141835
869.932	0.0141528
870.010	0.0141490
870.088	0.0140746
870.166	0.0140035
870.244	0.0141103
870.322	0.0139641
870.400	0.0141865
870.478	0.0141003
870.557	0.0141904
870.635	0.0142172
870.713	0.0143227
870.791	0.0141122
870.869	0.0141933
870.947	0.0143374
871.025	0.0143253
871.103	0.0141888
871.182	0.0141605
871.260	0.0141496
871.338	0.0141355
871.416	0.0142079
871.494	0.0142396
871.572	0.0141886
871.650	0.0142438
871.728	0.0143478
871.807	0.0143532
871.885	0.0142722
871.963	0.0143639
872.041	0.0145002
872.119	0.0145444
872.197	0.0144755
872.275	0.0144044
872.353	0.0144337
872.432	0.0145830
872.510	0.0143405
872.588	0.0143375
872.666	0.0142607
872.744	0.0142986
872.822	0.0142289
872.900	0.0141390
872.978	0.0141391
873.057	0.0142889
873.135	0.0141263
873.213	0.0140627
873.291	0.0141967
873.369	0.0141940
873.447	0.0141656
873.525	0.0140902
873.603	0.0139867
873.682	0.0140499
873.760	0.0139131
873.838	0.0139613
873.916	0.0139396
873.994	0.0139290
874.072	0.0140385
874.150	0.0139491
874.228	0.0139794
874.307	0.0142334
874.385	0.0141016
874.463	0.0141879
874.541	0.0142686
874.619	0.0145233
874.697	0.0144666
874.775	0.0145600
874.853	0.0146534
874.932	0.0147324
875.010	0.0147177
875.088	0.0147655
875.166	0.0146569
875.244	0.0148644
875.322	0.0149964
875.400	0.0147659
875.478	0.0147343
875.557	0.0146639
875.635	0.0146777
875.713	0.0146355
875.791	0.0145775
875.869	0.0145493
875.947	0.0144758
876.025	0.0144086
876.103	0.0142650
876.182	0.0142542
876.260	0.0141966
876.338	0.0138992
876.416	0.0140648
876.494	0.0141284
876.572	0.0138694
876.650	0.0139069
876.728	0.0138454
876.807	0.0139724
876.885	0.0138354
876.963	0.0137975
877.041	0.0138692
877.119	0.0138821
877.197	0.0140310
877.275	0.0139038
877.353	0.0137247
877.432	0.0139310
877.510	0.0139400
877.588	0.0140943
877.666	0.0140829
877.744	0.0139741
877.822	0.0140700
877.900	0.0140753
877.978	0.0141065
878.057	0.0142881
878.135	0.0142044
878.213	0.0142381
878.291	0.0142859
878.369	0.0143275
878.447	0.0142467
878.525	0.0143633
878.603	0.0143745
878.682	0.0143543
878.760	0.0142641
878.838	0.0143050
878.916	0.0143438
878.994	0.0141953
879.072	0.0141028
879.150	0.0142522
879.228	0.0142560
879.307	0.0141611
879.385	0.0141900
879.463	0.0140984
879.541	0.0140393
879.619	0.0140114
879.697	0.0140416
879.775	0.0140742
879.853	0.0141994
879.932	0.0140901
880.010	0.0142494
880.088	0.0142809
880.166	0.0143545
880.244	0.0143650
880.322	0.0144830
880.400	0.0145104
880.478	0.0144370
880.557	0.0145609
880.635	0.0144783
880.713	0.0146228
880.791	0.0145301
880.869	0.0145078
880.947	0.0144655
881.025	0.0144547
881.103	0.0145865
881.182	0.0145575
881.260	0.0143734
881.338	0.0143425
881.416	0.0144109
881.494	0.0143946
881.572	0.0143513
881.650	0.0144760
881.728	0.0144005
881.807	0.0142544
881.885	0.0141528
881.963	0.0142146
882.041	0.0142501
882.119	0.0143887
882.197	0.0142638
882.275	0.0141570
882.353	0.0143118
882.432	0.0143433
882.510	0.0143911
882.588	0.0144218
882.666	0.0144100
882.744	0.0145360
882.822	0.0145446
882.900	0.0145223
882.978	0.0143687
883.057	0.0145815
883.135	0.0144872
883.213	0.0145042
883.291	0.0146338
883.369	0.0146181
883.447	0.0145644
883.525	0.0146691
883.603	0.0145637
883.682	0.0145778
883.760	0.0147056
883.838	0.0145731
883.916	0.0145488
883.994	0.0145402
884.072	0.0145119
884.150	0.0144300
884.228	0.0143633
884.307	0.0143468
884.385	0.0142030
884.463	0.0142572
884.541	0.0142111
884.619	0.0140517
884.697	0.0140257
884.775	0.0140417
884.853	0.0140680
884.932	0.0140221
885.010	0.0140169
885.088	0.0140263
885.166	0.0140086
885.244	0.0140196
885.322	0.0139719
885.400	0.0140058
885.478	0.0139567
885.557	0.0138898
885.635	0.0138681
885.713	0.0137521
885.791	0.0139169
885.869	0.0137853
885.947	0.0138719
886.025	0.0140566
886.103	0.0139485
886.182	0.0140092
886.260	0.0139179
886.338	0.0140261
886.416	0.0141776
886.494	0.0142590
886.572	0.0142080
886.650	0.0141998
886.728	0.0142958
886.807	0.0142809
886.885	0.0142647
886.963	0.0143680
887.041	0.0143064
887.119	0.0142742
887.197	0.0144128
887.275	0.0143607
887.353	0.0144860
887.432	0.0144020
887.510	0.0145736
887.588	0.0146735
887.666	0.0146571
887.744	0.0145887
887.822	0.0146793
887.900	0.0147819
887.978	0.0147643
888.057	0.0146935
888.135	0.0147687
888.213	0.0147346
888.291	0.0147168
888.369	0.0147603
888.447	0.0145340
888.525	0.0146334
888.603	0.0145917
888.682	0.0146133
888.760	0.0144592
888.838	0.0144552
888.916	0.0144962
888.994	0.0144760
889.072	0.0144015
889.150	0.0143478
889.228	0.0144338
889.307	0.0143314
889.385	0.0142198
889.463	0.0143891
889.541	0.0142603
889.619	0.0143511
889.697	0.0142797
889.775	0.0143006
889.853	0.0142760
889.932	0.0142576
890.010	0.0141292
890.088	0.0142278
890.166	0.0143011
890.244	0.0142744
890.322	0.0141566
890.400	0.0141966
890.478	0.0142602
890.557	0.0141804
890.635	0.0141335
890.713	0.0141653
890.791	0.0140771
890.869	0.0142540
890.947	0.0142323
891.025	0.0142302
891.103	0.0142725
891.182	0.0143990
891.260	0.0143298
891.338	0.0143932
891.416	0.0143471
891.494	0.0142299
891.572	0.0143637
891.650	0.0143529
891.728	0.0142579
891.807	0.0142934
891.885	0.0141624
891.963	0.0143221
892.041	0.0141254
892.119	0.0141789
892.197	0.0141461
892.275	0.0140592
892.353	0.0141191
892.432	0.0141695
892.510	0.0141158
892.588	0.0142079
892.666	0.0142529
892.744	0.0140616
892.822	0.0140232
892.900	0.0141750
892.978	0.0141163
893.057	0.0140921
893.135	0.0140871
893.213	0.0140601
893.291	0.0140172
893.369	0.0141035
893.447	0.0139935
893.525	0.0140274
893.603	0.0140403
893.682	0.0140053
893.760	0.0142618
893.838	0.0142497
893.916	0.0142081
893.994	0.0142176
894.072	0.0144291
894.150	0.0143927
894.228	0.0143606
894.307	0.0144927
894.385	0.0144733
894.463	0.0144155
894.541	0.0145434
894.619	0.0145379
894.697	0.0145877
894.775	0.0146098
894.853	0.0145155
894.932	0.0146438
895.010	0.0143963
895.088	0.0143489
895.166	0.0144398
895.244	0.0145261
895.322	0.0144428
895.400	0.0145007
895.478	0.0144368
895.557	0.0143336
895.635	0.0144126
895.713	0.0141515
895.791	0.0142995
895.869	0.0142079
895.947	0.0142604
896.025	0.0141709
896.103	0.0142018
896.182	0.0142606
896.260	0.0141689
896.338	0.0141074
896.416	0.0141914
896.494	0.0142471
896.572	0.0141048
896.650	0.0141360
896.728	0.0140958
896.807	0.0141356
896.885	0.0143370
896.963	0.0142050
897.041	0.0141222
897.119	0.0141395
897.197	0.0141766
897.275	0.0141121
897.353	0.0141685
897.432	0.0141268
897.510	0.0141398
897.588	0.0143733
897.666	0.0142085
897.744	0.0143430
897.822	0.0142572
897.900	0.0142451
897.978	0.0142117
898.057	0.0142783
898.135	0.0140025
898.213	0.0141475
898.291	0.0140519
898.369	0.0141383
898.447	0.0139602
898.525	0.0139755
898.603	0.0140718
898.682	0.0140160
898.760	0.0138754
898.838	0.0139295
898.916	0.0139085
898.994	0.0139515
899.072	0.0142199
899.150	0.0141084
899.228	0.0141354
899.307	0.0140786
899.385	0.0141605
899.463	0.0141965
899.541	0.0142377
899.619	0.0141701
899.697	0.0140806
899.775	0.0142244
899.853	0.0141760
899.932	0.0141759
900.010	0.0142631
900.088	0.0141803
900.166	0.0142584
900.244	0.0141611
900.322	0.0141241
900.400	0.0142882
900.478	0.0142817
900.557	0.0141875
900.635	0.0142412
900.713	0.0143303
900.791	0.0142680
900.869	0.0143392
900.947	0.0142619
901.025	0.0143366
901.103	0.0143400
901.182	0.0142619
901.260	0.0144328
901.338	0.0143917
901.416	0.0143415
901.494	0.0143784
901.572	0.0142510
901.650	0.0144543
901.728	0.0143311
901.807	0.0143807
901.885	0.0144915
901.963	0.0143378
902.041	0.0142916
902.119	0.0144730
902.197	0.0144936
902.275	0.0145176
902.353	0.0143943
902.432	0.0143241
902.510	0.0143165
902.588	0.0143410
902.666	0.0144456
902.744	0.0143875
902.822	0.0144550
902.900	0.0144278
902.978	0.0144592
903.057	0.0144306
903.135	0.0143538
903.213	0.0143993
903.291	0.0143581
903.369	0.0144701
903.447	0.0143272
903.525	0.0143610
903.603	0.0144067
903.682	0.0142731
903.760	0.0142302
903.838	0.0142779
903.916	0.0142988
903.994	0.0143087
904.072	0.0142418
904.150	0.0142024
904.228	0.0142126
904.307	0.0143395
904.385	0.0144273
904.463	0.0144144
904.541	0.0143726
904.619	0.0143200
904.697	0.0143502
904.775	0.0143673
904.853	0.0143890
904.932	0.0143257
905.010	0.0141993
905.088	0.0143771
905.166	0.0143913
905.244	0.0143888
905.322	0.0142434
905.400	0.0142909
905.478	0.0144215
905.557	0.0144781
905.635	0.0143687
905.713	0.0145530
905.791	0.0144737
905.869	0.0146165
905.947	0.0145239
906.025	0.0145309
906.103	0.0144187
906.182	0.0145718
906.260	0.0146326
906.338	0.0146077
906.416	0.0145027
906.494	0.0143380
906.572	0.0143434
906.650	0.0143428
906.728	0.0143548
906.807	0.0143607
906.885	0.0144452
906.963	0.0142915
907.041	0.0142255
907.119	0.0141392
907.197	0.0144238
907.275	0.0143650
907.353	0.0143991
907.432	0.0142857
907.510	0.0142019
907.588	0.0143050
907.666	0.0142255
907.744	0.0142976
907.822	0.0141393
907.900	0.0142244
907.978	0.0141941
908.057	0.0141538
908.135	0.0142222
908.213	0.0141495
908.291	0.0143716
908.369	0.0143954
908.447	0.0144769
908.525	0.0144769
908.603	0.0144925
908.682	0.0144223
908.760	0.0145958
908.838	0.0145069
908.916	0.0144411
908.994	0.0145451
909.072	0.0145188
909.150	0.0143972
909.228	0.0144479
909.307	0.0146897
909.385	0.0145160
909.463	0.0145584
909.541	0.0145142
909.619	0.0145023
909.697	0.0144312
909.775	0.0143976
909.853	0.0144570
909.932	0.0144678
910.010	0.0143899
910.088	0.0142730
910.166	0.0142095
910.244	0.0141740
910.322	0.0142846
910.400	0.0141365
910.478	0.0141646
910.557	0.0141385
910.635	0.0141571
910.713	0.0142154
910.791	0.0140574
910.869	0.0141338
910.947	0.0142600
911.025	0.0143346
911.103	0.0144749
911.182	0.0144292
911.260	0.0143971
911.338	0.0143298
911.416	0.0144547
911.494	0.0143600
911.572	0.0143472
911.650	0.0144679
911.728	0.0143023
911.807	0.0144784
911.885	0.0143970
911.963	0.0143903
912.041	0.0143552
912.119	0.0143327
912.197	0.0142834
912.275	0.0141570
912.353	0.0143116
912.432	0.0142594
912.510	0.0142175
912.588	0.0142085
912.666	0.0142240
912.744	0.0141095
912.822	0.0140763
912.900	0.0141714
912.978	0.0139818
913.057	0.0140244
913.135	0.0139957
913.213	0.0141078
913.291	0.0139539
913.369	0.0139470
913.447	0.0140105
913.525	0.0140232
913.603	0.0139880
913.682	0.0140361
913.760	0.0140403
913.838	0.0138740
913.916	0.0140460
913.994	0.0140085
914.072	0.0140235
914.150	0.0141197
914.228	0.0139819
914.307	0.0140432
914.385	0.0142098
914.463	0.0142635
914.541	0.0142767
914.619	0.0144147
914.697	0.0143958
914.775	0.0143536
914.853	0.0143629
914.932	0.0144833
915.010	0.0144100
915.088	0.0145224
915.166	0.0144820
915.244	0.0145011
915.322	0.0145876
915.400	0.0145860
915.478	0.0146625
915.557	0.0144314
915.635	0.0145065
915.713	0.0145114
915.791	0.0144504
915.869	0.0145028
915.947	0.0144908
916.025	0.0143365
916.103	0.0142442
916.182	0.0143722
916.260	0.0143822
916.338	0.0142200
916.416	0.0140999
916.494	0.0141899
916.572	0.0142935
916.650	0.0140488
916.728	0.0141544
916.807	0.0141617
916.885	0.0139349
916.963	0.0140368
917.041	0.0141716
917.119	0.0142427
917.197	0.0142085
917.275	0.0142275
917.353	0.0140624
917.432	0.0140106
917.510	0.0142258
917.588	0.0141775
917.666	0.0141711
917.744	0.0142657
917.822	0.0141726
917.900	0.0141882
917.978	0.0140698
918.057	0.0141076
918.135	0.0142869
918.213	0.0142768
918.291	0.0142727
918.369	0.0141006
918.447	0.0143101
918.525	0.0142690
918.603	0.0142132
918.682	0.0142651
918.760	0.0142722
918.838	0.0143058
918.916	0.0143025
918.994	0.0143491
919.072	0.0142397
919.150	0.0143352
919.228	0.0141624
919.307	0.0142468
919.385	0.0142456
919.463	0.0142115
919.541	0.0142274
919.619	0.0142395
919.697	0.0139645
919.775	0.0140733
919.853	0.0140085
919.932	0.0139863
920.010	0.0140348
920.088	0.0140822
920.166	0.0141146
920.244	0.0139596
920.322	0.0140530
920.400	0.0141575
920.478	0.0141434
920.557	0.0142574
920.635	0.0142378
920.713	0.0141555
920.791	0.0145216
920.869	0.0144270
920.947	0.0144136
921.025	0.0145130
921.103	0.0143667
921.182	0.0144778
921.260	0.0144359
921.338	0.0145964
921.416	0.0145882
921.494	0.0145538
921.572	0.0145927
921.650	0.0145694
921.728	0.0145885
921.807	0.0144079
921.885	0.0145817
921.963	0.0145251
922.041	0.0144865
922.119	0.0143381
922.197	0.0143988
922.275	0.0142524
922.353	0.0142171
922.432	0.0142230
922.510	0.0141477
922.588	0.0141335
922.666	0.0140964
922.744	0.0141200
922.822	0.0139636
922.900	0.0140545
922.978	0.0139680
923.057	0.0141263
923.135	0.0141046
923.213	0.0142220
923.291	0.0140784
923.369	0.0140847
923.447	0.0142104
923.525	0.0142593
923.603	0.0141920
923.682	0.0141190
923.760	0.0142863
923.838	0.0141376
923.916	0.0141912
923.994	0.0140759
924.072	0.0143150
924.150	0.0142251
924.228	0.0141151
924.307	0.0141010
924.385	0.0142148
924.463	0.0143154
924.541	0.0143526
924.619	0.0143778
924.697	0.0144252
924.775	0.0143553
924.853	0.0144968
924.932	0.0145029
925.010	0.0143353
925.088	0.0144339
925.166	0.0144880
925.244	0.0144402
925.322	0.0144234
925.400	0.0144576
925.478	0.0143694
925.557	0.0145146
925.635	0.0145830
925.713	0.0144116
925.791	0.0144302
925.869	0.0144291
925.947	0.0143852
926.025	0.0143040
926.103	0.0145674
926.182	0.0143557
926.260	0.0142810
926.338	0.0142984
926.416	0.0143629
926.494	0.0144036
926.572	0.0144471
926.650	0.0145383
926.728	0.0144340
926.807	0.0144605
926.885	0.0143768
926.963	0.0143859
927.041	0.0144154
927.119	0.0145312
927.197	0.0144433
927.275	0.0142366
927.353	0.0146024
927.432	0.0145074
927.510	0.0143841
927.588	0.0145281
927.666	0.0144214
927.744	0.0144429
927.822	0.0145624
927.900	0.0144288
927.978	0.0145319
928.057	0.0143723
928.135	0.0143246
928.213	0.0143338
928.291	0.0143546
928.369	0.0143015
928.447	0.0142474
928.525	0.0142370
928.603	0.0141010
928.682	0.0140874
928.760	0.0140413
928.838	0.0139785
928.916	0.0138178
928.994	0.0140240
929.072	0.0139535
929.150	0.0137881
929.228	0.0138616
929.307	0.0138424
929.385	0.0138042
929.463	0.0138444
929.541	0.0139841
929.619	0.0138366
929.697	0.0139610
929.775	0.0139697
929.853	0.0140404
929.932	0.0142094
930.010	0.0142397
930.088	0.0142841
930.166	0.0142690
930.244	0.0143878
930.322	0.0143557
930.400	0.0143710
930.478	0.0144994
930.557	0.0144591
930.635	0.0143461
930.713	0.0143884
930.791	0.0144815
930.869	0.0144646
930.947	0.0145857
931.025	0.0145977
931.103	0.0144733
931.182	0.0145422
931.260	0.0143706
931.338	0.0144360
931.416	0.0144526
931.494	0.0144262
931.572	0.0143805
931.650	0.0143678
931.728	0.0146014
931.807	0.0144095
931.885	0.0144035
931.963	0.0143574
932.041	0.0143803
932.119	0.0144337
932.197	0.0144098
932.275	0.0142583
932.353	0.0142339
932.432	0.0142059
932.510	0.0142257
932.588	0.0142554
932.666	0.0143593
932.744	0.0141389
932.822	0.0140691
932.900	0.0143140
932.978	0.0144658
933.057	0.0143353
933.135	0.0143331
933.213	0.0141943
933.291	0.0143024
933.369	0.0145570
933.447	0.0144388
933.525	0.0145085
933.603	0.0144489
933.682	0.0145637
933.760	0.0145852
933.838	0.0145218
933.916	0.0144572
933.994	0.0143769
934.072	0.0145103
934.150	0.0145030
934.228	0.0145068
934.307	0.0145000
934.385	0.0143806
934.463	0.0144204
934.541	0.0144675
934.619	0.0143351
934.697	0.0142123
934.775	0.0142527
934.853	0.0142268
934.932	0.0140820
935.010	0.0141437
935.088	0.0140417
935.166	0.0139629
935.244	0.0140564
935.322	0.0138842
935.400	0.0139071
935.478	0.0138918
935.557	0.0140453
935.635	0.0140701
935.713	0.0140543
935.791	0.0141825
935.869	0.0141802
935.947	0.0139239
936.025	0.0141203
936.103	0.0142843
936.182	0.0144096
936.260	0.0142731
936.338	0.0143397
936.416	0.0144414
936.494	0.0144043
936.572	0.0143670
936.650	0.0144257
936.728	0.0145298
936.807	0.0145734
936.885	0.0146666
936.963	0.0146255
937.041	0.0146352
937.119	0.0145690
937.197	0.0146400
937.275	0.0146784
937.353	0.0144875
937.432	0.0144441
937.510	0.0146258
937.588	0.0146604
937.666	0.0145818
937.744	0.0144678
937.822	0.0143637
937.900	0.0143970
937.978	0.0144674
938.057	0.0145483
938.135	0.0145277
938.213	0.0143315
938.291	0.0144724
938.369	0.0144951
938.447	0.0144448
938.525	0.0142824
938.603	0.0143375
938.682	0.0142474
938.760	0.0142139
938.838	0.0142507
938.916	0.0142924
938.994	0.0142725
939.072	0.0142241
939.150	0.0141763
939.228	0.0142571
939.307	0.0143332
939.385	0.0142493
939.463	0.0143082
939.541	0.0142634
939.619	0.0142240
939.697	0.0143235
939.775	0.0143834
939.853	0.0144337
939.932	0.0145160
940.010	0.0144713
940.088	0.0144197
940.166	0.0145661
940.244	0.0146285
940.322	0.0145639
940.400	0.0144590
940.478	0.0143828
940.557	0.0144798
940.635	0.0144933
940.713	0.0144133
940.791	0.0143793
940.869	0.0143185
940.947	0.0143279
941.025	0.0143276
941.103	0.0143156
941.182	0.0142775
941.260	0.0142212
941.338	0.0141599
941.416	0.0142056
941.494	0.0141006
941.572	0.0141906
941.650	0.0141797
941.728	0.0142834
941.807	0.0141644
941.885	0.0140269
941.963	0.0142831
942.041	0.0141708
942.119	0.0141010
942.197	0.0141094
942.275	0.0141386
942.353	0.0142229
942.432	0.0141675
942.510	0.0142165
942.588	0.0142552
942.666	0.0141037
942.744	0.0141344
942.822	0.0141862
942.900	0.0142386
942.978	0.0141237
943.057	0.0141696
943.135	0.0143031
943.213	0.0142139
943.291	0.0141709
943.369	0.0142823
943.447	0.0142022
943.525	0.0142126
943.603	0.0143723
943.682	0.0143871
943.760	0.0143341
943.838	0.0144281
943.916	0.0144328
943.994	0.0144709
944.072	0.0144161
944.150	0.0143983
944.228	0.0144199
944.307	0.0144067
944.385	0.0143407
944.463	0.0144260
944.541	0.0143951
944.619	0.0144515
944.697	0.0142921
944.775	0.0142957
944.853	0.0142915
944.932	0.0141965
945.010	0.0142181
945.088	0.0141249
945.166	0.0141725
945.244	0.0141241
945.322	0.0142478
945.400	0.0143099
945.478	0.0140907
945.557	0.0141132
945.635	0.0141379
945.713	0.0142470
945.791	0.0142187
945.869	0.0141328
945.947	0.0140475
946.025	0.0141564
946.103	0.0141515
946.182	0.0141852
946.260	0.0143238
946.338	0.0141915
946.416	0.0142207
946.494	0.0142523
946.572	0.0142917
946.650	0.0143618
946.728	0.0142883
946.807	0.0142610
946.885	0.0144056
946.963	0.0143740
947.041	0.0144561
947.119	0.0144810
947.197	0.0146323
947.275	0.0144933
947.353	0.0143578
947.432	0.0143686
947.510	0.0143878
947.588	0.0145101
947.666	0.0144754
947.744	0.0145294
947.822	0.0144656
947.900	0.0143787
947.978	0.0142817
948.057	0.0144187
948.135	0.0144630
948.213	0.0143163
948.291	0.0143290
948.369	0.0142323
948.447	0.0142007
948.525	0.0142791
948.603	0.0142681
948.682	0.0141333
948.760	0.0141986
948.838	0.0142392
948.916	0.0141761
948.994	0.0142036
949.072	0.0142244
949.150	0.0141158
949.228	0.0141678
949.307	0.0142133
949.385	0.0141753
949.463	0.0141147
949.541	0.0141766
949.619	0.0142174
949.697	0.0141766
949.775	0.0142876
949.853	0.0141011
949.932	0.0142287
950.010	0.0143891
950.088	0.0142314
950.166	0.0140966
950.244	0.0142736
950.322	0.0142699
950.400	0.0141724
950.478	0.0142164
950.557	0.0142652
950.635	0.0141573
950.713	0.0141758
950.791	0.0142657
950.869	0.0142174
950.947	0.0142574
951.025	0.0141591
951.103	0.0141105
951.182	0.0142274
951.260	0.0141368
951.338	0.0139550
951.416	0.0140673
951.494	0.0141013
951.572	0.0139609
951.650	0.0139484
951.728	0.0140405
951.807	0.0138660
951.885	0.0139082
951.963	0.0140693
952.041	0.0139655
952.119	0.0139449
952.197	0.0143030
952.275	0.0140704
952.353	0.0143108
952.432	0.0141241
952.510	0.0142171
952.588	0.0143403
952.666	0.0142719
952.744	0.0143169
952.822	0.0144676
952.900	0.0143942
952.978	0.0144543
953.057	0.0144241
953.135	0.0144273
953.213	0.0143419
953.291	0.0143133
953.369	0.0145200
953.447	0.0143417
953.525	0.0142941
953.603	0.0143622
953.682	0.0144421
953.760	0.0144896
953.838	0.0144186
953.916	0.0144509
953.994	0.0144978
954.072	0.0143422
954.150	0.0142829
954.228	0.0144312
954.307	0.0144085
954.385	0.0144411
954.463	0.0143601
954.541	0.0143628
954.619	0.0142925
954.697	0.0143362
954.775	0.0143466
954.853	0.0143529
954.932	0.0144099
955.010	0.0143409
955.088	0.0141711
955.166	0.0141408
955.244	0.0142216
955.322	0.0142339
955.400	0.0142291
955.478	0.0142186
955.557	0.0140830
955.635	0.0141628
955.713	0.0142028
955.791	0.0142818
955.869	0.0141408
955.947	0.0142085
956.025	0.0142231
956.103	0.0142192
956.182	0.0141788
956.260	0.0142873
956.338	0.0143259
956.416	0.0142134
956.494	0.0141481
956.572	0.0142210
956.650	0.0142740
956.728	0.0141937
956.807	0.0142091
956.885	0.0143112
956.963	0.0142963
957.041	0.0142803
957.119	0.0144270
957.197	0.0144271
957.275	0.0143321
957.353	0.0143945
957.432	0.0144776
957.510	0.0143781
957.588	0.0144855
957.666	0.0143768
957.744	0.0144281
957.822	0.0144450
957.900	0.0144427
957.978	0.0143254
958.057	0.0143342
958.135	0.0143094
958.213	0.0144019
958.291	0.0143565
958.369	0.0144014
958.447	0.0143954
958.525	0.0144601
958.603	0.0144657
958.682	0.0143774
958.760	0.0142606
958.838	0.0143894
958.916	0.0144617
958.994	0.0145869
959.072	0.0144256
959.150	0.0145305
959.228	0.0146372
959.307	0.0144238
959.385	0.0142715
959.463	0.0145609
959.541	0.0146416
959.619	0.0145418
959.697	0.0145888
959.775	0.0144940
959.853	0.0144933
959.932	0.0144468
960.010	0.0144765
960.088	0.0145718
960.166	0.0144810
960.244	0.0146130
960.322	0.0146770
960.400	0.0146703
960.478	0.0145959
960.557	0.0145120
960.635	0.0144919
960.713	0.0144753
960.791	0.0144059
960.869	0.0144021
960.947	0.0143322
961.025	0.0144270
961.103	0.0143756
961.182	0.0141370
961.260	0.0141218
961.338	0.0141974
961.416	0.0141337
961.494	0.0142549
961.572	0.0141856
961.650	0.0141540
961.728	0.0143195
961.807	0.0142990
961.885	0.0141972
961.963	0.0143147
962.041	0.0143037
962.119	0.0143590
962.197	0.0144231
962.275	0.0143360
962.353	0.0143934
962.432	0.0144707
962.510	0.0144847
962.588	0.0143650
962.666	0.0143991
962.744	0.0143939
962.822	0.0142489
962.900	0.0142797
962.978	0.0144105
963.057	0.0143069
963.135	0.0144078
963.213	0.0142737
963.291	0.0143090
963.369	0.0142701
963.447	0.0143034
963.525	0.0143363
963.603	0.0142846
963.682	0.0142638
963.760	0.0142191
963.838	0.0143674
963.916	0.0143044
963.994	0.0141820
964.072	0.0143118
964.150	0.0143111
964.228	0.0143690
964.307	0.0142164
964.385	0.0143121
964.463	0.0143272
964.541	0.0143641
964.619	0.0143011
964.697	0.0143981
964.775	0.0142657
964.853	0.0143679
964.932	0.0144144
965.010	0.0143708
965.088	0.0143728
965.166	0.0144543
965.244	0.0142159
965.322	0.0143156
965.400	0.0141702
965.478	0.0142797
965.557	0.0144918
965.635	0.0144789
965.713	0.0142464
965.791	0.0143031
965.869	0.0144344
965.947	0.0143742
966.025	0.0143387
966.103	0.0143003
966.182	0.0142390
966.260	0.0143275
966.338	0.0143803
966.416	0.0143403
966.494	0.0143898
966.572	0.0143991
966.650	0.0142741
966.728	0.0143176
966.807	0.0142797
966.885	0.0143768
966.963	0.0143324
967.041	0.0141888
967.119	0.0142100
967.197	0.0141784
967.275	0.0142233
967.353	0.0143127
967.432	0.0142319
967.510	0.0142734
967.588	0.0142217
967.666	0.0142309
967.744	0.0142483
967.822	0.0142578
967.900	0.0143517
967.978	0.0143179
968.057	0.0142524
968.135	0.0142791
968.213	0.0142555
968.291	0.0143188
968.369	0.0141293
968.447	0.0143198
968.525	0.0143047
968.603	0.0142400
968.682	0.0143147
968.760	0.0142970
968.838	0.0142689
968.916	0.0143037
968.994	0.0144067
969.072	0.0142455
969.150	0.0142200
969.228	0.0143708
969.307	0.0143225
969.385	0.0144093
969.463	0.0144350
969.541	0.0144183
969.619	0.0143616
969.697	0.0142991
969.775	0.0143707
969.853	0.0143942
969.932	0.0142434
