05/14/2022	19:26:30	Ver.	4.1	UNKNOWN
Optical Delay	650.009681	Delta X		0.078125	Sweeps	1	Scan Rate	0/0
Coordinates	Axis 1	NaN	Axis 2	NaN	Axis 3	NaN	Axis 4	NaN	Axis 5	NaN	Axis 6	0.000000
TX Power	0.000000	RX Power	0.000000

650.010	0.0145831
650.088	0.0146815
650.166	0.0146529
650.244	0.0145781
650.322	0.0145688
650.400	0.0146426
650.478	0.0145533
650.557	0.0145253
650.635	0.0144978
650.713	0.0144561
650.791	0.0146005
650.869	0.0145683
650.947	0.0145386
651.025	0.0146388
651.103	0.0145638
651.182	0.0144590
651.260	0.0145258
651.338	0.0145686
651.416	0.0144992
651.494	0.0144788
651.572	0.0145570
651.650	0.0142687
651.728	0.0144090
651.807	0.0144151
651.885	0.0144265
651.963	0.0144278
652.041	0.0143797
652.119	0.0144404
652.197	0.0145536
652.275	0.0143861
652.353	0.0144632
652.432	0.0143929
652.510	0.0144009
652.588	0.0144398
652.666	0.0142858
652.744	0.0144891
652.822	0.0144652
652.900	0.0143827
652.978	0.0144275
653.057	0.0144584
653.135	0.0144639
653.213	0.0144486
653.291	0.0145052
653.369	0.0143954
653.447	0.0143523
653.525	0.0144175
653.603	0.0143983
653.682	0.0143445
653.760	0.0145111
653.838	0.0144672
653.916	0.0144531
653.994	0.0145934
654.072	0.0144613
654.150	0.0144228
654.228	0.0144495
654.307	0.0145078
654.385	0.0144559
654.463	0.0143189
654.541	0.0145930
654.619	0.0144594
654.697	0.0144218
654.775	0.0144082
654.853	0.0144999
654.932	0.0145296
655.010	0.0145129
655.088	0.0145920
655.166	0.0144823
655.244	0.0145055
655.322	0.0145425
655.400	0.0144855
655.478	0.0144296
655.557	0.0144500
655.635	0.0145330
655.713	0.0145682
655.791	0.0145273
655.869	0.0144397
655.947	0.0144744
656.025	0.0146183
656.103	0.0144247
656.182	0.0145684
656.260	0.0147652
656.338	0.0147504
656.416	0.0146730
656.494	0.0144160
656.572	0.0144677
656.650	0.0145735
656.728	0.0145862
656.807	0.0146324
656.885	0.0145393
656.963	0.0145122
657.041	0.0145999
657.119	0.0145544
657.197	0.0145255
657.275	0.0145357
657.353	0.0144559
657.432	0.0145528
657.510	0.0145545
657.588	0.0145419
657.666	0.0145127
657.744	0.0146110
657.822	0.0146191
657.900	0.0145332
657.978	0.0146184
658.057	0.0146593
658.135	0.0146230
658.213	0.0146408
658.291	0.0146764
658.369	0.0146714
658.447	0.0145813
658.525	0.0146429
658.603	0.0146273
658.682	0.0145996
658.760	0.0145907
658.838	0.0145500
658.916	0.0146520
658.994	0.0145711
659.072	0.0146445
659.150	0.0147359
659.228	0.0146702
659.307	0.0146050
659.385	0.0145574
659.463	0.0146139
659.541	0.0145599
659.619	0.0146198
659.697	0.0145089
659.775	0.0144547
659.853	0.0145945
659.932	0.0147019
660.010	0.0146064
660.088	0.0145744
660.166	0.0146815
660.244	0.0146172
660.322	0.0145648
660.400	0.0145569
660.478	0.0145389
660.557	0.0146032
660.635	0.0145496
660.713	0.0146345
660.791	0.0146010
660.869	0.0145675
660.947	0.0145965
661.025	0.0144976
661.103	0.0144280
661.182	0.0145889
661.260	0.0147199
661.338	0.0146632
661.416	0.0145602
661.494	0.0145728
661.572	0.0145843
661.650	0.0145380
661.728	0.0145387
661.807	0.0145292
661.885	0.0147312
661.963	0.0145338
662.041	0.0146397
662.119	0.0147487
662.197	0.0144907
662.275	0.0146237
662.353	0.0146577
662.432	0.0147136
662.510	0.0145733
662.588	0.0145995
662.666	0.0145957
662.744	0.0146536
662.822	0.0146612
662.900	0.0145940
662.978	0.0146047
663.057	0.0145911
663.135	0.0145646
663.213	0.0147176
663.291	0.0146382
663.369	0.0145718
663.447	0.0146421
663.525	0.0146706
663.603	0.0146251
663.682	0.0146975
663.760	0.0146632
663.838	0.0146658
663.916	0.0146024
663.994	0.0146257
664.072	0.0146883
664.150	0.0145870
664.228	0.0144705
664.307	0.0145239
664.385	0.0145429
664.463	0.0146136
664.541	0.0145676
664.619	0.0146502
664.697	0.0146855
664.775	0.0148362
664.853	0.0146970
664.932	0.0145931
665.010	0.0145216
665.088	0.0147316
665.166	0.0144970
665.244	0.0145546
665.322	0.0147240
665.400	0.0146998
665.478	0.0146774
665.557	0.0146255
665.635	0.0146001
665.713	0.0146735
665.791	0.0145738
665.869	0.0145197
665.947	0.0144948
666.025	0.0146358
666.103	0.0145520
666.182	0.0145721
666.260	0.0144448
666.338	0.0144363
666.416	0.0148065
666.494	0.0145020
666.572	0.0145226
666.650	0.0145186
666.728	0.0145287
666.807	0.0145477
666.885	0.0145809
666.963	0.0144945
667.041	0.0145354
667.119	0.0145714
667.197	0.0146279
667.275	0.0146550
667.353	0.0146809
667.432	0.0146627
667.510	0.0145562
667.588	0.0148081
667.666	0.0146696
667.744	0.0146994
667.822	0.0145755
667.900	0.0146778
667.978	0.0145543
668.057	0.0145965
668.135	0.0143941
668.213	0.0146004
668.291	0.0145143
668.369	0.0144063
668.447	0.0144072
668.525	0.0144307
668.603	0.0143130
668.682	0.0142482
668.760	0.0142803
668.838	0.0141759
668.916	0.0142862
668.994	0.0142698
669.072	0.0143634
669.150	0.0144476
669.228	0.0144375
669.307	0.0145807
669.385	0.0146368
669.463	0.0148051
669.541	0.0149794
669.619	0.0150134
669.697	0.0150195
669.775	0.0150504
669.853	0.0150335
669.932	0.0151487
670.010	0.0149879
670.088	0.0148791
670.166	0.0147590
670.244	0.0146575
670.322	0.0143417
670.400	0.0144398
670.478	0.0143335
670.557	0.0140757
670.635	0.0138079
670.713	0.0136303
670.791	0.0137064
670.869	0.0136270
670.947	0.0135608
671.025	0.0135618
671.103	0.0138480
671.182	0.0138888
671.260	0.0140668
671.338	0.0145341
671.416	0.0146446
671.494	0.0149313
671.572	0.0151592
671.650	0.0153266
671.728	0.0155491
671.807	0.0159179
671.885	0.0159429
671.963	0.0160215
672.041	0.0162253
672.119	0.0160638
672.197	0.0160089
672.275	0.0158981
672.353	0.0156973
672.432	0.0153929
672.510	0.0150634
672.588	0.0147519
672.666	0.0143501
672.744	0.0139765
672.822	0.0136694
672.900	0.0133324
672.978	0.0131325
673.057	0.0129476
673.135	0.0126345
673.213	0.0125584
673.291	0.0124199
673.369	0.0125705
673.447	0.0127624
673.525	0.0127721
673.603	0.0130942
673.682	0.0135110
673.760	0.0137106
673.838	0.0140516
673.916	0.0142424
673.994	0.0145464
674.072	0.0149067
674.150	0.0152354
674.228	0.0154922
674.307	0.0157643
674.385	0.0160129
674.463	0.0161216
674.541	0.0164027
674.619	0.0164105
674.697	0.0165022
674.775	0.0164279
674.853	0.0163506
674.932	0.0161990
675.010	0.0159926
675.088	0.0158483
675.166	0.0156969
675.244	0.0153307
675.322	0.0148431
675.400	0.0144712
675.478	0.0141498
675.557	0.0137255
675.635	0.0133547
675.713	0.0130278
675.791	0.0126633
675.869	0.0125372
675.947	0.0123048
676.025	0.0120893
676.103	0.0122881
676.182	0.0122900
676.260	0.0124542
676.338	0.0125925
676.416	0.0128899
676.494	0.0131326
676.572	0.0135245
676.650	0.0138200
676.728	0.0143187
676.807	0.0145699
676.885	0.0147221
676.963	0.0151582
677.041	0.0153282
677.119	0.0156033
677.197	0.0158060
677.275	0.0157372
677.353	0.0159399
677.432	0.0159536
677.510	0.0157984
677.588	0.0157876
677.666	0.0156689
677.744	0.0156666
677.822	0.0155420
677.900	0.0154185
677.978	0.0151179
678.057	0.0149812
678.135	0.0147065
678.213	0.0144584
678.291	0.0144131
678.369	0.0140888
678.447	0.0139552
678.525	0.0138213
678.603	0.0137983
678.682	0.0136350
678.760	0.0136497
678.838	0.0136721
678.916	0.0137678
678.994	0.0138645
679.072	0.0140254
679.150	0.0142948
679.228	0.0144219
679.307	0.0147420
679.385	0.0149119
679.463	0.0151422
679.541	0.0154033
679.619	0.0155389
679.697	0.0157503
679.775	0.0159774
679.853	0.0161745
679.932	0.0160848
680.010	0.0160667
680.088	0.0160385
680.166	0.0158557
680.244	0.0157809
680.322	0.0154301
680.400	0.0150695
680.478	0.0148780
680.557	0.0144182
680.635	0.0138940
680.713	0.0135433
680.791	0.0131664
680.869	0.0127583
680.947	0.0122918
681.025	0.0118802
681.103	0.0118991
681.182	0.0116597
681.260	0.0116361
681.338	0.0116767
681.416	0.0117583
681.494	0.0118373
681.572	0.0120648
681.650	0.0124028
681.728	0.0128574
681.807	0.0130779
681.885	0.0134820
681.963	0.0138633
682.041	0.0142332
682.119	0.0146380
682.197	0.0151427
682.275	0.0155470
682.353	0.0161352
682.432	0.0165255
682.510	0.0171267
682.588	0.0175798
682.666	0.0179606
682.744	0.0184396
682.822	0.0186721
682.900	0.0188451
682.978	0.0189585
683.057	0.0191311
683.135	0.0191325
683.213	0.0189112
683.291	0.0184846
683.369	0.0180075
683.447	0.0174961
683.525	0.0167728
683.603	0.0160734
683.682	0.0153777
683.760	0.0146974
683.838	0.0139954
683.916	0.0131151
683.994	0.0126617
684.072	0.0121606
684.150	0.0118581
684.228	0.0113721
684.307	0.0110040
684.385	0.0109045
684.463	0.0108477
684.541	0.0106461
684.619	0.0107680
684.697	0.0108236
684.775	0.0107195
684.853	0.0108580
684.932	0.0109837
685.010	0.0108096
685.088	0.0111598
685.166	0.0112593
685.244	0.0114022
685.322	0.0117279
685.400	0.0119798
685.478	0.0124062
685.557	0.0128822
685.635	0.0134933
685.713	0.0140672
685.791	0.0147849
685.869	0.0153136
685.947	0.0160175
686.025	0.0167013
686.103	0.0172929
686.182	0.0177792
686.260	0.0182909
686.338	0.0185777
686.416	0.0187813
686.494	0.0189289
686.572	0.0189001
686.650	0.0187615
686.728	0.0186462
686.807	0.0185715
686.885	0.0183494
686.963	0.0181697
687.041	0.0178683
687.119	0.0174173
687.197	0.0172875
687.275	0.0169577
687.353	0.0165822
687.432	0.0160365
687.510	0.0157407
687.588	0.0152800
687.666	0.0148208
687.744	0.0143981
687.822	0.0138718
687.900	0.0134874
687.978	0.0131187
688.057	0.0127148
688.135	0.0124252
688.213	0.0122616
688.291	0.0121199
688.369	0.0121161
688.447	0.0120439
688.525	0.0120889
688.603	0.0122756
688.682	0.0124422
688.760	0.0126862
688.838	0.0129262
688.916	0.0132177
688.994	0.0131926
689.072	0.0133390
689.150	0.0133875
689.228	0.0132719
689.307	0.0132428
689.385	0.0131398
689.463	0.0127552
689.541	0.0125817
689.619	0.0125668
689.697	0.0121711
689.775	0.0122161
689.853	0.0120731
689.932	0.0121487
690.010	0.0121305
690.088	0.0126067
690.166	0.0129994
690.244	0.0135828
690.322	0.0139786
690.400	0.0147666
690.478	0.0153162
690.557	0.0160663
690.635	0.0167888
690.713	0.0174742
690.791	0.0180087
690.869	0.0185895
690.947	0.0190121
691.025	0.0191761
691.103	0.0193441
691.182	0.0195050
691.260	0.0193739
691.338	0.0193356
691.416	0.0192078
691.494	0.0189466
691.572	0.0185090
691.650	0.0180479
691.728	0.0177580
691.807	0.0172501
691.885	0.0167116
691.963	0.0161615
692.041	0.0156596
692.119	0.0149317
692.197	0.0142201
692.275	0.0135886
692.353	0.0129055
692.432	0.0121745
692.510	0.0116036
692.588	0.0110226
692.666	0.0104518
692.744	0.0101748
692.822	0.00982292
692.900	0.00954445
692.978	0.00944191
693.057	0.00964684
693.135	0.00984184
693.213	0.0101886
693.291	0.0107873
693.369	0.0113625
693.447	0.0120123
693.525	0.0127024
693.603	0.0131873
693.682	0.0139610
693.760	0.0145911
693.838	0.0150171
693.916	0.0157780
693.994	0.0161075
694.072	0.0163567
694.150	0.0166460
694.228	0.0169404
694.307	0.0169110
694.385	0.0170525
694.463	0.0170371
694.541	0.0170702
694.619	0.0171012
694.697	0.0169704
694.775	0.0169228
694.853	0.0164250
694.932	0.0162659
695.010	0.0158614
695.088	0.0155326
695.166	0.0150320
695.244	0.0145331
695.322	0.0140451
695.400	0.0136724
695.478	0.0132690
695.557	0.0129755
695.635	0.0129044
695.713	0.0126600
695.791	0.0126872
695.869	0.0128481
695.947	0.0130135
696.025	0.0131414
696.103	0.0132654
696.182	0.0135693
696.260	0.0137112
696.338	0.0140059
696.416	0.0142004
696.494	0.0143117
696.572	0.0144302
696.650	0.0145142
696.728	0.0145277
696.807	0.0147077
696.885	0.0149575
696.963	0.0149402
697.041	0.0150057
697.119	0.0152949
697.197	0.0154286
697.275	0.0156176
697.353	0.0155781
697.432	0.0158012
697.510	0.0158097
697.588	0.0157539
697.666	0.0157529
697.744	0.0157153
697.822	0.0155687
697.900	0.0154742
697.978	0.0153915
698.057	0.0151826
698.135	0.0148646
698.213	0.0147071
698.291	0.0144805
698.369	0.0144434
698.447	0.0144756
698.525	0.0142597
698.603	0.0143378
698.682	0.0146780
698.760	0.0145721
698.838	0.0146583
698.916	0.0149020
698.994	0.0151141
699.072	0.0152392
699.150	0.0152740
699.228	0.0150231
699.307	0.0151374
699.385	0.0152203
699.463	0.0150883
699.541	0.0148747
699.619	0.0144933
699.697	0.0143252
699.775	0.0140939
699.853	0.0138709
699.932	0.0136718
700.010	0.0135123
700.088	0.0133076
700.166	0.0132822
700.244	0.0130891
700.322	0.0128944
700.400	0.0125916
700.478	0.0124982
700.557	0.0124857
700.635	0.0124902
700.713	0.0122364
700.791	0.0121388
700.869	0.0122842
700.947	0.0121527
701.025	0.0121983
701.103	0.0124953
701.182	0.0125530
701.260	0.0129369
701.338	0.0133143
701.416	0.0135578
701.494	0.0140138
701.572	0.0144249
701.650	0.0148437
701.728	0.0153896
701.807	0.0157491
701.885	0.0161223
701.963	0.0163773
702.041	0.0167133
702.119	0.0169840
702.197	0.0172680
702.275	0.0175037
702.353	0.0176092
702.432	0.0175570
702.510	0.0175553
702.588	0.0175603
702.666	0.0174522
702.744	0.0171922
702.822	0.0170473
702.900	0.0169738
702.978	0.0166444
703.057	0.0164404
703.135	0.0162428
703.213	0.0161282
703.291	0.0159457
703.369	0.0157806
703.447	0.0155956
703.525	0.0153941
703.603	0.0150917
703.682	0.0149651
703.760	0.0146857
703.838	0.0143769
703.916	0.0144766
703.994	0.0140439
704.072	0.0137424
704.150	0.0136726
704.228	0.0135770
704.307	0.0134882
704.385	0.0133378
704.463	0.0132430
704.541	0.0132889
704.619	0.0131061
704.697	0.0129018
704.775	0.0130669
704.853	0.0130360
704.932	0.0129919
705.010	0.0129578
705.088	0.0128822
705.166	0.0128167
705.244	0.0127841
705.322	0.0128848
705.400	0.0129812
705.478	0.0131229
705.557	0.0131327
705.635	0.0132350
705.713	0.0132716
705.791	0.0132520
705.869	0.0133143
705.947	0.0135405
706.025	0.0134995
706.103	0.0136217
706.182	0.0137753
706.260	0.0136847
706.338	0.0137929
706.416	0.0139693
706.494	0.0139647
706.572	0.0141203
706.650	0.0141423
706.728	0.0143800
706.807	0.0146481
706.885	0.0147089
706.963	0.0151076
707.041	0.0151546
707.119	0.0152390
707.197	0.0156516
707.275	0.0157611
707.353	0.0157802
707.432	0.0161541
707.510	0.0161739
707.588	0.0163686
707.666	0.0165451
707.744	0.0165320
707.822	0.0165771
707.900	0.0166970
707.978	0.0168099
708.057	0.0168372
708.135	0.0167772
708.213	0.0168527
708.291	0.0168526
708.369	0.0167896
708.447	0.0167885
708.525	0.0167210
708.603	0.0165385
708.682	0.0162276
708.760	0.0161594
708.838	0.0159495
708.916	0.0157716
708.994	0.0153645
709.072	0.0152682
709.150	0.0150494
709.228	0.0145772
709.307	0.0145050
709.385	0.0141842
709.463	0.0138473
709.541	0.0137308
709.619	0.0136744
709.697	0.0134860
709.775	0.0134946
709.853	0.0133195
709.932	0.0131180
710.010	0.0129904
710.088	0.0130059
710.166	0.0128020
710.244	0.0128659
710.322	0.0125918
710.400	0.0125302
710.478	0.0125562
710.557	0.0124430
710.635	0.0122038
710.713	0.0121487
710.791	0.0119671
710.869	0.0119685
710.947	0.0119944
711.025	0.0120463
711.103	0.0122734
711.182	0.0123444
711.260	0.0125341
711.338	0.0127578
711.416	0.0129640
711.494	0.0135246
711.572	0.0139883
711.650	0.0141273
711.728	0.0145807
711.807	0.0150890
711.885	0.0152943
711.963	0.0155884
712.041	0.0157202
712.119	0.0160410
712.197	0.0162949
712.275	0.0162713
712.353	0.0164211
712.432	0.0163444
712.510	0.0163293
712.588	0.0164015
712.666	0.0162257
712.744	0.0160640
712.822	0.0160973
712.900	0.0158938
712.978	0.0160095
713.057	0.0157455
713.135	0.0160017
713.213	0.0158772
713.291	0.0158557
713.369	0.0158092
713.447	0.0158561
713.525	0.0157113
713.603	0.0157419
713.682	0.0154256
713.760	0.0152826
713.838	0.0150719
713.916	0.0149084
713.994	0.0147667
714.072	0.0146193
714.150	0.0143470
714.228	0.0142734
714.307	0.0140579
714.385	0.0140453
714.463	0.0139442
714.541	0.0138891
714.619	0.0138174
714.697	0.0140088
714.775	0.0141582
714.853	0.0140115
714.932	0.0141695
715.010	0.0143057
715.088	0.0145775
715.166	0.0146378
715.244	0.0148564
715.322	0.0149669
715.400	0.0150684
715.478	0.0149944
715.557	0.0150553
715.635	0.0150446
715.713	0.0149939
715.791	0.0148349
715.869	0.0145886
715.947	0.0144298
716.025	0.0141665
716.103	0.0137334
716.182	0.0136443
716.260	0.0135544
716.338	0.0131960
716.416	0.0132068
716.494	0.0130546
716.572	0.0131462
716.650	0.0131317
716.728	0.0131490
716.807	0.0130067
716.885	0.0131942
716.963	0.0132921
717.041	0.0133947
717.119	0.0135374
717.197	0.0138144
717.275	0.0137665
717.353	0.0139842
717.432	0.0142136
717.510	0.0141461
717.588	0.0143342
717.666	0.0145473
717.744	0.0145450
717.822	0.0147321
717.900	0.0148727
717.978	0.0149571
718.057	0.0151213
718.135	0.0151700
718.213	0.0153115
718.291	0.0153299
718.369	0.0153153
718.447	0.0154764
718.525	0.0155209
718.603	0.0155283
718.682	0.0156718
718.760	0.0155856
718.838	0.0156049
718.916	0.0157598
718.994	0.0158397
719.072	0.0158149
719.150	0.0158027
719.228	0.0158072
719.307	0.0157919
719.385	0.0157321
719.463	0.0158270
719.541	0.0157502
719.619	0.0154871
719.697	0.0155977
719.775	0.0155120
719.853	0.0153607
719.932	0.0151113
720.010	0.0149446
720.088	0.0149094
720.166	0.0148105
720.244	0.0146669
720.322	0.0145919
720.400	0.0144221
720.478	0.0144429
720.557	0.0143701
720.635	0.0143371
720.713	0.0143945
720.791	0.0142226
720.869	0.0142624
720.947	0.0142000
721.025	0.0141917
721.103	0.0140952
721.182	0.0141780
721.260	0.0143870
721.338	0.0142000
721.416	0.0141718
721.494	0.0142146
721.572	0.0142947
721.650	0.0141838
721.728	0.0141357
721.807	0.0140952
721.885	0.0141196
721.963	0.0143843
722.041	0.0143187
722.119	0.0142393
722.197	0.0143347
722.275	0.0144225
722.353	0.0144910
722.432	0.0143303
722.510	0.0143900
722.588	0.0144533
722.666	0.0143876
722.744	0.0143761
722.822	0.0143737
722.900	0.0143420
722.978	0.0144469
723.057	0.0142179
723.135	0.0143342
723.213	0.0144329
723.291	0.0143143
723.369	0.0143284
723.447	0.0146306
723.525	0.0146336
723.603	0.0144947
723.682	0.0145401
723.760	0.0145108
723.838	0.0147386
723.916	0.0148561
723.994	0.0147856
724.072	0.0148337
724.150	0.0148378
724.228	0.0148888
724.307	0.0147520
724.385	0.0148022
724.463	0.0147935
724.541	0.0149379
724.619	0.0147788
724.697	0.0148753
724.775	0.0149607
724.853	0.0147888
724.932	0.0149223
725.010	0.0147990
725.088	0.0148946
725.166	0.0149828
725.244	0.0148002
725.322	0.0147888
725.400	0.0146632
725.478	0.0147801
725.557	0.0147404
725.635	0.0147674
725.713	0.0148262
725.791	0.0147353
725.869	0.0148346
725.947	0.0147431
726.025	0.0148919
726.103	0.0148499
726.182	0.0150767
726.260	0.0149171
726.338	0.0150103
726.416	0.0151500
726.494	0.0150392
726.572	0.0149839
726.650	0.0150845
726.728	0.0150684
726.807	0.0149921
726.885	0.0146934
726.963	0.0149815
727.041	0.0149058
727.119	0.0148537
727.197	0.0149825
727.275	0.0149346
727.353	0.0150571
727.432	0.0149532
727.510	0.0148668
727.588	0.0148526
727.666	0.0148451
727.744	0.0147144
727.822	0.0145452
727.900	0.0144546
727.978	0.0143501
728.057	0.0141940
728.135	0.0140282
728.213	0.0139939
728.291	0.0140604
728.369	0.0137920
728.447	0.0138796
728.525	0.0138313
728.603	0.0138828
728.682	0.0139852
728.760	0.0140094
728.838	0.0141138
728.916	0.0140553
728.994	0.0142462
729.072	0.0143045
729.150	0.0144167
729.228	0.0142802
729.307	0.0143439
729.385	0.0142857
729.463	0.0141654
729.541	0.0141940
729.619	0.0143195
729.697	0.0141279
729.775	0.0141280
729.853	0.0141718
729.932	0.0142265
730.010	0.0142199
730.088	0.0142807
730.166	0.0143127
730.244	0.0143817
730.322	0.0145483
730.400	0.0143810
730.478	0.0145016
730.557	0.0147424
730.635	0.0145924
730.713	0.0147820
730.791	0.0147511
730.869	0.0147912
730.947	0.0149383
731.025	0.0149785
731.103	0.0148871
731.182	0.0148293
731.260	0.0149794
731.338	0.0149420
731.416	0.0149308
731.494	0.0147699
731.572	0.0148643
731.650	0.0147955
731.728	0.0146503
731.807	0.0145973
731.885	0.0145061
731.963	0.0146309
732.041	0.0144843
732.119	0.0142833
732.197	0.0141852
732.275	0.0141870
732.353	0.0141039
732.432	0.0141637
732.510	0.0140388
732.588	0.0142444
732.666	0.0142496
732.744	0.0142827
732.822	0.0143253
732.900	0.0144310
732.978	0.0145102
733.057	0.0143885
733.135	0.0144517
733.213	0.0145493
733.291	0.0144548
733.369	0.0143544
733.447	0.0144749
733.525	0.0144055
733.603	0.0142015
733.682	0.0143989
733.760	0.0142107
733.838	0.0141777
733.916	0.0143443
733.994	0.0143579
734.072	0.0142979
734.150	0.0144501
734.228	0.0144280
734.307	0.0143972
734.385	0.0145053
734.463	0.0145364
734.541	0.0146003
734.619	0.0146400
734.697	0.0145296
734.775	0.0146537
734.853	0.0146266
734.932	0.0146089
735.010	0.0146762
735.088	0.0146781
735.166	0.0147535
735.244	0.0148832
735.322	0.0148415
735.400	0.0148563
735.478	0.0148889
735.557	0.0147627
735.635	0.0149177
735.713	0.0149957
735.791	0.0148855
735.869	0.0149256
735.947	0.0150476
736.025	0.0148928
736.103	0.0147794
736.182	0.0147977
736.260	0.0146085
736.338	0.0146741
736.416	0.0144904
736.494	0.0144891
736.572	0.0143911
736.650	0.0143337
736.728	0.0142759
736.807	0.0142551
736.885	0.0141261
736.963	0.0141168
737.041	0.0140942
737.119	0.0141248
737.197	0.0141728
737.275	0.0140914
737.353	0.0142727
737.432	0.0143232
737.510	0.0141729
737.588	0.0142525
737.666	0.0143228
737.744	0.0144038
737.822	0.0141833
737.900	0.0142160
737.978	0.0142509
738.057	0.0142297
738.135	0.0143436
738.213	0.0144757
738.291	0.0142109
738.369	0.0142537
738.447	0.0141398
738.525	0.0140721
738.603	0.0140166
738.682	0.0140422
738.760	0.0140086
738.838	0.0140112
738.916	0.0140199
738.994	0.0141061
739.072	0.0141746
739.150	0.0141991
739.228	0.0143752
739.307	0.0144838
739.385	0.0145682
739.463	0.0147563
739.541	0.0148977
739.619	0.0148792
739.697	0.0150713
739.775	0.0150478
739.853	0.0150759
739.932	0.0150682
740.010	0.0149780
740.088	0.0150276
740.166	0.0150825
740.244	0.0149084
740.322	0.0148865
740.400	0.0148415
740.478	0.0148082
740.557	0.0148580
740.635	0.0148138
740.713	0.0146854
740.791	0.0147153
740.869	0.0146801
740.947	0.0149124
741.025	0.0148466
741.103	0.0149589
741.182	0.0149065
741.260	0.0150793
741.338	0.0151231
741.416	0.0151218
741.494	0.0152141
741.572	0.0153175
741.650	0.0151959
741.728	0.0153381
741.807	0.0152030
741.885	0.0151949
741.963	0.0151544
742.041	0.0150426
742.119	0.0150353
742.197	0.0150732
742.275	0.0150502
742.353	0.0149181
742.432	0.0148724
742.510	0.0146370
742.588	0.0145500
742.666	0.0145226
742.744	0.0144686
742.822	0.0143347
742.900	0.0144249
742.978	0.0142432
743.057	0.0142892
743.135	0.0142302
743.213	0.0142367
743.291	0.0141338
743.369	0.0142030
743.447	0.0141844
743.525	0.0140215
743.603	0.0140520
743.682	0.0140656
743.760	0.0140925
743.838	0.0141791
743.916	0.0141116
743.994	0.0141420
744.072	0.0140617
744.150	0.0141196
744.228	0.0140584
744.307	0.0141714
744.385	0.0141872
744.463	0.0141280
744.541	0.0142425
744.619	0.0142830
744.697	0.0143291
744.775	0.0144498
744.853	0.0145267
744.932	0.0143227
745.010	0.0145140
745.088	0.0145252
745.166	0.0146130
745.244	0.0144778
745.322	0.0143508
745.400	0.0143838
745.478	0.0144015
745.557	0.0144877
745.635	0.0143979
745.713	0.0143885
745.791	0.0142249
745.869	0.0143009
745.947	0.0145679
746.025	0.0146102
746.103	0.0146191
746.182	0.0146272
746.260	0.0148337
746.338	0.0149367
746.416	0.0150799
746.494	0.0152289
746.572	0.0152744
746.650	0.0154355
746.728	0.0154264
746.807	0.0153188
746.885	0.0153754
746.963	0.0154409
747.041	0.0155286
747.119	0.0153168
747.197	0.0153006
747.275	0.0153146
747.353	0.0152321
747.432	0.0153345
747.510	0.0150451
747.588	0.0152245
747.666	0.0151778
747.744	0.0150847
747.822	0.0150246
747.900	0.0151134
747.978	0.0150253
748.057	0.0151299
748.135	0.0149905
748.213	0.0152151
748.291	0.0151814
748.369	0.0149805
748.447	0.0150338
748.525	0.0152327
748.603	0.0151329
748.682	0.0149580
748.760	0.0148611
748.838	0.0147906
748.916	0.0146606
748.994	0.0146071
749.072	0.0144433
749.150	0.0142776
749.228	0.0142480
749.307	0.0141190
749.385	0.0140295
749.463	0.0141275
749.541	0.0137577
749.619	0.0139668
749.697	0.0139677
749.775	0.0138524
749.853	0.0137503
749.932	0.0138663
750.010	0.0139469
750.088	0.0139552
750.166	0.0139932
750.244	0.0139466
750.322	0.0139937
750.400	0.0141941
750.478	0.0141407
750.557	0.0142055
750.635	0.0141577
750.713	0.0141805
750.791	0.0143607
750.869	0.0144569
750.947	0.0144263
751.025	0.0142495
751.103	0.0145161
751.182	0.0146597
751.260	0.0144105
751.338	0.0144769
751.416	0.0145805
751.494	0.0144527
751.572	0.0145268
751.650	0.0144102
751.728	0.0144861
751.807	0.0145274
751.885	0.0145145
751.963	0.0145129
752.041	0.0143383
752.119	0.0143629
752.197	0.0143228
752.275	0.0142949
752.353	0.0141972
752.432	0.0144877
752.510	0.0145367
752.588	0.0144253
752.666	0.0145230
752.744	0.0145409
752.822	0.0145657
752.900	0.0146561
752.978	0.0148337
753.057	0.0146928
753.135	0.0147826
753.213	0.0148399
753.291	0.0147739
753.369	0.0147295
753.447	0.0148262
753.525	0.0148030
753.603	0.0148249
753.682	0.0148856
753.760	0.0147247
753.838	0.0148046
753.916	0.0148333
753.994	0.0147356
754.072	0.0147672
754.150	0.0147289
754.228	0.0147006
754.307	0.0147174
754.385	0.0146286
754.463	0.0148318
754.541	0.0147933
754.619	0.0146191
754.697	0.0147430
754.775	0.0148952
754.853	0.0148493
754.932	0.0147663
755.010	0.0149557
755.088	0.0149432
755.166	0.0148496
755.244	0.0150068
755.322	0.0150288
755.400	0.0150074
755.478	0.0150114
755.557	0.0148706
755.635	0.0149776
755.713	0.0147711
755.791	0.0147003
755.869	0.0147057
755.947	0.0145216
756.025	0.0145490
756.103	0.0144469
756.182	0.0143462
756.260	0.0140845
756.338	0.0141397
756.416	0.0139674
756.494	0.0140131
756.572	0.0138695
756.650	0.0137289
756.728	0.0138483
756.807	0.0138036
756.885	0.0137698
756.963	0.0139511
757.041	0.0138692
757.119	0.0140251
757.197	0.0140982
757.275	0.0141610
757.353	0.0141703
757.432	0.0142224
757.510	0.0144415
757.588	0.0144726
757.666	0.0145740
757.744	0.0146894
757.822	0.0145815
757.900	0.0145550
757.978	0.0146667
758.057	0.0146335
758.135	0.0147884
758.213	0.0146801
758.291	0.0146859
758.369	0.0145551
758.447	0.0143662
758.525	0.0146592
758.603	0.0144638
758.682	0.0143851
758.760	0.0143887
758.838	0.0143799
758.916	0.0144611
758.994	0.0145010
759.072	0.0146138
759.150	0.0144215
759.228	0.0145711
759.307	0.0144975
759.385	0.0145061
759.463	0.0147973
759.541	0.0147246
759.619	0.0146857
759.697	0.0149554
759.775	0.0148505
759.853	0.0150201
759.932	0.0149277
760.010	0.0148463
760.088	0.0149673
760.166	0.0151305
760.244	0.0150317
760.322	0.0149412
760.400	0.0150864
760.478	0.0149458
760.557	0.0149662
760.635	0.0148730
760.713	0.0149757
760.791	0.0149255
760.869	0.0149636
760.947	0.0148270
761.025	0.0149409
761.103	0.0148573
761.182	0.0148350
761.260	0.0147528
761.338	0.0146944
761.416	0.0149591
761.494	0.0148854
761.572	0.0148699
761.650	0.0148221
761.728	0.0149034
761.807	0.0148408
761.885	0.0149413
761.963	0.0147291
762.041	0.0149266
762.119	0.0149578
762.197	0.0148161
762.275	0.0148986
762.353	0.0147668
762.432	0.0145287
762.510	0.0146482
762.588	0.0146497
762.666	0.0143365
762.744	0.0143358
762.822	0.0140918
762.900	0.0141226
762.978	0.0140269
763.057	0.0139183
763.135	0.0135592
763.213	0.0137667
763.291	0.0135743
763.369	0.0134822
763.447	0.0134850
763.525	0.0134203
763.603	0.0137698
763.682	0.0136491
763.760	0.0135960
763.838	0.0137807
763.916	0.0138723
763.994	0.0138451
764.072	0.0139572
764.150	0.0140131
764.228	0.0140375
764.307	0.0142845
764.385	0.0141819
764.463	0.0143306
764.541	0.0144512
764.619	0.0144392
764.697	0.0144624
764.775	0.0145377
764.853	0.0146146
764.932	0.0145821
765.010	0.0145391
765.088	0.0145896
765.166	0.0145089
765.244	0.0145723
765.322	0.0145979
765.400	0.0144705
765.478	0.0145605
765.557	0.0146309
765.635	0.0145206
765.713	0.0148402
765.791	0.0147517
765.869	0.0146806
765.947	0.0146169
766.025	0.0145784
766.103	0.0147838
766.182	0.0148330
766.260	0.0148351
766.338	0.0148840
766.416	0.0149521
766.494	0.0148805
766.572	0.0148747
766.650	0.0150323
766.728	0.0151957
766.807	0.0150423
766.885	0.0150203
766.963	0.0151023
767.041	0.0149529
767.119	0.0149681
767.197	0.0149824
767.275	0.0149046
767.353	0.0149095
767.432	0.0147923
767.510	0.0149557
767.588	0.0148551
767.666	0.0148120
767.744	0.0146732
767.822	0.0148331
767.900	0.0147968
767.978	0.0149754
768.057	0.0148314
768.135	0.0148781
768.213	0.0148577
768.291	0.0147098
768.369	0.0148174
768.447	0.0148191
768.525	0.0148316
768.603	0.0148820
768.682	0.0147958
768.760	0.0146693
768.838	0.0148450
768.916	0.0148102
768.994	0.0146394
769.072	0.0146010
769.150	0.0146040
769.228	0.0146535
769.307	0.0143984
769.385	0.0145091
769.463	0.0143582
769.541	0.0142411
769.619	0.0141649
769.697	0.0140433
769.775	0.0139275
769.853	0.0139300
769.932	0.0137720
770.010	0.0137686
770.088	0.0137849
770.166	0.0137605
770.244	0.0136973
770.322	0.0137939
770.400	0.0138010
770.478	0.0139701
770.557	0.0140450
770.635	0.0139292
770.713	0.0140731
770.791	0.0142440
770.869	0.0143212
770.947	0.0143003
771.025	0.0142773
771.103	0.0143822
771.182	0.0144129
771.260	0.0143732
771.338	0.0146118
771.416	0.0145331
771.494	0.0145772
771.572	0.0144762
771.650	0.0146658
771.728	0.0146923
771.807	0.0146725
771.885	0.0146724
771.963	0.0144964
772.041	0.0145947
772.119	0.0145719
772.197	0.0145567
772.275	0.0144816
772.353	0.0145781
772.432	0.0143629
772.510	0.0143787
772.588	0.0144827
772.666	0.0142797
772.744	0.0143980
772.822	0.0144354
772.900	0.0144179
772.978	0.0145569
773.057	0.0144954
773.135	0.0145940
773.213	0.0146786
773.291	0.0147813
773.369	0.0147161
773.447	0.0148012
773.525	0.0147660
773.603	0.0148579
773.682	0.0150255
773.760	0.0149716
773.838	0.0149998
773.916	0.0150726
773.994	0.0150105
774.072	0.0150353
774.150	0.0151381
774.228	0.0150844
774.307	0.0150178
774.385	0.0148516
774.463	0.0148302
774.541	0.0149997
774.619	0.0148820
774.697	0.0149307
774.775	0.0147689
774.853	0.0148477
774.932	0.0149149
775.010	0.0146741
775.088	0.0146304
775.166	0.0147367
775.244	0.0148950
775.322	0.0146297
775.400	0.0148173
775.478	0.0148042
775.557	0.0148073
775.635	0.0148222
775.713	0.0148000
775.791	0.0148611
775.869	0.0149100
775.947	0.0148313
776.025	0.0147682
776.103	0.0148465
776.182	0.0146244
776.260	0.0148289
776.338	0.0146796
776.416	0.0145133
776.494	0.0144543
776.572	0.0144147
776.650	0.0143015
776.728	0.0142509
776.807	0.0141496
776.885	0.0139135
776.963	0.0138829
777.041	0.0139888
777.119	0.0139823
777.197	0.0137888
777.275	0.0139493
777.353	0.0140295
777.432	0.0139326
777.510	0.0138872
777.588	0.0140546
777.666	0.0140555
777.744	0.0141225
777.822	0.0141603
777.900	0.0142805
777.978	0.0140450
778.057	0.0143051
778.135	0.0143045
778.213	0.0144463
778.291	0.0143949
778.369	0.0144158
778.447	0.0144960
778.525	0.0146255
778.603	0.0145628
778.682	0.0147969
778.760	0.0148694
778.838	0.0148392
778.916	0.0148447
778.994	0.0148702
779.072	0.0149632
779.150	0.0149767
779.228	0.0149898
779.307	0.0152124
779.385	0.0152593
779.463	0.0152617
779.541	0.0152787
779.619	0.0152969
779.697	0.0153834
779.775	0.0154076
779.853	0.0154871
779.932	0.0154946
780.010	0.0154594
780.088	0.0152423
780.166	0.0151887
780.244	0.0152103
780.322	0.0151814
780.400	0.0151480
780.478	0.0150706
780.557	0.0149542
780.635	0.0148028
780.713	0.0148169
780.791	0.0147066
780.869	0.0146590
780.947	0.0144489
781.025	0.0144244
781.103	0.0143678
781.182	0.0142533
781.260	0.0141798
781.338	0.0141476
781.416	0.0139696
781.494	0.0140844
781.572	0.0142258
781.650	0.0141309
781.728	0.0140521
781.807	0.0142288
781.885	0.0141558
781.963	0.0140843
782.041	0.0141948
782.119	0.0144791
782.197	0.0144262
782.275	0.0144870
782.353	0.0145734
782.432	0.0147504
782.510	0.0149704
782.588	0.0148697
782.666	0.0151105
782.744	0.0152090
782.822	0.0151760
782.900	0.0151543
782.978	0.0152818
783.057	0.0154676
783.135	0.0152868
783.213	0.0153179
783.291	0.0153836
783.369	0.0152271
783.447	0.0150211
783.525	0.0150047
783.603	0.0148737
783.682	0.0147422
783.760	0.0146681
783.838	0.0144566
783.916	0.0143946
783.994	0.0144647
784.072	0.0144354
784.150	0.0142121
784.228	0.0141409
784.307	0.0142360
784.385	0.0142034
784.463	0.0142557
784.541	0.0141589
784.619	0.0139809
784.697	0.0140848
784.775	0.0142838
784.853	0.0141313
784.932	0.0139995
785.010	0.0139576
785.088	0.0140276
785.166	0.0140767
785.244	0.0140970
785.322	0.0139816
785.400	0.0139180
785.478	0.0140433
785.557	0.0140122
785.635	0.0140009
785.713	0.0140067
785.791	0.0140234
785.869	0.0140824
785.947	0.0141410
786.025	0.0141705
786.103	0.0140471
786.182	0.0141211
786.260	0.0142902
786.338	0.0142311
786.416	0.0143755
786.494	0.0143310
786.572	0.0144151
786.650	0.0146116
786.728	0.0145331
786.807	0.0145872
786.885	0.0147474
786.963	0.0148185
787.041	0.0149288
787.119	0.0149719
787.197	0.0150104
787.275	0.0148776
787.353	0.0149877
787.432	0.0150613
787.510	0.0151003
787.588	0.0150142
787.666	0.0150407
787.744	0.0151728
787.822	0.0152453
787.900	0.0151183
787.978	0.0152760
788.057	0.0151891
788.135	0.0151930
788.213	0.0151073
788.291	0.0150391
788.369	0.0149031
788.447	0.0149824
788.525	0.0149912
788.603	0.0149083
788.682	0.0147550
788.760	0.0145902
788.838	0.0146110
788.916	0.0144715
788.994	0.0144101
789.072	0.0142685
789.150	0.0140578
789.228	0.0140792
789.307	0.0142229
789.385	0.0140414
789.463	0.0140109
789.541	0.0139554
789.619	0.0139951
789.697	0.0140283
789.775	0.0140240
789.853	0.0140863
789.932	0.0141100
790.010	0.0140748
790.088	0.0141876
790.166	0.0142139
790.244	0.0143457
790.322	0.0143469
790.400	0.0142429
790.478	0.0144167
790.557	0.0143967
790.635	0.0144495
790.713	0.0142982
790.791	0.0144980
790.869	0.0146235
790.947	0.0145926
791.025	0.0145869
791.103	0.0145611
791.182	0.0145246
791.260	0.0146163
791.338	0.0146164
791.416	0.0146268
791.494	0.0147181
791.572	0.0146617
791.650	0.0146283
791.728	0.0146017
791.807	0.0147653
791.885	0.0146767
791.963	0.0146664
792.041	0.0146063
792.119	0.0146542
792.197	0.0145621
792.275	0.0145651
792.353	0.0147121
792.432	0.0146056
792.510	0.0146220
792.588	0.0146214
792.666	0.0145494
792.744	0.0147310
792.822	0.0148024
792.900	0.0144960
792.978	0.0145224
793.057	0.0145920
793.135	0.0145859
793.213	0.0143593
793.291	0.0145964
793.369	0.0144645
793.447	0.0143409
793.525	0.0144655
793.603	0.0143997
793.682	0.0143878
793.760	0.0143106
793.838	0.0143145
793.916	0.0143372
793.994	0.0143967
794.072	0.0144328
794.150	0.0143715
794.228	0.0142830
794.307	0.0143382
794.385	0.0143871
794.463	0.0144026
794.541	0.0144952
794.619	0.0146172
794.697	0.0146663
794.775	0.0145656
794.853	0.0146539
794.932	0.0147099
795.010	0.0149007
795.088	0.0147361
795.166	0.0147794
795.244	0.0146750
795.322	0.0147444
795.400	0.0147224
795.478	0.0146845
795.557	0.0146853
795.635	0.0146748
795.713	0.0147533
795.791	0.0147443
795.869	0.0146219
795.947	0.0146497
796.025	0.0146086
796.103	0.0145799
796.182	0.0146916
796.260	0.0148643
796.338	0.0146590
796.416	0.0146384
796.494	0.0146578
796.572	0.0146215
796.650	0.0144951
796.728	0.0144482
796.807	0.0144687
796.885	0.0146368
796.963	0.0144974
797.041	0.0144692
797.119	0.0144526
797.197	0.0143233
797.275	0.0144396
797.353	0.0143423
797.432	0.0144283
797.510	0.0143655
797.588	0.0144438
797.666	0.0144192
797.744	0.0144729
797.822	0.0145270
797.900	0.0144643
797.978	0.0145341
798.057	0.0144231
798.135	0.0142603
798.213	0.0144364
798.291	0.0144996
798.369	0.0145575
798.447	0.0146106
798.525	0.0144472
798.603	0.0145957
798.682	0.0145690
798.760	0.0147002
798.838	0.0146022
798.916	0.0146860
798.994	0.0146317
799.072	0.0147915
799.150	0.0146588
799.228	0.0146767
799.307	0.0147604
799.385	0.0147616
799.463	0.0146049
799.541	0.0145959
799.619	0.0146700
799.697	0.0145791
799.775	0.0146671
799.853	0.0146375
799.932	0.0146970
800.010	0.0147202
800.088	0.0144418
800.166	0.0146399
800.244	0.0146264
800.322	0.0146011
800.400	0.0144228
800.478	0.0146034
800.557	0.0146196
800.635	0.0145638
800.713	0.0146391
800.791	0.0145990
800.869	0.0146028
800.947	0.0147374
801.025	0.0147504
801.103	0.0146119
801.182	0.0146999
801.260	0.0146739
801.338	0.0147587
801.416	0.0147654
801.494	0.0148125
801.572	0.0147311
801.650	0.0147713
801.728	0.0146696
801.807	0.0146362
801.885	0.0145383
801.963	0.0145384
802.041	0.0144221
802.119	0.0143236
802.197	0.0144659
802.275	0.0144494
802.353	0.0143877
802.432	0.0142388
802.510	0.0144595
802.588	0.0142522
802.666	0.0143740
802.744	0.0144229
802.822	0.0146111
802.900	0.0146812
802.978	0.0145776
803.057	0.0146832
803.135	0.0149055
803.213	0.0150572
803.291	0.0149860
803.369	0.0150671
803.447	0.0152149
803.525	0.0152539
803.603	0.0153494
803.682	0.0153010
803.760	0.0151783
803.838	0.0152942
803.916	0.0152612
803.994	0.0151424
804.072	0.0151263
804.150	0.0151382
804.228	0.0152254
804.307	0.0148917
804.385	0.0151672
804.463	0.0151033
804.541	0.0149410
804.619	0.0148814
804.697	0.0149262
804.775	0.0148431
804.853	0.0146952
804.932	0.0146341
805.010	0.0145668
805.088	0.0145618
805.166	0.0145992
805.244	0.0144576
805.322	0.0145045
805.400	0.0143176
805.478	0.0143278
805.557	0.0144510
805.635	0.0144575
805.713	0.0145126
805.791	0.0144473
805.869	0.0143655
805.947	0.0141666
806.025	0.0143238
806.103	0.0142538
806.182	0.0141957
806.260	0.0141354
806.338	0.0142614
806.416	0.0141701
806.494	0.0141585
806.572	0.0139806
806.650	0.0138859
806.728	0.0140981
806.807	0.0139635
806.885	0.0139294
806.963	0.0139370
807.041	0.0139964
807.119	0.0139780
807.197	0.0139350
807.275	0.0141219
807.353	0.0140506
807.432	0.0140838
807.510	0.0141257
807.588	0.0142140
807.666	0.0141303
807.744	0.0143981
807.822	0.0142830
807.900	0.0144946
807.978	0.0144467
808.057	0.0144985
808.135	0.0144785
808.213	0.0147172
808.291	0.0147256
808.369	0.0146468
808.447	0.0146732
808.525	0.0146758
808.603	0.0148331
808.682	0.0150368
808.760	0.0150183
808.838	0.0150195
808.916	0.0151152
808.994	0.0150845
809.072	0.0152000
809.150	0.0152299
809.228	0.0152636
809.307	0.0152084
809.385	0.0153326
809.463	0.0153198
809.541	0.0152475
809.619	0.0153682
809.697	0.0152418
809.775	0.0150839
809.853	0.0149535
809.932	0.0149262
810.010	0.0148563
810.088	0.0148099
810.166	0.0146682
810.244	0.0146653
810.322	0.0145428
810.400	0.0144797
810.478	0.0145016
810.557	0.0144773
810.635	0.0143310
810.713	0.0142414
810.791	0.0141872
810.869	0.0142347
810.947	0.0142296
811.025	0.0141031
811.103	0.0142284
811.182	0.0141824
811.260	0.0140738
811.338	0.0143769
811.416	0.0143590
811.494	0.0142419
811.572	0.0143205
811.650	0.0143324
811.728	0.0144555
811.807	0.0144579
811.885	0.0143205
811.963	0.0145052
812.041	0.0144675
812.119	0.0145083
812.197	0.0145606
812.275	0.0146294
812.353	0.0144426
812.432	0.0145723
812.510	0.0144829
812.588	0.0144358
812.666	0.0144485
812.744	0.0143704
812.822	0.0142461
812.900	0.0143740
812.978	0.0142853
813.057	0.0141946
813.135	0.0140690
813.213	0.0141068
813.291	0.0141962
813.369	0.0140911
813.447	0.0140279
813.525	0.0139956
813.603	0.0140148
813.682	0.0139773
813.760	0.0139779
813.838	0.0140232
813.916	0.0141544
813.994	0.0143735
814.072	0.0143495
814.150	0.0143096
814.228	0.0145055
814.307	0.0145937
814.385	0.0145878
814.463	0.0146964
814.541	0.0147454
814.619	0.0148594
814.697	0.0149398
814.775	0.0149738
814.853	0.0149829
814.932	0.0150555
815.010	0.0149757
815.088	0.0151012
815.166	0.0150914
815.244	0.0150397
815.322	0.0150029
815.400	0.0150452
815.478	0.0151375
815.557	0.0150870
815.635	0.0150247
815.713	0.0148586
815.791	0.0149977
815.869	0.0149661
815.947	0.0148582
816.025	0.0148956
816.103	0.0147816
816.182	0.0147606
816.260	0.0147279
816.338	0.0148190
816.416	0.0146972
816.494	0.0147887
816.572	0.0147332
816.650	0.0147121
816.728	0.0147350
816.807	0.0146191
816.885	0.0144871
816.963	0.0146453
817.041	0.0146491
817.119	0.0145715
817.197	0.0146040
817.275	0.0145840
817.353	0.0146285
817.432	0.0146345
817.510	0.0146217
817.588	0.0145444
817.666	0.0145117
817.744	0.0145033
817.822	0.0146821
817.900	0.0146264
817.978	0.0146638
818.057	0.0146120
818.135	0.0146265
818.213	0.0145695
818.291	0.0144447
818.369	0.0145742
818.447	0.0145230
818.525	0.0143081
818.603	0.0144383
818.682	0.0144527
818.760	0.0144253
818.838	0.0142720
818.916	0.0143515
818.994	0.0143126
819.072	0.0142542
819.150	0.0144241
819.228	0.0143538
819.307	0.0142022
819.385	0.0141689
819.463	0.0141558
819.541	0.0141953
819.619	0.0140979
819.697	0.0142046
819.775	0.0142505
819.853	0.0142484
819.932	0.0143432
820.010	0.0143233
820.088	0.0143864
820.166	0.0144711
820.244	0.0144458
820.322	0.0145959
820.400	0.0147426
820.478	0.0146561
820.557	0.0146478
820.635	0.0147095
820.713	0.0150303
820.791	0.0152143
820.869	0.0151729
820.947	0.0153253
821.025	0.0151740
821.103	0.0151035
821.182	0.0151597
821.260	0.0152644
821.338	0.0152226
821.416	0.0152126
821.494	0.0151778
821.572	0.0150221
821.650	0.0149571
821.728	0.0149075
821.807	0.0149702
821.885	0.0149558
821.963	0.0148391
822.041	0.0147192
822.119	0.0146346
822.197	0.0147526
822.275	0.0148200
822.353	0.0146693
822.432	0.0147327
822.510	0.0148029
822.588	0.0144629
822.666	0.0145921
822.744	0.0148016
822.822	0.0146794
822.900	0.0145584
822.978	0.0145766
823.057	0.0146233
823.135	0.0144786
823.213	0.0144275
823.291	0.0143373
823.369	0.0144450
823.447	0.0143616
823.525	0.0143698
823.603	0.0144730
823.682	0.0142661
823.760	0.0142913
823.838	0.0143547
823.916	0.0145176
823.994	0.0145260
824.072	0.0144279
824.150	0.0145313
824.228	0.0145606
824.307	0.0147006
824.385	0.0145704
824.463	0.0146178
824.541	0.0145605
824.619	0.0145721
824.697	0.0147315
824.775	0.0148344
824.853	0.0147878
824.932	0.0150512
825.010	0.0149085
825.088	0.0149229
825.166	0.0148301
825.244	0.0149809
825.322	0.0148489
825.400	0.0149986
825.478	0.0149487
825.557	0.0149562
825.635	0.0149706
825.713	0.0148675
825.791	0.0148906
825.869	0.0148293
825.947	0.0148356
826.025	0.0148024
826.103	0.0147449
826.182	0.0146600
826.260	0.0146848
826.338	0.0145367
826.416	0.0145092
826.494	0.0143282
826.572	0.0142760
826.650	0.0142032
826.728	0.0142741
826.807	0.0141425
826.885	0.0141773
826.963	0.0142247
827.041	0.0142464
827.119	0.0141793
827.197	0.0141511
827.275	0.0141188
827.353	0.0142067
827.432	0.0141859
827.510	0.0144044
827.588	0.0141710
827.666	0.0144612
827.744	0.0145095
827.822	0.0144704
827.900	0.0143821
827.978	0.0145245
828.057	0.0144492
828.135	0.0145231
828.213	0.0145960
828.291	0.0145325
828.369	0.0146587
828.447	0.0147137
828.525	0.0146174
828.603	0.0147996
828.682	0.0147736
828.760	0.0146099
828.838	0.0146484
828.916	0.0147348
828.994	0.0148560
829.072	0.0148202
829.150	0.0147731
829.228	0.0147267
829.307	0.0147384
829.385	0.0146690
829.463	0.0145036
829.541	0.0144548
829.619	0.0146069
829.697	0.0144594
829.775	0.0145673
829.853	0.0144926
829.932	0.0142052
830.010	0.0142852
830.088	0.0142062
830.166	0.0143506
830.244	0.0144228
830.322	0.0144051
830.400	0.0143060
830.478	0.0143157
830.557	0.0142754
830.635	0.0141325
830.713	0.0141615
830.791	0.0143368
830.869	0.0143945
830.947	0.0143130
831.025	0.0143234
831.103	0.0143449
831.182	0.0143625
831.260	0.0142471
831.338	0.0144761
831.416	0.0144550
831.494	0.0144556
831.572	0.0145377
831.650	0.0145200
831.728	0.0144712
831.807	0.0146584
831.885	0.0146248
831.963	0.0145605
832.041	0.0147527
832.119	0.0147675
832.197	0.0147524
832.275	0.0145565
832.353	0.0148090
832.432	0.0148443
832.510	0.0148376
832.588	0.0146797
832.666	0.0147841
832.744	0.0147897
832.822	0.0147527
832.900	0.0147939
832.978	0.0149161
833.057	0.0147592
833.135	0.0146131
833.213	0.0146268
833.291	0.0146511
833.369	0.0146947
833.447	0.0146860
833.525	0.0145880
833.603	0.0145104
833.682	0.0144718
833.760	0.0143784
833.838	0.0143937
833.916	0.0142213
833.994	0.0142971
834.072	0.0142696
834.150	0.0140559
834.228	0.0141125
834.307	0.0141804
834.385	0.0141248
834.463	0.0141640
834.541	0.0143201
834.619	0.0143467
834.697	0.0143135
834.775	0.0141814
834.853	0.0141634
834.932	0.0142843
835.010	0.0141872
835.088	0.0142201
835.166	0.0142368
835.244	0.0141908
835.322	0.0143134
835.400	0.0142887
835.478	0.0141529
835.557	0.0144292
835.635	0.0143077
835.713	0.0142171
835.791	0.0143255
835.869	0.0145554
835.947	0.0143619
836.025	0.0144077
836.103	0.0143846
836.182	0.0144447
836.260	0.0145244
836.338	0.0146218
836.416	0.0147358
836.494	0.0145850
836.572	0.0147823
836.650	0.0146324
836.728	0.0147587
836.807	0.0146999
836.885	0.0146924
836.963	0.0148046
837.041	0.0148451
837.119	0.0148170
837.197	0.0148633
837.275	0.0147626
837.353	0.0146587
837.432	0.0147520
837.510	0.0147917
837.588	0.0147128
837.666	0.0147444
837.744	0.0146915
837.822	0.0147331
837.900	0.0146802
837.978	0.0146735
838.057	0.0146504
838.135	0.0145052
838.213	0.0144384
838.291	0.0144592
838.369	0.0142446
838.447	0.0144315
838.525	0.0143249
838.603	0.0142995
838.682	0.0142327
838.760	0.0143229
838.838	0.0142189
838.916	0.0143050
838.994	0.0143370
839.072	0.0141943
839.150	0.0144107
839.228	0.0144238
839.307	0.0144815
839.385	0.0144238
839.463	0.0145900
839.541	0.0144131
839.619	0.0146846
839.697	0.0146383
839.775	0.0146297
839.853	0.0145818
839.932	0.0147388
840.010	0.0148129
840.088	0.0148617
840.166	0.0147859
840.244	0.0148418
840.322	0.0149641
840.400	0.0149632
840.478	0.0150052
840.557	0.0149733
840.635	0.0149635
840.713	0.0148258
840.791	0.0149772
840.869	0.0148753
840.947	0.0147443
841.025	0.0148802
841.103	0.0147748
841.182	0.0146026
841.260	0.0145950
841.338	0.0145599
841.416	0.0143976
841.494	0.0143462
841.572	0.0142277
841.650	0.0142902
841.728	0.0142426
841.807	0.0143173
841.885	0.0141772
841.963	0.0141625
842.041	0.0142006
842.119	0.0142155
842.197	0.0142162
842.275	0.0141558
842.353	0.0143117
842.432	0.0142840
842.510	0.0142541
842.588	0.0142094
842.666	0.0144243
842.744	0.0143659
842.822	0.0145144
842.900	0.0144280
842.978	0.0146019
843.057	0.0144344
843.135	0.0146297
843.213	0.0145853
843.291	0.0145824
843.369	0.0147227
843.447	0.0146455
843.525	0.0147183
843.603	0.0146963
843.682	0.0147210
843.760	0.0145860
843.838	0.0145622
843.916	0.0146686
843.994	0.0145825
844.072	0.0145495
844.150	0.0147688
844.228	0.0146040
844.307	0.0146663
844.385	0.0146608
844.463	0.0146658
844.541	0.0147533
844.619	0.0148431
844.697	0.0147795
844.775	0.0147796
844.853	0.0147407
844.932	0.0146526
845.010	0.0147646
845.088	0.0147745
845.166	0.0148855
845.244	0.0150313
845.322	0.0149178
845.400	0.0150656
845.478	0.0149242
845.557	0.0150245
845.635	0.0151364
845.713	0.0151578
845.791	0.0149897
845.869	0.0149886
845.947	0.0149810
846.025	0.0150188
846.103	0.0148309
846.182	0.0149012
846.260	0.0149789
846.338	0.0148435
846.416	0.0147426
846.494	0.0148669
846.572	0.0147791
846.650	0.0146323
846.728	0.0146543
846.807	0.0146735
846.885	0.0146167
846.963	0.0147242
847.041	0.0146440
847.119	0.0145927
847.197	0.0145905
847.275	0.0145569
847.353	0.0145286
847.432	0.0146215
847.510	0.0146078
847.588	0.0146169
847.666	0.0148295
847.744	0.0146167
847.822	0.0145718
847.900	0.0146629
847.978	0.0147469
848.057	0.0147621
848.135	0.0146037
848.213	0.0144872
848.291	0.0145716
848.369	0.0146893
848.447	0.0145282
848.525	0.0144260
848.603	0.0147135
848.682	0.0145500
848.760	0.0144929
848.838	0.0146524
848.916	0.0145581
848.994	0.0144447
849.072	0.0143705
849.150	0.0145678
849.228	0.0142526
849.307	0.0145004
849.385	0.0145675
849.463	0.0143449
849.541	0.0143741
849.619	0.0144976
849.697	0.0145084
849.775	0.0144118
849.853	0.0144450
849.932	0.0145010
850.010	0.0146220
850.088	0.0145269
850.166	0.0145496
850.244	0.0144811
850.322	0.0144845
850.400	0.0145858
850.478	0.0146752
850.557	0.0145634
850.635	0.0146996
850.713	0.0145541
850.791	0.0144946
850.869	0.0145692
850.947	0.0144530
851.025	0.0143584
851.103	0.0143513
851.182	0.0144526
851.260	0.0144789
851.338	0.0144347
851.416	0.0143248
851.494	0.0143954
851.572	0.0144806
851.650	0.0143352
851.728	0.0142957
851.807	0.0143304
851.885	0.0144060
851.963	0.0145311
852.041	0.0144994
852.119	0.0145221
852.197	0.0145229
852.275	0.0145141
852.353	0.0143579
852.432	0.0143858
852.510	0.0146223
852.588	0.0145518
852.666	0.0145625
852.744	0.0146495
852.822	0.0146062
852.900	0.0146082
852.978	0.0145174
853.057	0.0146034
853.135	0.0145650
853.213	0.0144547
853.291	0.0145325
853.369	0.0146024
853.447	0.0143912
853.525	0.0144986
853.603	0.0146211
853.682	0.0144756
853.760	0.0146408
853.838	0.0146023
853.916	0.0144524
853.994	0.0144434
854.072	0.0144689
854.150	0.0145071
854.228	0.0144434
854.307	0.0146053
854.385	0.0146015
854.463	0.0146791
854.541	0.0144280
854.619	0.0145584
854.697	0.0146729
854.775	0.0145420
854.853	0.0144737
854.932	0.0143621
855.010	0.0144916
855.088	0.0144891
855.166	0.0144551
855.244	0.0144811
855.322	0.0144432
855.400	0.0144154
855.478	0.0142320
855.557	0.0143978
855.635	0.0144872
855.713	0.0142834
855.791	0.0143545
855.869	0.0142884
855.947	0.0143671
856.025	0.0143307
856.103	0.0143314
856.182	0.0143707
856.260	0.0142816
856.338	0.0144411
856.416	0.0143726
856.494	0.0142652
856.572	0.0144494
856.650	0.0145071
856.728	0.0145619
856.807	0.0145150
856.885	0.0144315
856.963	0.0146315
857.041	0.0145240
857.119	0.0145914
857.197	0.0147805
857.275	0.0147064
857.353	0.0146989
857.432	0.0148152
857.510	0.0146774
857.588	0.0146409
857.666	0.0147125
857.744	0.0146934
857.822	0.0145582
857.900	0.0145037
857.978	0.0144739
858.057	0.0145646
858.135	0.0144193
858.213	0.0144947
858.291	0.0143288
858.369	0.0144679
858.447	0.0145060
858.525	0.0145760
858.603	0.0144652
858.682	0.0144775
858.760	0.0144910
858.838	0.0143302
858.916	0.0145065
858.994	0.0143205
859.072	0.0144307
859.150	0.0145143
859.228	0.0145089
859.307	0.0144394
859.385	0.0144661
859.463	0.0144542
859.541	0.0146693
859.619	0.0145586
859.697	0.0144004
859.775	0.0144904
859.853	0.0146628
859.932	0.0147246
860.010	0.0146672
860.088	0.0146375
860.166	0.0147289
860.244	0.0145966
860.322	0.0145796
860.400	0.0147722
860.478	0.0147364
860.557	0.0145739
860.635	0.0146629
860.713	0.0145748
860.791	0.0146776
860.869	0.0146350
860.947	0.0147196
861.025	0.0146800
861.103	0.0146703
861.182	0.0146773
861.260	0.0146788
861.338	0.0145431
861.416	0.0145896
861.494	0.0147191
861.572	0.0147794
861.650	0.0145537
861.728	0.0148137
861.807	0.0144424
861.885	0.0145609
861.963	0.0147227
862.041	0.0146716
862.119	0.0145098
862.197	0.0144883
862.275	0.0146683
862.353	0.0145491
862.432	0.0144997
862.510	0.0144836
862.588	0.0144971
862.666	0.0142863
862.744	0.0143501
862.822	0.0143362
862.900	0.0143044
862.978	0.0143946
863.057	0.0144646
863.135	0.0144240
863.213	0.0144949
863.291	0.0143991
863.369	0.0144313
863.447	0.0142932
863.525	0.0143722
863.603	0.0144091
863.682	0.0145091
863.760	0.0144482
863.838	0.0144479
863.916	0.0144177
863.994	0.0143262
864.072	0.0144178
864.150	0.0143356
864.228	0.0142361
864.307	0.0143637
864.385	0.0142315
864.463	0.0145177
864.541	0.0142657
864.619	0.0141439
864.697	0.0144173
864.775	0.0144697
864.853	0.0144220
864.932	0.0143446
865.010	0.0143492
865.088	0.0144663
865.166	0.0145965
865.244	0.0144977
865.322	0.0145196
865.400	0.0144339
865.478	0.0146042
865.557	0.0146350
865.635	0.0146220
865.713	0.0146867
865.791	0.0147190
865.869	0.0147403
865.947	0.0146291
866.025	0.0146734
866.103	0.0146685
866.182	0.0146401
866.260	0.0146690
866.338	0.0145993
866.416	0.0145930
866.494	0.0147205
866.572	0.0146783
866.650	0.0146426
866.728	0.0146702
866.807	0.0146731
866.885	0.0146371
866.963	0.0146788
867.041	0.0148228
867.119	0.0146660
867.197	0.0147439
867.275	0.0145066
867.353	0.0145167
867.432	0.0147713
867.510	0.0147809
867.588	0.0147690
867.666	0.0148061
867.744	0.0148624
867.822	0.0148166
867.900	0.0148344
867.978	0.0148109
868.057	0.0149303
868.135	0.0149618
868.213	0.0148029
868.291	0.0148846
868.369	0.0148873
868.447	0.0148911
868.525	0.0150294
868.603	0.0149592
868.682	0.0148020
868.760	0.0149160
868.838	0.0146773
868.916	0.0147586
868.994	0.0147492
869.072	0.0147124
869.150	0.0146729
869.228	0.0146346
869.307	0.0145253
869.385	0.0145925
869.463	0.0145906
869.541	0.0145381
869.619	0.0145196
869.697	0.0144528
869.775	0.0145446
869.853	0.0144450
869.932	0.0144016
870.010	0.0143739
870.088	0.0143908
870.166	0.0144007
870.244	0.0144164
870.322	0.0144094
870.400	0.0144032
870.478	0.0143011
870.557	0.0142410
870.635	0.0143597
870.713	0.0143826
870.791	0.0143129
870.869	0.0142029
870.947	0.0144705
871.025	0.0144616
871.103	0.0145002
871.182	0.0145557
871.260	0.0145600
871.338	0.0146793
871.416	0.0146320
871.494	0.0146732
871.572	0.0147051
871.650	0.0146104
871.728	0.0147016
871.807	0.0146331
871.885	0.0147123
871.963	0.0146328
872.041	0.0146194
872.119	0.0146124
872.197	0.0146529
872.275	0.0147053
872.353	0.0146205
872.432	0.0145017
872.510	0.0145197
872.588	0.0145067
872.666	0.0144595
872.744	0.0143417
872.822	0.0144077
872.900	0.0143406
872.978	0.0144228
873.057	0.0144151
873.135	0.0144828
873.213	0.0144167
873.291	0.0143678
873.369	0.0145332
873.447	0.0145929
873.525	0.0146826
873.603	0.0145361
873.682	0.0147388
873.760	0.0147795
873.838	0.0146893
873.916	0.0147907
873.994	0.0148907
874.072	0.0147600
874.150	0.0147987
874.228	0.0149047
874.307	0.0150662
874.385	0.0150386
874.463	0.0151516
874.541	0.0151913
874.619	0.0153073
874.697	0.0152437
874.775	0.0150680
874.853	0.0150264
874.932	0.0150722
875.010	0.0149082
875.088	0.0148897
875.166	0.0147910
875.244	0.0147784
875.322	0.0146326
875.400	0.0144860
875.478	0.0144821
875.557	0.0144725
875.635	0.0144738
875.713	0.0143634
875.791	0.0141444
875.869	0.0141573
875.947	0.0143595
876.025	0.0140910
876.103	0.0141361
876.182	0.0140993
876.260	0.0142878
876.338	0.0143285
876.416	0.0143114
876.494	0.0143271
876.572	0.0143758
876.650	0.0142216
876.728	0.0143195
876.807	0.0142830
876.885	0.0142760
876.963	0.0143096
877.041	0.0143391
877.119	0.0143755
877.197	0.0143957
877.275	0.0144714
877.353	0.0145721
877.432	0.0146432
877.510	0.0145644
877.588	0.0146076
877.666	0.0145844
877.744	0.0147199
877.822	0.0148386
877.900	0.0148929
877.978	0.0149544
878.057	0.0149444
878.135	0.0148233
878.213	0.0149512
878.291	0.0148493
878.369	0.0147559
878.447	0.0148333
878.525	0.0147752
878.603	0.0149096
878.682	0.0148899
878.760	0.0149084
878.838	0.0149358
878.916	0.0148633
878.994	0.0147566
879.072	0.0147734
879.150	0.0147475
879.228	0.0148033
879.307	0.0148972
879.385	0.0148396
879.463	0.0147038
879.541	0.0146820
879.619	0.0147067
879.697	0.0146185
879.775	0.0144842
879.853	0.0145587
879.932	0.0144951
880.010	0.0144473
880.088	0.0143111
880.166	0.0144840
880.244	0.0144476
880.322	0.0145363
880.400	0.0145760
880.478	0.0146393
880.557	0.0145344
880.635	0.0146150
880.713	0.0146117
880.791	0.0147441
880.869	0.0146080
880.947	0.0146813
881.025	0.0147080
881.103	0.0146545
881.182	0.0145470
881.260	0.0145460
881.338	0.0146890
881.416	0.0145478
881.494	0.0145163
881.572	0.0146003
881.650	0.0147014
881.728	0.0146901
881.807	0.0147814
881.885	0.0148609
881.963	0.0149134
882.041	0.0149181
882.119	0.0150627
882.197	0.0150210
882.275	0.0150648
882.353	0.0150336
882.432	0.0150113
882.510	0.0149434
882.588	0.0148499
882.666	0.0149689
882.744	0.0149121
882.822	0.0147913
882.900	0.0146979
882.978	0.0146874
883.057	0.0146171
883.135	0.0145782
883.213	0.0145532
883.291	0.0145175
883.369	0.0144098
883.447	0.0143032
883.525	0.0143756
883.603	0.0142834
883.682	0.0142928
883.760	0.0141198
883.838	0.0142324
883.916	0.0141695
883.994	0.0142218
884.072	0.0141404
884.150	0.0141767
884.228	0.0141669
884.307	0.0140643
884.385	0.0142819
884.463	0.0143296
884.541	0.0143149
884.619	0.0144411
884.697	0.0143751
884.775	0.0144644
884.853	0.0146246
884.932	0.0145997
885.010	0.0147604
885.088	0.0147580
885.166	0.0149046
885.244	0.0148309
885.322	0.0148283
885.400	0.0148951
885.478	0.0150503
885.557	0.0149202
885.635	0.0149583
885.713	0.0149771
885.791	0.0149055
885.869	0.0149146
885.947	0.0148130
886.025	0.0149183
886.103	0.0146898
886.182	0.0147438
886.260	0.0147505
886.338	0.0145459
886.416	0.0145087
886.494	0.0145316
886.572	0.0145509
886.650	0.0144386
886.728	0.0143369
886.807	0.0144991
886.885	0.0143652
886.963	0.0143527
887.041	0.0142260
887.119	0.0141371
887.197	0.0142051
887.275	0.0142903
887.353	0.0141940
887.432	0.0142461
887.510	0.0143517
887.588	0.0142687
887.666	0.0142695
887.744	0.0142899
887.822	0.0144636
887.900	0.0145011
887.978	0.0146247
888.057	0.0146419
888.135	0.0145107
888.213	0.0146122
888.291	0.0145596
888.369	0.0145513
888.447	0.0145307
888.525	0.0145034
888.603	0.0145298
888.682	0.0143138
888.760	0.0144452
888.838	0.0144330
888.916	0.0144317
888.994	0.0145419
889.072	0.0145065
889.150	0.0144912
889.228	0.0146542
889.307	0.0145653
889.385	0.0144734
889.463	0.0144383
889.541	0.0146867
889.619	0.0146271
889.697	0.0145307
889.775	0.0146700
889.853	0.0145022
889.932	0.0147021
890.010	0.0147429
890.088	0.0146754
890.166	0.0146593
890.244	0.0145067
890.322	0.0145534
890.400	0.0145052
890.478	0.0146952
890.557	0.0146833
890.635	0.0145963
890.713	0.0145486
890.791	0.0145427
890.869	0.0145150
890.947	0.0146750
891.025	0.0146855
891.103	0.0145278
891.182	0.0144839
891.260	0.0143886
891.338	0.0143938
891.416	0.0144958
891.494	0.0144096
891.572	0.0142502
891.650	0.0141683
891.728	0.0143487
891.807	0.0143881
891.885	0.0142516
891.963	0.0143375
892.041	0.0142361
892.119	0.0144930
892.197	0.0143240
892.275	0.0140488
892.353	0.0141676
892.432	0.0141989
892.510	0.0142344
892.588	0.0141895
892.666	0.0143201
892.744	0.0142867
892.822	0.0143659
892.900	0.0143851
892.978	0.0143999
893.057	0.0142436
893.135	0.0144843
893.213	0.0145525
893.291	0.0145549
893.369	0.0145689
893.447	0.0145760
893.525	0.0147334
893.603	0.0148122
893.682	0.0148097
893.760	0.0148338
893.838	0.0147442
893.916	0.0149866
893.994	0.0149059
894.072	0.0148224
894.150	0.0149303
894.228	0.0148860
894.307	0.0149272
894.385	0.0150684
894.463	0.0148627
894.541	0.0148200
894.619	0.0147494
894.697	0.0148325
894.775	0.0148582
894.853	0.0149068
894.932	0.0148769
895.010	0.0147955
895.088	0.0146095
895.166	0.0146394
895.244	0.0147239
895.322	0.0147002
895.400	0.0146954
895.478	0.0146771
895.557	0.0146131
895.635	0.0145312
895.713	0.0146176
895.791	0.0146465
895.869	0.0145932
895.947	0.0147911
896.025	0.0147060
896.103	0.0146541
896.182	0.0148477
896.260	0.0147280
896.338	0.0148208
896.416	0.0146895
896.494	0.0147696
896.572	0.0148322
896.650	0.0148289
896.728	0.0147462
896.807	0.0148705
896.885	0.0148108
896.963	0.0147504
897.041	0.0147382
897.119	0.0147980
897.197	0.0149090
897.275	0.0146445
897.353	0.0145834
897.432	0.0145863
897.510	0.0146695
897.588	0.0146480
897.666	0.0145472
897.744	0.0146877
897.822	0.0144581
897.900	0.0143721
897.978	0.0144807
898.057	0.0144888
898.135	0.0145561
898.213	0.0145712
898.291	0.0145499
898.369	0.0146175
898.447	0.0147459
898.525	0.0146030
898.603	0.0143832
898.682	0.0145464
898.760	0.0146136
898.838	0.0145824
898.916	0.0145583
898.994	0.0146413
899.072	0.0147347
899.150	0.0145310
899.228	0.0144896
899.307	0.0145789
899.385	0.0146521
899.463	0.0146713
899.541	0.0146541
899.619	0.0146808
899.697	0.0147239
899.775	0.0147829
899.853	0.0146602
899.932	0.0146941
900.010	0.0147202
900.088	0.0147188
900.166	0.0147520
900.244	0.0148612
900.322	0.0148402
900.400	0.0147282
900.478	0.0148360
900.557	0.0148171
900.635	0.0148268
900.713	0.0147735
900.791	0.0146491
900.869	0.0147056
900.947	0.0148051
901.025	0.0146111
901.103	0.0146223
901.182	0.0147753
901.260	0.0147581
901.338	0.0144780
901.416	0.0145490
901.494	0.0147617
901.572	0.0147192
901.650	0.0146887
901.728	0.0146990
901.807	0.0147550
901.885	0.0147810
901.963	0.0145892
902.041	0.0146703
902.119	0.0148917
902.197	0.0146288
902.275	0.0146092
902.353	0.0146874
902.432	0.0147436
902.510	0.0146146
902.588	0.0145567
902.666	0.0146186
902.744	0.0146487
902.822	0.0146212
902.900	0.0146925
902.978	0.0146355
903.057	0.0146235
903.135	0.0147285
903.213	0.0145943
903.291	0.0145808
903.369	0.0147099
903.447	0.0146677
903.525	0.0148228
903.603	0.0146953
903.682	0.0147325
903.760	0.0148838
903.838	0.0147898
903.916	0.0146025
903.994	0.0147778
904.072	0.0147533
904.150	0.0146859
904.228	0.0146703
904.307	0.0147054
904.385	0.0147581
904.463	0.0146835
904.541	0.0146190
904.619	0.0146486
904.697	0.0146371
904.775	0.0146300
904.853	0.0147832
904.932	0.0147205
905.010	0.0146485
905.088	0.0146333
905.166	0.0146021
905.244	0.0146651
905.322	0.0147501
905.400	0.0147583
905.478	0.0146606
905.557	0.0148161
905.635	0.0147478
905.713	0.0148508
905.791	0.0147787
905.869	0.0147973
905.947	0.0147983
906.025	0.0149012
906.103	0.0148673
906.182	0.0147314
906.260	0.0147435
906.338	0.0148222
906.416	0.0148206
906.494	0.0146966
906.572	0.0147534
906.650	0.0146865
906.728	0.0146812
906.807	0.0146752
906.885	0.0146818
906.963	0.0146418
907.041	0.0147423
907.119	0.0145564
907.197	0.0147249
907.275	0.0147517
907.353	0.0147678
907.432	0.0145902
907.510	0.0146954
907.588	0.0146661
907.666	0.0145374
907.744	0.0146068
907.822	0.0145458
907.900	0.0144378
907.978	0.0144628
908.057	0.0144772
908.135	0.0143169
908.213	0.0144801
908.291	0.0144691
908.369	0.0142587
908.447	0.0145564
908.525	0.0144785
908.603	0.0142611
908.682	0.0144006
908.760	0.0142918
908.838	0.0143828
908.916	0.0145071
908.994	0.0144720
909.072	0.0145649
909.150	0.0145924
909.228	0.0146001
909.307	0.0145007
909.385	0.0145712
909.463	0.0144833
909.541	0.0144498
909.619	0.0144747
909.697	0.0145853
909.775	0.0146108
909.853	0.0145992
909.932	0.0144862
910.010	0.0144572
910.088	0.0145065
910.166	0.0146049
910.244	0.0145357
910.322	0.0145295
910.400	0.0144995
910.478	0.0145866
910.557	0.0145613
910.635	0.0145430
910.713	0.0146545
910.791	0.0146653
910.869	0.0146207
910.947	0.0146864
911.025	0.0146487
911.103	0.0145719
911.182	0.0145188
911.260	0.0147092
911.338	0.0146210
911.416	0.0146104
911.494	0.0145975
911.572	0.0147786
911.650	0.0146476
911.728	0.0147399
911.807	0.0146798
911.885	0.0146162
911.963	0.0146275
912.041	0.0146822
912.119	0.0146423
912.197	0.0145393
912.275	0.0145837
912.353	0.0146227
912.432	0.0145904
912.510	0.0144421
912.588	0.0145746
912.666	0.0144785
912.744	0.0144297
912.822	0.0145508
912.900	0.0144978
912.978	0.0144758
913.057	0.0144248
913.135	0.0144286
913.213	0.0143511
913.291	0.0143456
913.369	0.0143683
913.447	0.0143886
913.525	0.0141962
913.603	0.0141925
913.682	0.0143495
913.760	0.0142711
913.838	0.0142836
913.916	0.0143188
913.994	0.0142751
914.072	0.0140668
914.150	0.0143150
914.228	0.0143279
914.307	0.0142922
914.385	0.0141543
914.463	0.0142741
914.541	0.0142796
914.619	0.0143610
914.697	0.0142583
914.775	0.0143899
914.853	0.0144043
914.932	0.0143408
915.010	0.0143726
915.088	0.0144516
915.166	0.0144599
915.244	0.0144299
915.322	0.0145174
915.400	0.0146943
915.478	0.0145412
915.557	0.0146624
915.635	0.0145788
915.713	0.0147344
915.791	0.0147161
915.869	0.0146806
915.947	0.0147313
916.025	0.0147085
916.103	0.0145793
916.182	0.0147028
916.260	0.0146522
916.338	0.0146622
916.416	0.0144855
916.494	0.0146480
916.572	0.0146729
916.650	0.0145940
916.728	0.0144234
916.807	0.0145769
916.885	0.0145305
916.963	0.0144131
917.041	0.0145445
917.119	0.0145139
917.197	0.0144553
917.275	0.0142374
917.353	0.0143719
917.432	0.0143050
917.510	0.0141692
917.588	0.0145250
917.666	0.0143600
917.744	0.0144404
917.822	0.0145685
917.900	0.0142217
917.978	0.0143058
918.057	0.0144360
918.135	0.0143584
918.213	0.0144739
918.291	0.0144099
918.369	0.0144990
918.447	0.0144971
918.525	0.0143765
918.603	0.0142316
918.682	0.0143961
918.760	0.0144597
918.838	0.0145242
918.916	0.0144843
918.994	0.0144656
919.072	0.0144987
919.150	0.0146427
919.228	0.0145334
919.307	0.0144437
919.385	0.0144657
919.463	0.0146108
919.541	0.0145558
919.619	0.0146321
919.697	0.0144727
919.775	0.0144887
919.853	0.0145930
919.932	0.0146353
920.010	0.0145889
920.088	0.0144871
920.166	0.0144740
920.244	0.0145915
920.322	0.0144827
920.400	0.0145224
920.478	0.0144667
920.557	0.0144925
920.635	0.0145127
920.713	0.0145724
920.791	0.0146304
920.869	0.0147089
920.947	0.0145898
921.025	0.0146181
921.103	0.0148003
921.182	0.0146445
921.260	0.0147238
921.338	0.0147761
921.416	0.0146378
921.494	0.0147836
921.572	0.0147444
921.650	0.0146608
921.728	0.0146854
921.807	0.0148785
921.885	0.0148581
921.963	0.0146702
922.041	0.0146211
922.119	0.0147145
922.197	0.0146461
922.275	0.0146800
922.353	0.0147242
922.432	0.0146762
922.510	0.0146993
922.588	0.0145777
922.666	0.0145097
922.744	0.0144405
922.822	0.0144335
922.900	0.0144105
922.978	0.0145518
923.057	0.0144603
923.135	0.0142817
923.213	0.0143671
923.291	0.0143037
923.369	0.0144210
923.447	0.0143567
923.525	0.0144499
923.603	0.0144183
923.682	0.0145579
923.760	0.0146402
923.838	0.0144662
923.916	0.0145468
923.994	0.0146161
924.072	0.0147731
924.150	0.0148152
924.228	0.0147269
924.307	0.0147655
924.385	0.0147895
924.463	0.0148422
924.541	0.0148511
924.619	0.0149056
924.697	0.0148338
924.775	0.0147675
924.853	0.0146264
924.932	0.0147588
925.010	0.0147229
925.088	0.0148183
925.166	0.0148514
925.244	0.0146903
925.322	0.0146320
925.400	0.0147854
925.478	0.0147350
925.557	0.0146299
925.635	0.0146503
925.713	0.0144542
925.791	0.0145103
925.869	0.0147676
925.947	0.0147713
926.025	0.0146488
926.103	0.0146796
926.182	0.0144566
926.260	0.0145899
926.338	0.0144494
926.416	0.0146461
926.494	0.0146130
926.572	0.0145879
926.650	0.0146841
926.728	0.0145717
926.807	0.0146566
926.885	0.0146519
926.963	0.0145972
927.041	0.0147601
927.119	0.0146156
927.197	0.0147509
927.275	0.0145777
927.353	0.0147448
927.432	0.0145327
927.510	0.0146274
927.588	0.0147144
927.666	0.0147710
927.744	0.0148683
927.822	0.0146276
927.900	0.0148525
927.978	0.0148569
928.057	0.0146236
928.135	0.0146812
928.213	0.0148079
928.291	0.0148719
928.369	0.0148421
928.447	0.0145934
928.525	0.0147446
928.603	0.0145841
928.682	0.0146857
928.760	0.0146519
928.838	0.0148135
928.916	0.0145905
928.994	0.0147022
929.072	0.0146369
929.150	0.0146487
929.228	0.0147371
929.307	0.0146162
929.385	0.0146029
929.463	0.0146605
929.541	0.0146170
929.619	0.0145451
929.697	0.0147047
929.775	0.0145797
929.853	0.0146673
929.932	0.0147176
930.010	0.0145648
930.088	0.0145766
930.166	0.0143727
930.244	0.0144586
930.322	0.0144466
930.400	0.0144566
930.478	0.0144923
930.557	0.0144580
930.635	0.0144420
930.713	0.0143775
930.791	0.0143729
930.869	0.0143656
930.947	0.0144781
931.025	0.0145083
931.103	0.0145421
931.182	0.0143919
931.260	0.0143143
931.338	0.0144749
931.416	0.0144196
931.494	0.0142994
931.572	0.0144765
931.650	0.0143439
931.728	0.0145589
931.807	0.0145983
931.885	0.0144939
931.963	0.0144388
932.041	0.0145310
932.119	0.0146619
932.197	0.0146095
932.275	0.0145740
932.353	0.0146121
932.432	0.0146576
932.510	0.0147082
932.588	0.0146521
932.666	0.0148039
932.744	0.0148402
932.822	0.0146284
932.900	0.0146338
932.978	0.0146927
933.057	0.0148447
933.135	0.0148322
933.213	0.0146880
933.291	0.0147462
933.369	0.0147131
933.447	0.0147408
933.525	0.0147829
933.603	0.0148030
933.682	0.0147286
933.760	0.0147692
933.838	0.0147453
933.916	0.0147327
933.994	0.0146568
934.072	0.0145743
934.150	0.0147073
934.228	0.0145479
934.307	0.0146293
934.385	0.0144507
934.463	0.0145075
934.541	0.0145500
934.619	0.0144855
934.697	0.0144967
934.775	0.0144328
934.853	0.0144370
934.932	0.0145362
935.010	0.0145578
935.088	0.0144276
935.166	0.0145661
935.244	0.0144629
935.322	0.0145147
935.400	0.0144400
935.478	0.0143921
935.557	0.0146074
935.635	0.0143374
935.713	0.0145509
935.791	0.0144614
935.869	0.0145532
935.947	0.0145678
936.025	0.0144759
936.103	0.0145950
936.182	0.0144931
936.260	0.0143681
936.338	0.0145139
936.416	0.0146920
936.494	0.0145260
936.572	0.0146141
936.650	0.0145441
936.728	0.0144839
936.807	0.0145177
936.885	0.0145846
936.963	0.0146758
937.041	0.0145790
937.119	0.0145049
937.197	0.0145676
937.275	0.0144298
937.353	0.0144396
937.432	0.0144656
937.510	0.0144836
937.588	0.0143176
937.666	0.0145821
937.744	0.0143368
937.822	0.0144667
937.900	0.0145019
937.978	0.0145554
938.057	0.0144382
938.135	0.0143754
938.213	0.0145884
938.291	0.0146210
938.369	0.0145955
938.447	0.0146232
938.525	0.0146151
938.603	0.0145280
938.682	0.0145316
938.760	0.0146111
938.838	0.0143747
938.916	0.0145662
938.994	0.0146525
939.072	0.0144637
939.150	0.0144612
939.228	0.0144916
939.307	0.0143301
939.385	0.0144380
939.463	0.0143010
939.541	0.0143851
939.619	0.0142799
939.697	0.0143665
939.775	0.0142975
939.853	0.0144058
939.932	0.0144050
940.010	0.0142908
940.088	0.0142120
940.166	0.0142702
940.244	0.0144030
940.322	0.0143340
940.400	0.0143549
940.478	0.0142928
940.557	0.0144278
940.635	0.0145081
940.713	0.0144379
940.791	0.0145041
940.869	0.0145094
940.947	0.0146674
941.025	0.0146462
941.103	0.0145555
941.182	0.0146507
941.260	0.0147354
941.338	0.0147900
941.416	0.0147618
941.494	0.0146753
941.572	0.0148273
941.650	0.0148990
941.728	0.0149364
941.807	0.0148394
941.885	0.0149313
941.963	0.0150835
942.041	0.0150020
942.119	0.0148154
942.197	0.0147545
942.275	0.0148248
942.353	0.0148125
942.432	0.0146867
942.510	0.0147081
942.588	0.0146220
942.666	0.0146554
942.744	0.0146640
942.822	0.0146196
942.900	0.0146286
942.978	0.0146043
943.057	0.0146143
943.135	0.0146491
943.213	0.0147380
943.291	0.0144804
943.369	0.0145884
943.447	0.0145574
943.525	0.0144743
943.603	0.0145250
943.682	0.0145712
943.760	0.0144804
943.838	0.0144061
943.916	0.0144209
943.994	0.0143673
944.072	0.0142644
944.150	0.0142600
944.228	0.0143090
944.307	0.0143539
944.385	0.0142638
944.463	0.0142075
944.541	0.0143851
944.619	0.0144246
944.697	0.0143661
944.775	0.0142773
944.853	0.0145763
944.932	0.0142878
945.010	0.0143651
945.088	0.0143521
945.166	0.0144792
945.244	0.0145148
945.322	0.0144757
945.400	0.0143130
945.478	0.0144094
945.557	0.0144587
945.635	0.0145695
945.713	0.0144989
945.791	0.0144225
945.869	0.0144363
945.947	0.0143803
946.025	0.0144772
946.103	0.0145312
946.182	0.0145049
946.260	0.0145866
946.338	0.0145749
946.416	0.0145301
946.494	0.0147048
946.572	0.0145348
946.650	0.0144053
946.728	0.0146715
946.807	0.0147366
946.885	0.0145897
946.963	0.0146864
947.041	0.0146998
947.119	0.0147410
947.197	0.0145464
947.275	0.0146147
947.353	0.0147406
947.432	0.0147164
947.510	0.0145560
947.588	0.0146227
947.666	0.0146372
947.744	0.0146741
947.822	0.0147524
947.900	0.0146883
947.978	0.0146157
948.057	0.0146635
948.135	0.0147656
948.213	0.0145741
948.291	0.0144926
948.369	0.0145213
948.447	0.0147109
948.525	0.0146231
948.603	0.0147906
948.682	0.0147903
948.760	0.0147315
948.838	0.0147108
948.916	0.0145890
948.994	0.0145889
949.072	0.0145657
949.150	0.0146024
949.228	0.0147934
949.307	0.0145300
949.385	0.0147659
949.463	0.0146170
949.541	0.0146241
949.619	0.0146469
949.697	0.0146983
949.775	0.0146053
949.853	0.0145277
949.932	0.0146250
950.010	0.0145173
950.088	0.0144476
950.166	0.0144170
950.244	0.0144740
950.322	0.0144798
950.400	0.0145279
950.478	0.0143949
950.557	0.0144741
950.635	0.0144408
950.713	0.0142057
950.791	0.0142635
950.869	0.0143731
950.947	0.0144182
951.025	0.0142635
951.103	0.0142410
951.182	0.0142315
951.260	0.0143635
951.338	0.0143530
951.416	0.0143568
951.494	0.0146061
951.572	0.0144410
951.650	0.0143954
951.728	0.0144926
951.807	0.0145660
951.885	0.0147559
951.963	0.0145074
952.041	0.0146526
952.119	0.0146712
952.197	0.0145748
952.275	0.0146026
952.353	0.0146484
952.432	0.0147012
952.510	0.0147160
952.588	0.0147519
952.666	0.0146334
952.744	0.0146309
952.822	0.0146388
952.900	0.0147385
952.978	0.0146899
953.057	0.0146920
953.135	0.0148161
953.213	0.0148350
953.291	0.0146730
953.369	0.0148116
953.447	0.0148298
953.525	0.0147687
953.603	0.0147142
953.682	0.0147446
953.760	0.0149223
953.838	0.0147389
953.916	0.0146887
953.994	0.0148271
954.072	0.0147910
954.150	0.0148464
954.228	0.0148100
954.307	0.0147475
954.385	0.0148050
954.463	0.0148328
954.541	0.0148593
954.619	0.0148623
954.697	0.0147596
954.775	0.0147386
954.853	0.0147391
954.932	0.0147709
955.010	0.0147308
955.088	0.0148893
955.166	0.0147190
955.244	0.0147807
955.322	0.0148445
955.400	0.0147101
955.478	0.0147551
955.557	0.0147527
955.635	0.0148163
955.713	0.0146665
955.791	0.0145753
955.869	0.0147456
955.947	0.0147284
956.025	0.0145755
956.103	0.0146265
956.182	0.0146308
956.260	0.0146008
956.338	0.0147999
956.416	0.0146730
956.494	0.0146709
956.572	0.0145760
956.650	0.0146698
956.728	0.0146355
956.807	0.0145006
956.885	0.0147597
956.963	0.0145492
957.041	0.0146429
957.119	0.0145311
957.197	0.0146225
957.275	0.0145711
957.353	0.0145939
957.432	0.0146563
957.510	0.0145707
957.588	0.0144523
957.666	0.0144706
957.744	0.0143635
957.822	0.0143336
957.900	0.0144905
957.978	0.0144669
958.057	0.0143436
958.135	0.0143528
958.213	0.0143285
958.291	0.0144025
958.369	0.0143374
958.447	0.0142448
958.525	0.0144160
958.603	0.0143744
958.682	0.0143425
958.760	0.0143068
958.838	0.0144762
958.916	0.0144292
958.994	0.0142407
959.072	0.0142761
959.150	0.0144833
959.228	0.0142976
959.307	0.0143484
959.385	0.0144452
959.463	0.0145805
959.541	0.0143421
959.619	0.0144646
959.697	0.0145441
959.775	0.0145367
959.853	0.0144680
959.932	0.0145997
960.010	0.0145761
960.088	0.0144047
960.166	0.0144807
960.244	0.0145673
960.322	0.0144627
960.400	0.0146557
960.478	0.0144608
960.557	0.0146060
960.635	0.0145956
960.713	0.0144601
960.791	0.0143917
960.869	0.0145577
960.947	0.0145045
961.025	0.0145243
961.103	0.0146033
961.182	0.0146089
961.260	0.0145409
961.338	0.0146299
961.416	0.0144614
961.494	0.0145107
961.572	0.0145146
961.650	0.0145548
961.728	0.0146115
961.807	0.0147281
961.885	0.0146299
961.963	0.0147907
962.041	0.0146824
962.119	0.0146857
962.197	0.0147770
962.275	0.0147753
962.353	0.0147822
962.432	0.0148598
962.510	0.0148930
962.588	0.0147417
962.666	0.0147633
962.744	0.0146178
962.822	0.0146402
962.900	0.0147285
962.978	0.0145621
963.057	0.0145913
963.135	0.0146685
963.213	0.0145517
963.291	0.0146415
963.369	0.0144894
963.447	0.0144339
963.525	0.0145401
963.603	0.0144677
963.682	0.0145004
963.760	0.0144337
963.838	0.0145621
963.916	0.0145409
963.994	0.0144630
964.072	0.0144709
964.150	0.0145142
964.228	0.0147346
964.307	0.0146558
964.385	0.0146041
964.463	0.0144916
964.541	0.0145790
964.619	0.0146567
964.697	0.0146025
964.775	0.0147135
964.853	0.0145783
964.932	0.0147121
965.010	0.0148779
965.088	0.0145934
965.166	0.0145573
965.244	0.0146194
965.322	0.0146598
965.400	0.0146726
965.478	0.0146237
965.557	0.0145567
965.635	0.0144975
965.713	0.0145532
965.791	0.0146333
965.869	0.0146876
965.947	0.0145841
966.025	0.0145323
966.103	0.0146553
966.182	0.0144516
966.260	0.0144981
966.338	0.0145350
966.416	0.0143522
966.494	0.0144654
966.572	0.0144711
966.650	0.0144363
966.728	0.0145060
966.807	0.0144176
966.885	0.0145406
966.963	0.0147118
967.041	0.0147121
967.119	0.0145108
967.197	0.0147729
967.275	0.0148138
967.353	0.0145988
967.432	0.0146840
967.510	0.0147787
967.588	0.0147639
967.666	0.0147553
967.744	0.0147261
967.822	0.0146323
967.900	0.0146339
967.978	0.0146795
968.057	0.0146015
968.135	0.0145926
968.213	0.0145078
968.291	0.0144481
968.369	0.0145301
968.447	0.0145020
968.525	0.0144167
968.603	0.0145707
968.682	0.0143784
968.760	0.0144100
968.838	0.0145509
968.916	0.0144598
968.994	0.0144864
969.072	0.0145286
969.150	0.0147677
969.228	0.0144855
969.307	0.0144862
969.385	0.0145335
969.463	0.0146360
969.541	0.0146359
969.619	0.0145920
969.697	0.0147437
969.775	0.0146696
969.853	0.0147858
969.932	0.0149060
