05/14/2022	19:27:00	Ver.	4.1	UNKNOWN
Optical Delay	650.009681	Delta X		0.078125	Sweeps	1	Scan Rate	0/0
Coordinates	Axis 1	NaN	Axis 2	NaN	Axis 3	NaN	Axis 4	NaN	Axis 5	NaN	Axis 6	0.000000
TX Power	0.000000	RX Power	0.000000

650.010	0.0143482
650.088	0.0144741
650.166	0.0143771
650.244	0.0143025
650.322	0.0142812
650.400	0.0143201
650.478	0.0144300
650.557	0.0143078
650.635	0.0144239
650.713	0.0143148
650.791	0.0145158
650.869	0.0143734
650.947	0.0144746
651.025	0.0144521
651.103	0.0144048
651.182	0.0144338
651.260	0.0145108
651.338	0.0144661
651.416	0.0145867
651.494	0.0144343
651.572	0.0143714
651.650	0.0144453
651.728	0.0143740
651.807	0.0144135
651.885	0.0143654
651.963	0.0144688
652.041	0.0145389
652.119	0.0144663
652.197	0.0142974
652.275	0.0143730
652.353	0.0145076
652.432	0.0145484
652.510	0.0144122
652.588	0.0144187
652.666	0.0144099
652.744	0.0144127
652.822	0.0143668
652.900	0.0144521
652.978	0.0144097
653.057	0.0142956
653.135	0.0143861
653.213	0.0142790
653.291	0.0144191
653.369	0.0144752
653.447	0.0143200
653.525	0.0144411
653.603	0.0144285
653.682	0.0143120
653.760	0.0143956
653.838	0.0142551
653.916	0.0144142
653.994	0.0144064
654.072	0.0145551
654.150	0.0144645
654.228	0.0142461
654.307	0.0143972
654.385	0.0144545
654.463	0.0143853
654.541	0.0143405
654.619	0.0144067
654.697	0.0144199
654.775	0.0142538
654.853	0.0143417
654.932	0.0143261
655.010	0.0144620
655.088	0.0143817
655.166	0.0142908
655.244	0.0142645
655.322	0.0144501
655.400	0.0143746
655.478	0.0142987
655.557	0.0144170
655.635	0.0145045
655.713	0.0143335
655.791	0.0145543
655.869	0.0143548
655.947	0.0144321
656.025	0.0144560
656.103	0.0146367
656.182	0.0143309
656.260	0.0143983
656.338	0.0144009
656.416	0.0145908
656.494	0.0143575
656.572	0.0144157
656.650	0.0144820
656.728	0.0144421
656.807	0.0143487
656.885	0.0144936
656.963	0.0144337
657.041	0.0144684
657.119	0.0143600
657.197	0.0144826
657.275	0.0143702
657.353	0.0143921
657.432	0.0144978
657.510	0.0144398
657.588	0.0144629
657.666	0.0144442
657.744	0.0144325
657.822	0.0144529
657.900	0.0144214
657.978	0.0143956
658.057	0.0144746
658.135	0.0143679
658.213	0.0144044
658.291	0.0142912
658.369	0.0143787
658.447	0.0143604
658.525	0.0144227
658.603	0.0143759
658.682	0.0143552
658.760	0.0143069
658.838	0.0143961
658.916	0.0143699
658.994	0.0142979
659.072	0.0144207
659.150	0.0142249
659.228	0.0142452
659.307	0.0143054
659.385	0.0142964
659.463	0.0143029
659.541	0.0143372
659.619	0.0144346
659.697	0.0144238
659.775	0.0143716
659.853	0.0142324
659.932	0.0143375
660.010	0.0142882
660.088	0.0141803
660.166	0.0143806
660.244	0.0144232
660.322	0.0143412
660.400	0.0143292
660.478	0.0142982
660.557	0.0142451
660.635	0.0143563
660.713	0.0144430
660.791	0.0143486
660.869	0.0143009
660.947	0.0143753
661.025	0.0143555
661.103	0.0143194
661.182	0.0142861
661.260	0.0144564
661.338	0.0144255
661.416	0.0144438
661.494	0.0142657
661.572	0.0142878
661.650	0.0143665
661.728	0.0144762
661.807	0.0143451
661.885	0.0142598
661.963	0.0143559
662.041	0.0144695
662.119	0.0142993
662.197	0.0144023
662.275	0.0143919
662.353	0.0143903
662.432	0.0142904
662.510	0.0144258
662.588	0.0141827
662.666	0.0143482
662.744	0.0143707
662.822	0.0142798
662.900	0.0143645
662.978	0.0143138
663.057	0.0142469
663.135	0.0144107
663.213	0.0144277
663.291	0.0143151
663.369	0.0143036
663.447	0.0142595
663.525	0.0143613
663.603	0.0143122
663.682	0.0143571
663.760	0.0142880
663.838	0.0143364
663.916	0.0142912
663.994	0.0142271
664.072	0.0143546
664.150	0.0144148
664.228	0.0143140
664.307	0.0143634
664.385	0.0142980
664.463	0.0142538
664.541	0.0143153
664.619	0.0140686
664.697	0.0141399
664.775	0.0141019
664.853	0.0140703
664.932	0.0142452
665.010	0.0141555
665.088	0.0141278
665.166	0.0142561
665.244	0.0142042
665.322	0.0140750
665.400	0.0141808
665.478	0.0140919
665.557	0.0141436
665.635	0.0141163
665.713	0.0140801
665.791	0.0140221
665.869	0.0140817
665.947	0.0140160
666.025	0.0141735
666.103	0.0141275
666.182	0.0142162
666.260	0.0141911
666.338	0.0142257
666.416	0.0142979
666.494	0.0143715
666.572	0.0144038
666.650	0.0143197
666.728	0.0144249
666.807	0.0144121
666.885	0.0143910
666.963	0.0145098
667.041	0.0145327
667.119	0.0144025
667.197	0.0144360
667.275	0.0143544
667.353	0.0144445
667.432	0.0143027
667.510	0.0143140
667.588	0.0143044
667.666	0.0142358
667.744	0.0141438
667.822	0.0142307
667.900	0.0141072
667.978	0.0141515
668.057	0.0142374
668.135	0.0141567
668.213	0.0141553
668.291	0.0141119
668.369	0.0141410
668.447	0.0141865
668.525	0.0142309
668.603	0.0142648
668.682	0.0143266
668.760	0.0145564
668.838	0.0145963
668.916	0.0147526
668.994	0.0146288
669.072	0.0147643
669.150	0.0148801
669.228	0.0149059
669.307	0.0148138
669.385	0.0148069
669.463	0.0146136
669.541	0.0144311
669.619	0.0144819
669.697	0.0142754
669.775	0.0140874
669.853	0.0141874
669.932	0.0139595
670.010	0.0137743
670.088	0.0137016
670.166	0.0136813
670.244	0.0136784
670.322	0.0135322
670.400	0.0136107
670.478	0.0136995
670.557	0.0136328
670.635	0.0137723
670.713	0.0140873
670.791	0.0142963
670.869	0.0143218
670.947	0.0148258
671.025	0.0149189
671.103	0.0152338
671.182	0.0155437
671.260	0.0156436
671.338	0.0158700
671.416	0.0159095
671.494	0.0158882
671.572	0.0160194
671.650	0.0157329
671.728	0.0156230
671.807	0.0155323
671.885	0.0151900
671.963	0.0148114
672.041	0.0144553
672.119	0.0141832
672.197	0.0139026
672.275	0.0134689
672.353	0.0132082
672.432	0.0128543
672.510	0.0127554
672.588	0.0125046
672.666	0.0124035
672.744	0.0124339
672.822	0.0124856
672.900	0.0126147
672.978	0.0127378
673.057	0.0130246
673.135	0.0133171
673.213	0.0136711
673.291	0.0139979
673.369	0.0143459
673.447	0.0147461
673.525	0.0151466
673.603	0.0153894
673.682	0.0157951
673.760	0.0161749
673.838	0.0163062
673.916	0.0164906
673.994	0.0167153
674.072	0.0168311
674.150	0.0167700
674.228	0.0166966
674.307	0.0164246
674.385	0.0160564
674.463	0.0159799
674.541	0.0157028
674.619	0.0152593
674.697	0.0150612
674.775	0.0146760
674.853	0.0141713
674.932	0.0138618
675.010	0.0135294
675.088	0.0130991
675.166	0.0127119
675.244	0.0125201
675.322	0.0121203
675.400	0.0120422
675.478	0.0120265
675.557	0.0119304
675.635	0.0118655
675.713	0.0119708
675.791	0.0123113
675.869	0.0125098
675.947	0.0128372
676.025	0.0131680
676.103	0.0134919
676.182	0.0138988
676.260	0.0143419
676.338	0.0146230
676.416	0.0151061
676.494	0.0152646
676.572	0.0156425
676.650	0.0157552
676.728	0.0160559
676.807	0.0162384
676.885	0.0162286
676.963	0.0162122
677.041	0.0162679
677.119	0.0161707
677.197	0.0160490
677.275	0.0159969
677.353	0.0157772
677.432	0.0154567
677.510	0.0151836
677.588	0.0149424
677.666	0.0147752
677.744	0.0144767
677.822	0.0141214
677.900	0.0139575
677.978	0.0138105
678.057	0.0134496
678.135	0.0135564
678.213	0.0132532
678.291	0.0132481
678.369	0.0131789
678.447	0.0132275
678.525	0.0131333
678.603	0.0133049
678.682	0.0133505
678.760	0.0134573
678.838	0.0137589
678.916	0.0140416
678.994	0.0143710
679.072	0.0147694
679.150	0.0150179
679.228	0.0152432
679.307	0.0155960
679.385	0.0158498
679.463	0.0159646
679.541	0.0162386
679.619	0.0163262
679.697	0.0162297
679.775	0.0163227
679.853	0.0161366
679.932	0.0157008
680.010	0.0153946
680.088	0.0150918
680.166	0.0146294
680.244	0.0141355
680.322	0.0136551
680.400	0.0133212
680.478	0.0126328
680.557	0.0123750
680.635	0.0120436
680.713	0.0119024
680.791	0.0116756
680.869	0.0117469
680.947	0.0118276
681.025	0.0116491
681.103	0.0119492
681.182	0.0121667
681.260	0.0125741
681.338	0.0129724
681.416	0.0132034
681.494	0.0136187
681.572	0.0141165
681.650	0.0145300
681.728	0.0150688
681.807	0.0154819
681.885	0.0157725
681.963	0.0161544
682.041	0.0166234
682.119	0.0168907
682.197	0.0171774
682.275	0.0172846
682.353	0.0176109
682.432	0.0178657
682.510	0.0179164
682.588	0.0178918
682.666	0.0179008
682.744	0.0176822
682.822	0.0176387
682.900	0.0172800
682.978	0.0169456
683.057	0.0166943
683.135	0.0160209
683.213	0.0155444
683.291	0.0148998
683.369	0.0143481
683.447	0.0137296
683.525	0.0132902
683.603	0.0127445
683.682	0.0123476
683.760	0.0119212
683.838	0.0114994
683.916	0.0113865
683.994	0.0112026
684.072	0.0110206
684.150	0.0108175
684.228	0.0107532
684.307	0.0106940
684.385	0.0106366
684.463	0.0105359
684.541	0.0106747
684.619	0.0105894
684.697	0.0108076
684.775	0.0110094
684.853	0.0112386
684.932	0.0113405
685.010	0.0117628
685.088	0.0122354
685.166	0.0127122
685.244	0.0132703
685.322	0.0139620
685.400	0.0146587
685.478	0.0152762
685.557	0.0157069
685.635	0.0163712
685.713	0.0166712
685.791	0.0172108
685.869	0.0176402
685.947	0.0179387
686.025	0.0180751
686.103	0.0182698
686.182	0.0183827
686.260	0.0184489
686.338	0.0184406
686.416	0.0184439
686.494	0.0184424
686.572	0.0185171
686.650	0.0183467
686.728	0.0180994
686.807	0.0179869
686.885	0.0176630
686.963	0.0171474
687.041	0.0166830
687.119	0.0163221
687.197	0.0157162
687.275	0.0150514
687.353	0.0144054
687.432	0.0136351
687.510	0.0130067
687.588	0.0124345
687.666	0.0117184
687.744	0.0111758
687.822	0.0108321
687.900	0.0105534
687.978	0.0102904
688.057	0.0101902
688.135	0.0100710
688.213	0.0101268
688.291	0.0104084
688.369	0.0105862
688.447	0.0108482
688.525	0.0112376
688.603	0.0115482
688.682	0.0118558
688.760	0.0122001
688.838	0.0126398
688.916	0.0128123
688.994	0.0133384
689.072	0.0135252
689.150	0.0136705
689.228	0.0139462
689.307	0.0139758
689.385	0.0141427
689.463	0.0141891
689.541	0.0143623
689.619	0.0145840
689.697	0.0146067
689.775	0.0148009
689.853	0.0148547
689.932	0.0149841
690.010	0.0155048
690.088	0.0155037
690.166	0.0157428
690.244	0.0158906
690.322	0.0159657
690.400	0.0162858
690.478	0.0163617
690.557	0.0164465
690.635	0.0166412
690.713	0.0168670
690.791	0.0171235
690.869	0.0171737
690.947	0.0172049
691.025	0.0174146
691.103	0.0176471
691.182	0.0177900
691.260	0.0180209
691.338	0.0181373
691.416	0.0181926
691.494	0.0182478
691.572	0.0179451
691.650	0.0177393
691.728	0.0174011
691.807	0.0171548
691.885	0.0165427
691.963	0.0157294
692.041	0.0149841
692.119	0.0141454
692.197	0.0132174
692.275	0.0121867
692.353	0.0115319
692.432	0.0104832
692.510	0.00992859
692.588	0.00935188
692.666	0.00891365
692.744	0.00870567
692.822	0.00858604
692.900	0.00869766
692.978	0.00885811
693.057	0.00892181
693.135	0.00949013
693.213	0.0101113
693.291	0.0106986
693.369	0.0113303
693.447	0.0120300
693.525	0.0126854
693.603	0.0132568
693.682	0.0137801
693.760	0.0146201
693.838	0.0151042
693.916	0.0157737
693.994	0.0163024
694.072	0.0167670
694.150	0.0174382
694.228	0.0176824
694.307	0.0181438
694.385	0.0184178
694.463	0.0184451
694.541	0.0187209
694.619	0.0188335
694.697	0.0187453
694.775	0.0182966
694.853	0.0180083
694.932	0.0176212
695.010	0.0171067
695.088	0.0166272
695.166	0.0158388
695.244	0.0153782
695.322	0.0146651
695.400	0.0139886
695.478	0.0134710
695.557	0.0129024
695.635	0.0126701
695.713	0.0122701
695.791	0.0120592
695.869	0.0119050
695.947	0.0119855
696.025	0.0118668
696.103	0.0118718
696.182	0.0121629
696.260	0.0123395
696.338	0.0126155
696.416	0.0130016
696.494	0.0132265
696.572	0.0135744
696.650	0.0139219
696.728	0.0142737
696.807	0.0147249
696.885	0.0149783
696.963	0.0154276
697.041	0.0156087
697.119	0.0161281
697.197	0.0161941
697.275	0.0163800
697.353	0.0166312
697.432	0.0166552
697.510	0.0167889
697.588	0.0166019
697.666	0.0164662
697.744	0.0161181
697.822	0.0158035
697.900	0.0154614
697.978	0.0150383
698.057	0.0145227
698.135	0.0140038
698.213	0.0138365
698.291	0.0133746
698.369	0.0131196
698.447	0.0127667
698.525	0.0124747
698.603	0.0124197
698.682	0.0123993
698.760	0.0125206
698.838	0.0125724
698.916	0.0125311
698.994	0.0128627
699.072	0.0129475
699.150	0.0131390
699.228	0.0134364
699.307	0.0136294
699.385	0.0137552
699.463	0.0140656
699.541	0.0143222
699.619	0.0145262
699.697	0.0147623
699.775	0.0148154
699.853	0.0150038
699.932	0.0152034
700.010	0.0152809
700.088	0.0150662
700.166	0.0151985
700.244	0.0151241
700.322	0.0148937
700.400	0.0147340
700.478	0.0144552
700.557	0.0143543
700.635	0.0140134
700.713	0.0137505
700.791	0.0135465
700.869	0.0131840
700.947	0.0130969
701.025	0.0127435
701.103	0.0126249
701.182	0.0124305
701.260	0.0124059
701.338	0.0126372
701.416	0.0127822
701.494	0.0127573
701.572	0.0132220
701.650	0.0135468
701.728	0.0138783
701.807	0.0144908
701.885	0.0149582
701.963	0.0154140
702.041	0.0158992
702.119	0.0165414
702.197	0.0168089
702.275	0.0173499
702.353	0.0176470
702.432	0.0178822
702.510	0.0179324
702.588	0.0178658
702.666	0.0179749
702.744	0.0179301
702.822	0.0177251
702.900	0.0173937
702.978	0.0171634
703.057	0.0168954
703.135	0.0163721
703.213	0.0159060
703.291	0.0154942
703.369	0.0148135
703.447	0.0143731
703.525	0.0140372
703.603	0.0136279
703.682	0.0130228
703.760	0.0127433
703.838	0.0122598
703.916	0.0120409
703.994	0.0117678
704.072	0.0115761
704.150	0.0115517
704.228	0.0115305
704.307	0.0113976
704.385	0.0116384
704.463	0.0117317
704.541	0.0116389
704.619	0.0119166
704.697	0.0122268
704.775	0.0124277
704.853	0.0126935
704.932	0.0131181
705.010	0.0133858
705.088	0.0134514
705.166	0.0137157
705.244	0.0140200
705.322	0.0139807
705.400	0.0139497
705.478	0.0140829
705.557	0.0140327
705.635	0.0139966
705.713	0.0141101
705.791	0.0140456
705.869	0.0139613
705.947	0.0140991
706.025	0.0140251
706.103	0.0141288
706.182	0.0142574
706.260	0.0143014
706.338	0.0145697
706.416	0.0148010
706.494	0.0148923
706.572	0.0151090
706.650	0.0154020
706.728	0.0155851
706.807	0.0157064
706.885	0.0158381
706.963	0.0158829
707.041	0.0159077
707.119	0.0159190
707.197	0.0158236
707.275	0.0157080
707.353	0.0157201
707.432	0.0157696
707.510	0.0155756
707.588	0.0155174
707.666	0.0155697
707.744	0.0155875
707.822	0.0154236
707.900	0.0155429
707.978	0.0156250
708.057	0.0156075
708.135	0.0157589
708.213	0.0156990
708.291	0.0157779
708.369	0.0157174
708.447	0.0156366
708.525	0.0156464
708.603	0.0155840
708.682	0.0155546
708.760	0.0154371
708.838	0.0151937
708.916	0.0152271
708.994	0.0149282
709.072	0.0148831
709.150	0.0146346
709.228	0.0144189
709.307	0.0142046
709.385	0.0141407
709.463	0.0139342
709.541	0.0138377
709.619	0.0136536
709.697	0.0133784
709.775	0.0132420
709.853	0.0128930
709.932	0.0126711
710.010	0.0123402
710.088	0.0122032
710.166	0.0119095
710.244	0.0117533
710.322	0.0116171
710.400	0.0114812
710.478	0.0114491
710.557	0.0113947
710.635	0.0115485
710.713	0.0116870
710.791	0.0117873
710.869	0.0120066
710.947	0.0124013
711.025	0.0127361
711.103	0.0129546
711.182	0.0133627
711.260	0.0138733
711.338	0.0141862
711.416	0.0146016
711.494	0.0149303
711.572	0.0154360
711.650	0.0156811
711.728	0.0156966
711.807	0.0160359
711.885	0.0162483
711.963	0.0162753
712.041	0.0162785
712.119	0.0162417
712.197	0.0163094
712.275	0.0163010
712.353	0.0163612
712.432	0.0163680
712.510	0.0163464
712.588	0.0162991
712.666	0.0161961
712.744	0.0162209
712.822	0.0160346
712.900	0.0159420
712.978	0.0157510
713.057	0.0156269
713.135	0.0155106
713.213	0.0153614
713.291	0.0151754
713.369	0.0149755
713.447	0.0149290
713.525	0.0151537
713.603	0.0150160
713.682	0.0151368
713.760	0.0151251
713.838	0.0151588
713.916	0.0152216
713.994	0.0151933
714.072	0.0151265
714.150	0.0150338
714.228	0.0150135
714.307	0.0147827
714.385	0.0145945
714.463	0.0145381
714.541	0.0142730
714.619	0.0139981
714.697	0.0140746
714.775	0.0140729
714.853	0.0140568
714.932	0.0140008
715.010	0.0141211
715.088	0.0140958
715.166	0.0138712
715.244	0.0139339
715.322	0.0138802
715.400	0.0138123
715.478	0.0137778
715.557	0.0135840
715.635	0.0135312
715.713	0.0132029
715.791	0.0129090
715.869	0.0127743
715.947	0.0126376
716.025	0.0125957
716.103	0.0123862
716.182	0.0123579
716.260	0.0124500
716.338	0.0124097
716.416	0.0124474
716.494	0.0125997
716.572	0.0127637
716.650	0.0130358
716.728	0.0132513
716.807	0.0134463
716.885	0.0139240
716.963	0.0142734
717.041	0.0144965
717.119	0.0149042
717.197	0.0151385
717.275	0.0153272
717.353	0.0154780
717.432	0.0157531
717.510	0.0157288
717.588	0.0158610
717.666	0.0160161
717.744	0.0158720
717.822	0.0158818
717.900	0.0157971
717.978	0.0157917
718.057	0.0156596
718.135	0.0156114
718.213	0.0155526
718.291	0.0154743
718.369	0.0154131
718.447	0.0155754
718.525	0.0153215
718.603	0.0154188
718.682	0.0153624
718.760	0.0154600
718.838	0.0154646
718.916	0.0154668
718.994	0.0154013
719.072	0.0154080
719.150	0.0153058
719.228	0.0151275
719.307	0.0151563
719.385	0.0149155
719.463	0.0148829
719.541	0.0146941
719.619	0.0145201
719.697	0.0144608
719.775	0.0143687
719.853	0.0142682
719.932	0.0142088
720.010	0.0141093
720.088	0.0140028
720.166	0.0139499
720.244	0.0140079
720.322	0.0138773
720.400	0.0137017
720.478	0.0136913
720.557	0.0136710
720.635	0.0137023
720.713	0.0137180
720.791	0.0136662
720.869	0.0137199
720.947	0.0135566
721.025	0.0135839
721.103	0.0136729
721.182	0.0135768
721.260	0.0135043
721.338	0.0135717
721.416	0.0135992
721.494	0.0135950
721.572	0.0136707
721.650	0.0136566
721.728	0.0139206
721.807	0.0137852
721.885	0.0139468
721.963	0.0139935
722.041	0.0139223
722.119	0.0140360
722.197	0.0140205
722.275	0.0142393
722.353	0.0141365
722.432	0.0139187
722.510	0.0139169
722.588	0.0141137
722.666	0.0138826
722.744	0.0138396
722.822	0.0139474
722.900	0.0138832
722.978	0.0139539
723.057	0.0138963
723.135	0.0141059
723.213	0.0140415
723.291	0.0143145
723.369	0.0143060
723.447	0.0142900
723.525	0.0144901
723.603	0.0145747
723.682	0.0147039
723.760	0.0146486
723.838	0.0147479
723.916	0.0147676
723.994	0.0147497
724.072	0.0147881
724.150	0.0148304
724.228	0.0149712
724.307	0.0148537
724.385	0.0148287
724.463	0.0148402
724.541	0.0149882
724.619	0.0147801
724.697	0.0146825
724.775	0.0148829
724.853	0.0146825
724.932	0.0145086
725.010	0.0146589
725.088	0.0145986
725.166	0.0145668
725.244	0.0146404
725.322	0.0144559
725.400	0.0142540
725.478	0.0143977
725.557	0.0143585
725.635	0.0143050
725.713	0.0143244
725.791	0.0142509
725.869	0.0144106
725.947	0.0142201
726.025	0.0142876
726.103	0.0142664
726.182	0.0142951
726.260	0.0143100
726.338	0.0142972
726.416	0.0143020
726.494	0.0144431
726.572	0.0143210
726.650	0.0145374
726.728	0.0147015
726.807	0.0145657
726.885	0.0145370
726.963	0.0144790
727.041	0.0143800
727.119	0.0146642
727.197	0.0145349
727.275	0.0144521
727.353	0.0144585
727.432	0.0143121
727.510	0.0143383
727.588	0.0142451
727.666	0.0141719
727.744	0.0140066
727.822	0.0140176
727.900	0.0139008
727.978	0.0137127
728.057	0.0138342
728.135	0.0137094
728.213	0.0136487
728.291	0.0136621
728.369	0.0136066
728.447	0.0135192
728.525	0.0137011
728.603	0.0136389
728.682	0.0137903
728.760	0.0136903
728.838	0.0137305
728.916	0.0139401
728.994	0.0140521
729.072	0.0141480
729.150	0.0140065
729.228	0.0140820
729.307	0.0142136
729.385	0.0141707
729.463	0.0141931
729.541	0.0141969
729.619	0.0142668
729.697	0.0143365
729.775	0.0142995
729.853	0.0142820
729.932	0.0143889
730.010	0.0144938
730.088	0.0145983
730.166	0.0147234
730.244	0.0146687
730.322	0.0146433
730.400	0.0147982
730.478	0.0149617
730.557	0.0148767
730.635	0.0149464
730.713	0.0150804
730.791	0.0149495
730.869	0.0149838
730.947	0.0150974
731.025	0.0149992
731.103	0.0149147
731.182	0.0149662
731.260	0.0149586
731.338	0.0147845
731.416	0.0147919
731.494	0.0145805
731.572	0.0145766
731.650	0.0145777
731.728	0.0145046
731.807	0.0143925
731.885	0.0142021
731.963	0.0142769
732.041	0.0141808
732.119	0.0141230
732.197	0.0141262
732.275	0.0140951
732.353	0.0143200
732.432	0.0142867
732.510	0.0141164
732.588	0.0141988
732.666	0.0143616
732.744	0.0143240
732.822	0.0141932
732.900	0.0142384
732.978	0.0143821
733.057	0.0142194
733.135	0.0142904
733.213	0.0142879
733.291	0.0143207
733.369	0.0142925
733.447	0.0142719
733.525	0.0143293
733.603	0.0142671
733.682	0.0145141
733.760	0.0145811
733.838	0.0145596
733.916	0.0145748
733.994	0.0146197
734.072	0.0148163
734.150	0.0148019
734.228	0.0147701
734.307	0.0148058
734.385	0.0148328
734.463	0.0146799
734.541	0.0146384
734.619	0.0146716
734.697	0.0146666
734.775	0.0146372
734.853	0.0144192
734.932	0.0143990
735.010	0.0143626
735.088	0.0141122
735.166	0.0143074
735.244	0.0141751
735.322	0.0141028
735.400	0.0140680
735.478	0.0140603
735.557	0.0140618
735.635	0.0139776
735.713	0.0140749
735.791	0.0142356
735.869	0.0140977
735.947	0.0141989
736.025	0.0142088
736.103	0.0143089
736.182	0.0142057
736.260	0.0143862
736.338	0.0143580
736.416	0.0144769
736.494	0.0143930
736.572	0.0143970
736.650	0.0143767
736.728	0.0143533
736.807	0.0144389
736.885	0.0143167
736.963	0.0143786
737.041	0.0143195
737.119	0.0143641
737.197	0.0142943
737.275	0.0144426
737.353	0.0146329
737.432	0.0144034
737.510	0.0144867
737.588	0.0147164
737.666	0.0146149
737.744	0.0146319
737.822	0.0148548
737.900	0.0147327
737.978	0.0146240
738.057	0.0146449
738.135	0.0145201
738.213	0.0145777
738.291	0.0145636
738.369	0.0146191
738.447	0.0145554
738.525	0.0146284
738.603	0.0146410
738.682	0.0145818
738.760	0.0145562
738.838	0.0145910
738.916	0.0146242
738.994	0.0146514
739.072	0.0143794
739.150	0.0144722
739.228	0.0146046
739.307	0.0145232
739.385	0.0145444
739.463	0.0146091
739.541	0.0147047
739.619	0.0146639
739.697	0.0147152
739.775	0.0146902
739.853	0.0147429
739.932	0.0143564
740.010	0.0143983
740.088	0.0144733
740.166	0.0145189
740.244	0.0143758
740.322	0.0142878
740.400	0.0143503
740.478	0.0142142
740.557	0.0142095
740.635	0.0143513
740.713	0.0144853
740.791	0.0144035
740.869	0.0145257
740.947	0.0146004
741.025	0.0146004
741.103	0.0148917
741.182	0.0148009
741.260	0.0147176
741.338	0.0148660
741.416	0.0148048
741.494	0.0148759
741.572	0.0147237
741.650	0.0146871
741.728	0.0146334
741.807	0.0145604
741.885	0.0145953
741.963	0.0145174
742.041	0.0144820
742.119	0.0143485
742.197	0.0141283
742.275	0.0140965
742.353	0.0140962
742.432	0.0140025
742.510	0.0140184
742.588	0.0140274
742.666	0.0140232
742.744	0.0139994
742.822	0.0140878
742.900	0.0139684
742.978	0.0140981
743.057	0.0139825
743.135	0.0139957
743.213	0.0140824
743.291	0.0140876
743.369	0.0140182
743.447	0.0141756
743.525	0.0141631
743.603	0.0141467
743.682	0.0140960
743.760	0.0142214
743.838	0.0141793
743.916	0.0141845
743.994	0.0142331
744.072	0.0142053
744.150	0.0142107
744.228	0.0143353
744.307	0.0141130
744.385	0.0140423
744.463	0.0142409
744.541	0.0142215
744.619	0.0140792
744.697	0.0139950
744.775	0.0140046
744.853	0.0138774
744.932	0.0138859
745.010	0.0140221
745.088	0.0140061
745.166	0.0139587
745.244	0.0138518
745.322	0.0139266
745.400	0.0139393
745.478	0.0139363
745.557	0.0140865
745.635	0.0140699
745.713	0.0141924
745.791	0.0142168
745.869	0.0142274
745.947	0.0143449
746.025	0.0143710
746.103	0.0143153
746.182	0.0144547
746.260	0.0143998
746.338	0.0145780
746.416	0.0145635
746.494	0.0146085
746.572	0.0145086
746.650	0.0145990
746.728	0.0146677
746.807	0.0148234
746.885	0.0147996
746.963	0.0147237
747.041	0.0148590
747.119	0.0150608
747.197	0.0150146
747.275	0.0149626
747.353	0.0151077
747.432	0.0150215
747.510	0.0151423
747.588	0.0152923
747.666	0.0153560
747.744	0.0154149
747.822	0.0153854
747.900	0.0154259
747.978	0.0153384
748.057	0.0152069
748.135	0.0152291
748.213	0.0150677
748.291	0.0149738
748.369	0.0149057
748.447	0.0146562
748.525	0.0145512
748.603	0.0143332
748.682	0.0141911
748.760	0.0142254
748.838	0.0140588
748.916	0.0138902
748.994	0.0138156
749.072	0.0136514
749.150	0.0136459
749.228	0.0135609
749.307	0.0135948
749.385	0.0134628
749.463	0.0135101
749.541	0.0134607
749.619	0.0134150
749.697	0.0134426
749.775	0.0135104
749.853	0.0135812
749.932	0.0136506
750.010	0.0135799
750.088	0.0135970
750.166	0.0138052
750.244	0.0137630
750.322	0.0138713
750.400	0.0140591
750.478	0.0140243
750.557	0.0139034
750.635	0.0142616
750.713	0.0143080
750.791	0.0142051
750.869	0.0143787
750.947	0.0145046
751.025	0.0143800
751.103	0.0144087
751.182	0.0144776
751.260	0.0144414
751.338	0.0143934
751.416	0.0146797
751.494	0.0145759
751.572	0.0146631
751.650	0.0146489
751.728	0.0145948
751.807	0.0145933
751.885	0.0146738
751.963	0.0146452
752.041	0.0146159
752.119	0.0147578
752.197	0.0147256
752.275	0.0145771
752.353	0.0145443
752.432	0.0148109
752.510	0.0146023
752.588	0.0145661
752.666	0.0145222
752.744	0.0145847
752.822	0.0146870
752.900	0.0147591
752.978	0.0147231
753.057	0.0147240
753.135	0.0146428
753.213	0.0146369
753.291	0.0145655
753.369	0.0145845
753.447	0.0147626
753.525	0.0145578
753.603	0.0146189
753.682	0.0145391
753.760	0.0145110
753.838	0.0145686
753.916	0.0145282
753.994	0.0144910
754.072	0.0143950
754.150	0.0145705
754.228	0.0145193
754.307	0.0144512
754.385	0.0144893
754.463	0.0145855
754.541	0.0145033
754.619	0.0145647
754.697	0.0146657
754.775	0.0147157
754.853	0.0146211
754.932	0.0146398
755.010	0.0146963
755.088	0.0146432
755.166	0.0145981
755.244	0.0145660
755.322	0.0145892
755.400	0.0144206
755.478	0.0144675
755.557	0.0142982
755.635	0.0143039
755.713	0.0139512
755.791	0.0139561
755.869	0.0138997
755.947	0.0139773
756.025	0.0137724
756.103	0.0137746
756.182	0.0136528
756.260	0.0137668
756.338	0.0137103
756.416	0.0137737
756.494	0.0138136
756.572	0.0138858
756.650	0.0138036
756.728	0.0138639
756.807	0.0141557
756.885	0.0139459
756.963	0.0141038
757.041	0.0141915
757.119	0.0141771
757.197	0.0142111
757.275	0.0143217
757.353	0.0143523
757.432	0.0144058
757.510	0.0145363
757.588	0.0144270
757.666	0.0143690
757.744	0.0143561
757.822	0.0144644
757.900	0.0144382
757.978	0.0143210
758.057	0.0143550
758.135	0.0142752
758.213	0.0143433
758.291	0.0143731
758.369	0.0142837
758.447	0.0143601
758.525	0.0141648
758.603	0.0141795
758.682	0.0142736
758.760	0.0143006
758.838	0.0144480
758.916	0.0142387
758.994	0.0142188
759.072	0.0142982
759.150	0.0143124
759.228	0.0142935
759.307	0.0142800
759.385	0.0145303
759.463	0.0144885
759.541	0.0146295
759.619	0.0145266
759.697	0.0144888
759.775	0.0144425
759.853	0.0145334
759.932	0.0147331
760.010	0.0147782
760.088	0.0147633
760.166	0.0146325
760.244	0.0146170
760.322	0.0147520
760.400	0.0147338
760.478	0.0145953
760.557	0.0146328
760.635	0.0146313
760.713	0.0146803
760.791	0.0145590
760.869	0.0145577
760.947	0.0146294
761.025	0.0146786
761.103	0.0146413
761.182	0.0146736
761.260	0.0147483
761.338	0.0146832
761.416	0.0147037
761.494	0.0147736
761.572	0.0149201
761.650	0.0149377
761.728	0.0149483
761.807	0.0148986
761.885	0.0149196
761.963	0.0147704
762.041	0.0146563
762.119	0.0145415
762.197	0.0144611
762.275	0.0143353
762.353	0.0141805
762.432	0.0141029
762.510	0.0140939
762.588	0.0140231
762.666	0.0138855
762.744	0.0137959
762.822	0.0136155
762.900	0.0135561
762.978	0.0136427
763.057	0.0135345
763.135	0.0134789
763.213	0.0136275
763.291	0.0135535
763.369	0.0135518
763.447	0.0136551
763.525	0.0137202
763.603	0.0136630
763.682	0.0138938
763.760	0.0140459
763.838	0.0141573
763.916	0.0143513
763.994	0.0141560
764.072	0.0143161
764.150	0.0144061
764.228	0.0143095
764.307	0.0143594
764.385	0.0144689
764.463	0.0144534
764.541	0.0144416
764.619	0.0144315
764.697	0.0144163
764.775	0.0144693
764.853	0.0144434
764.932	0.0144830
765.010	0.0144649
765.088	0.0143266
765.166	0.0143449
765.244	0.0142559
765.322	0.0143485
765.400	0.0143404
765.478	0.0143585
765.557	0.0142526
765.635	0.0143340
765.713	0.0144769
765.791	0.0146571
765.869	0.0146201
765.947	0.0146761
766.025	0.0147210
766.103	0.0147258
766.182	0.0149007
766.260	0.0149864
766.338	0.0147869
766.416	0.0149027
766.494	0.0149044
766.572	0.0149014
766.650	0.0148057
766.728	0.0148064
766.807	0.0146358
766.885	0.0148759
766.963	0.0146029
767.041	0.0145412
767.119	0.0145255
767.197	0.0144863
767.275	0.0144650
767.353	0.0144785
767.432	0.0145360
767.510	0.0145219
767.588	0.0144824
767.666	0.0145939
767.744	0.0146829
767.822	0.0144952
767.900	0.0146513
767.978	0.0147101
768.057	0.0145784
768.135	0.0146749
768.213	0.0147293
768.291	0.0148001
768.369	0.0146197
768.447	0.0146922
768.525	0.0146602
768.603	0.0147272
768.682	0.0145647
768.760	0.0145832
768.838	0.0146091
768.916	0.0143429
768.994	0.0143419
769.072	0.0142966
769.150	0.0144005
769.228	0.0142897
769.307	0.0141669
769.385	0.0140260
769.463	0.0139749
769.541	0.0139756
769.619	0.0138171
769.697	0.0138197
769.775	0.0138404
769.853	0.0137598
769.932	0.0138654
770.010	0.0139438
770.088	0.0140646
770.166	0.0141619
770.244	0.0142046
770.322	0.0141998
770.400	0.0144405
770.478	0.0146148
770.557	0.0143199
770.635	0.0144462
770.713	0.0146378
770.791	0.0146132
770.869	0.0147143
770.947	0.0147169
771.025	0.0148375
771.103	0.0147830
771.182	0.0146097
771.260	0.0144780
771.338	0.0145433
771.416	0.0145988
771.494	0.0146383
771.572	0.0142974
771.650	0.0141776
771.728	0.0142943
771.807	0.0142003
771.885	0.0142224
771.963	0.0141096
772.041	0.0141657
772.119	0.0142389
772.197	0.0143829
772.275	0.0143495
772.353	0.0143295
772.432	0.0144086
772.510	0.0144034
772.588	0.0144987
772.666	0.0145579
772.744	0.0144935
772.822	0.0147745
772.900	0.0147729
772.978	0.0146272
773.057	0.0147171
773.135	0.0147079
773.213	0.0147390
773.291	0.0147447
773.369	0.0148786
773.447	0.0147113
773.525	0.0147463
773.603	0.0149463
773.682	0.0148083
773.760	0.0147476
773.838	0.0147472
773.916	0.0148681
773.994	0.0148600
774.072	0.0147211
774.150	0.0147786
774.228	0.0148183
774.307	0.0147388
774.385	0.0146417
774.463	0.0146834
774.541	0.0145167
774.619	0.0146612
774.697	0.0145810
774.775	0.0145486
774.853	0.0144405
774.932	0.0146618
775.010	0.0146314
775.088	0.0145085
775.166	0.0146021
775.244	0.0147491
775.322	0.0145554
775.400	0.0146650
775.478	0.0146793
775.557	0.0145912
775.635	0.0146659
775.713	0.0146261
775.791	0.0144917
775.869	0.0143722
775.947	0.0143555
776.025	0.0144730
776.103	0.0141795
776.182	0.0140025
776.260	0.0139549
776.338	0.0139199
776.416	0.0136945
776.494	0.0137983
776.572	0.0137749
776.650	0.0135163
776.728	0.0135353
776.807	0.0135954
776.885	0.0135119
776.963	0.0135445
777.041	0.0134745
777.119	0.0136273
777.197	0.0136329
777.275	0.0136317
777.353	0.0138017
777.432	0.0136941
777.510	0.0136819
777.588	0.0139445
777.666	0.0138122
777.744	0.0139539
777.822	0.0141373
777.900	0.0141742
777.978	0.0141279
778.057	0.0142027
778.135	0.0141853
778.213	0.0143995
778.291	0.0145042
778.369	0.0144793
778.447	0.0144527
778.525	0.0146610
778.603	0.0146792
778.682	0.0146080
778.760	0.0146496
778.838	0.0146717
778.916	0.0146355
778.994	0.0147102
779.072	0.0145966
779.150	0.0147385
779.228	0.0147057
779.307	0.0145689
779.385	0.0146050
779.463	0.0146886
779.541	0.0146774
779.619	0.0145280
779.697	0.0146478
779.775	0.0144870
779.853	0.0145924
779.932	0.0145123
780.010	0.0143269
780.088	0.0144705
780.166	0.0144791
780.244	0.0144867
780.322	0.0142476
780.400	0.0143195
780.478	0.0142465
780.557	0.0143147
780.635	0.0143191
780.713	0.0142533
780.791	0.0142441
780.869	0.0141580
780.947	0.0141601
781.025	0.0140533
781.103	0.0142262
781.182	0.0141016
781.260	0.0141512
781.338	0.0141842
781.416	0.0141524
781.494	0.0142676
781.572	0.0143735
781.650	0.0144379
781.728	0.0143892
781.807	0.0144958
781.885	0.0144944
781.963	0.0146540
782.041	0.0147260
782.119	0.0148531
782.197	0.0149236
782.275	0.0149641
782.353	0.0149393
782.432	0.0150436
782.510	0.0150149
782.588	0.0149926
782.666	0.0150912
782.744	0.0151618
782.822	0.0149971
782.900	0.0150431
782.978	0.0150357
783.057	0.0149391
783.135	0.0147221
783.213	0.0143920
783.291	0.0144200
783.369	0.0144551
783.447	0.0144595
783.525	0.0143730
783.603	0.0141974
783.682	0.0141921
783.760	0.0141686
783.838	0.0139310
783.916	0.0138554
783.994	0.0139819
784.072	0.0139336
784.150	0.0138527
784.228	0.0137634
784.307	0.0139503
784.385	0.0138273
784.463	0.0136995
784.541	0.0136635
784.619	0.0137991
784.697	0.0138505
784.775	0.0137300
784.853	0.0138644
784.932	0.0138871
785.010	0.0138860
785.088	0.0138134
785.166	0.0138198
785.244	0.0138866
785.322	0.0139104
785.400	0.0139010
785.478	0.0138934
785.557	0.0137659
785.635	0.0138795
785.713	0.0139544
785.791	0.0139417
785.869	0.0140434
785.947	0.0141307
786.025	0.0140868
786.103	0.0141687
786.182	0.0143344
786.260	0.0143633
786.338	0.0144217
786.416	0.0144672
786.494	0.0146562
786.572	0.0145815
786.650	0.0147455
786.728	0.0148351
786.807	0.0149241
786.885	0.0149392
786.963	0.0150809
787.041	0.0151707
787.119	0.0151360
787.197	0.0150220
787.275	0.0149781
787.353	0.0152273
787.432	0.0151470
787.510	0.0151791
787.588	0.0150282
787.666	0.0150938
787.744	0.0152528
787.822	0.0152139
787.900	0.0150334
787.978	0.0151586
788.057	0.0149853
788.135	0.0150651
788.213	0.0150234
788.291	0.0149546
788.369	0.0149746
788.447	0.0149190
788.525	0.0148206
788.603	0.0145733
788.682	0.0146313
788.760	0.0146119
788.838	0.0145165
788.916	0.0142733
788.994	0.0142477
789.072	0.0141260
789.150	0.0141251
789.228	0.0140555
789.307	0.0141397
789.385	0.0140588
789.463	0.0139828
789.541	0.0138384
789.619	0.0139592
789.697	0.0138390
789.775	0.0139662
789.853	0.0137971
789.932	0.0138562
790.010	0.0138383
790.088	0.0136977
790.166	0.0138191
790.244	0.0138222
790.322	0.0139156
790.400	0.0138294
790.478	0.0140843
790.557	0.0141118
790.635	0.0142484
790.713	0.0142796
790.791	0.0143730
790.869	0.0145522
790.947	0.0145545
791.025	0.0147083
791.103	0.0147701
791.182	0.0149998
791.260	0.0151073
791.338	0.0149952
791.416	0.0152076
791.494	0.0151133
791.572	0.0150416
791.650	0.0150666
791.728	0.0150300
791.807	0.0149389
791.885	0.0147925
791.963	0.0146942
792.041	0.0146825
792.119	0.0145527
792.197	0.0144489
792.275	0.0145865
792.353	0.0143790
792.432	0.0142502
792.510	0.0140912
792.588	0.0141750
792.666	0.0140441
792.744	0.0141129
792.822	0.0141209
792.900	0.0140405
792.978	0.0140191
793.057	0.0142509
793.135	0.0142725
793.213	0.0141663
793.291	0.0141439
793.369	0.0144665
793.447	0.0145877
793.525	0.0145723
793.603	0.0146207
793.682	0.0147013
793.760	0.0147050
793.838	0.0146367
793.916	0.0147858
793.994	0.0147084
794.072	0.0147427
794.150	0.0147337
794.228	0.0146835
794.307	0.0147114
794.385	0.0146117
794.463	0.0146202
794.541	0.0145976
794.619	0.0145013
794.697	0.0144408
794.775	0.0143269
794.853	0.0143701
794.932	0.0144364
795.010	0.0144461
795.088	0.0144225
795.166	0.0143220
795.244	0.0143473
795.322	0.0145180
795.400	0.0141993
795.478	0.0143116
795.557	0.0144300
795.635	0.0143860
795.713	0.0143195
795.791	0.0143375
795.869	0.0144176
795.947	0.0145470
796.025	0.0144299
796.103	0.0146613
796.182	0.0146036
796.260	0.0145564
796.338	0.0147315
796.416	0.0148032
796.494	0.0147301
796.572	0.0148544
796.650	0.0146779
796.728	0.0145395
796.807	0.0147640
796.885	0.0144968
796.963	0.0145696
797.041	0.0145912
797.119	0.0144123
797.197	0.0143172
797.275	0.0143855
797.353	0.0142244
797.432	0.0141785
797.510	0.0141525
797.588	0.0142754
797.666	0.0141520
797.744	0.0141752
797.822	0.0142903
797.900	0.0140409
797.978	0.0141466
798.057	0.0142667
798.135	0.0139871
798.213	0.0141014
798.291	0.0143476
798.369	0.0141990
798.447	0.0141783
798.525	0.0143634
798.603	0.0143470
798.682	0.0142770
798.760	0.0143582
798.838	0.0144685
798.916	0.0145228
798.994	0.0145277
799.072	0.0144753
799.150	0.0145421
799.228	0.0145340
799.307	0.0144849
799.385	0.0145285
799.463	0.0144032
799.541	0.0144286
799.619	0.0143651
799.697	0.0143589
799.775	0.0143370
799.853	0.0143549
799.932	0.0141350
800.010	0.0143156
800.088	0.0142989
800.166	0.0140269
800.244	0.0140559
800.322	0.0140247
800.400	0.0141287
800.478	0.0140742
800.557	0.0141055
800.635	0.0141048
800.713	0.0140560
800.791	0.0141426
800.869	0.0139342
800.947	0.0138995
801.025	0.0139818
801.103	0.0140393
801.182	0.0140764
801.260	0.0140195
801.338	0.0139992
801.416	0.0142165
801.494	0.0142012
801.572	0.0142599
801.650	0.0143085
801.728	0.0143238
801.807	0.0145310
801.885	0.0144019
801.963	0.0143591
802.041	0.0144043
802.119	0.0144106
802.197	0.0144675
802.275	0.0145721
802.353	0.0144537
802.432	0.0144327
802.510	0.0145669
802.588	0.0146000
802.666	0.0144839
802.744	0.0146423
802.822	0.0144784
802.900	0.0147565
802.978	0.0145511
803.057	0.0145351
803.135	0.0147201
803.213	0.0147693
803.291	0.0146931
803.369	0.0147543
803.447	0.0148083
803.525	0.0148237
803.603	0.0149437
803.682	0.0149126
803.760	0.0148444
803.838	0.0150002
803.916	0.0148693
803.994	0.0148424
804.072	0.0147639
804.150	0.0147845
804.228	0.0146135
804.307	0.0145316
804.385	0.0144446
804.463	0.0144605
804.541	0.0142877
804.619	0.0142326
804.697	0.0142031
804.775	0.0142113
804.853	0.0141907
804.932	0.0140910
805.010	0.0141711
805.088	0.0141248
805.166	0.0141396
805.244	0.0140592
805.322	0.0139781
805.400	0.0140337
805.478	0.0140488
805.557	0.0139854
805.635	0.0140367
805.713	0.0141689
805.791	0.0139707
805.869	0.0139632
805.947	0.0140638
806.025	0.0140792
806.103	0.0140340
806.182	0.0138927
806.260	0.0139349
806.338	0.0139495
806.416	0.0139581
806.494	0.0140305
806.572	0.0139611
806.650	0.0139292
806.728	0.0138887
806.807	0.0139072
806.885	0.0139089
806.963	0.0140357
807.041	0.0141129
807.119	0.0140943
807.197	0.0139274
807.275	0.0140256
807.353	0.0142271
807.432	0.0143074
807.510	0.0142910
807.588	0.0143604
807.666	0.0144945
807.744	0.0144404
807.822	0.0145551
807.900	0.0145097
807.978	0.0145534
808.057	0.0146090
808.135	0.0145149
808.213	0.0147106
808.291	0.0146825
808.369	0.0146423
808.447	0.0146048
808.525	0.0146806
808.603	0.0147838
808.682	0.0146930
808.760	0.0148653
808.838	0.0147742
808.916	0.0147725
808.994	0.0149658
809.072	0.0149010
809.150	0.0149749
809.228	0.0150129
809.307	0.0150222
809.385	0.0149890
809.463	0.0151144
809.541	0.0149189
809.619	0.0150377
809.697	0.0150963
809.775	0.0149091
809.853	0.0150055
809.932	0.0151556
810.010	0.0149660
810.088	0.0147874
810.166	0.0147226
810.244	0.0147563
810.322	0.0147152
810.400	0.0146130
810.478	0.0145434
810.557	0.0145396
810.635	0.0142374
810.713	0.0143061
810.791	0.0142537
810.869	0.0140969
810.947	0.0140158
811.025	0.0142085
811.103	0.0141375
811.182	0.0140626
811.260	0.0139848
811.338	0.0139027
811.416	0.0140613
811.494	0.0140121
811.572	0.0140874
811.650	0.0142271
811.728	0.0142088
811.807	0.0142031
811.885	0.0140193
811.963	0.0141012
812.041	0.0142493
812.119	0.0142692
812.197	0.0142915
812.275	0.0143415
812.353	0.0144144
812.432	0.0143861
812.510	0.0142975
812.588	0.0144289
812.666	0.0144099
812.744	0.0142887
812.822	0.0143736
812.900	0.0143372
812.978	0.0142519
813.057	0.0143092
813.135	0.0143124
813.213	0.0142932
813.291	0.0142284
813.369	0.0142732
813.447	0.0141531
813.525	0.0143227
813.603	0.0143537
813.682	0.0142473
813.760	0.0142833
813.838	0.0143184
813.916	0.0144066
813.994	0.0145025
814.072	0.0145119
814.150	0.0145243
814.228	0.0146159
814.307	0.0146015
814.385	0.0146855
814.463	0.0147935
814.541	0.0147023
814.619	0.0148352
814.697	0.0149020
814.775	0.0148940
814.853	0.0148073
814.932	0.0149175
815.010	0.0151305
815.088	0.0150247
815.166	0.0149745
815.244	0.0149209
815.322	0.0150404
815.400	0.0148511
815.478	0.0151086
815.557	0.0149468
815.635	0.0150250
815.713	0.0148577
815.791	0.0148862
815.869	0.0148507
815.947	0.0148569
816.025	0.0147723
816.103	0.0147233
816.182	0.0146382
816.260	0.0145753
816.338	0.0146870
816.416	0.0144142
816.494	0.0142887
816.572	0.0144010
816.650	0.0144255
816.728	0.0143422
816.807	0.0142448
816.885	0.0143071
816.963	0.0140977
817.041	0.0142432
817.119	0.0140855
817.197	0.0140697
817.275	0.0140941
817.353	0.0142298
817.432	0.0142012
817.510	0.0141378
817.588	0.0141782
817.666	0.0143624
817.744	0.0141618
817.822	0.0142173
817.900	0.0142249
817.978	0.0142770
818.057	0.0144598
818.135	0.0142678
818.213	0.0142197
818.291	0.0143941
818.369	0.0143497
818.447	0.0142420
818.525	0.0140588
818.603	0.0141246
818.682	0.0141116
818.760	0.0141702
818.838	0.0140371
818.916	0.0141692
818.994	0.0141100
819.072	0.0140073
819.150	0.0140055
819.228	0.0139576
819.307	0.0139570
819.385	0.0140195
819.463	0.0139220
819.541	0.0139271
819.619	0.0139185
819.697	0.0137672
819.775	0.0138730
819.853	0.0140514
819.932	0.0139586
820.010	0.0138422
820.088	0.0140878
820.166	0.0140945
820.244	0.0141975
820.322	0.0142487
820.400	0.0143216
820.478	0.0144474
820.557	0.0146376
820.635	0.0144652
820.713	0.0144637
820.791	0.0145157
820.869	0.0146896
820.947	0.0146950
821.025	0.0147625
821.103	0.0147536
821.182	0.0147504
821.260	0.0145532
821.338	0.0145731
821.416	0.0146268
821.494	0.0145687
821.572	0.0145904
821.650	0.0146925
821.728	0.0147479
821.807	0.0145903
821.885	0.0146011
821.963	0.0146949
822.041	0.0145662
822.119	0.0146816
822.197	0.0146513
822.275	0.0146022
822.353	0.0144678
822.432	0.0145195
822.510	0.0144266
822.588	0.0143120
822.666	0.0143087
822.744	0.0144102
822.822	0.0142253
822.900	0.0141611
822.978	0.0142644
823.057	0.0141539
823.135	0.0140753
823.213	0.0141183
823.291	0.0139974
823.369	0.0140075
823.447	0.0141254
823.525	0.0139162
823.603	0.0139536
823.682	0.0140389
823.760	0.0141203
823.838	0.0141158
823.916	0.0140139
823.994	0.0141640
824.072	0.0141205
824.150	0.0142222
824.228	0.0142396
824.307	0.0142914
824.385	0.0142410
824.463	0.0144833
824.541	0.0142957
824.619	0.0143815
824.697	0.0143155
824.775	0.0144307
824.853	0.0144180
824.932	0.0142415
825.010	0.0143368
825.088	0.0144826
825.166	0.0143944
825.244	0.0142529
825.322	0.0143490
825.400	0.0144782
825.478	0.0144715
825.557	0.0144538
825.635	0.0143169
825.713	0.0143477
825.791	0.0143571
825.869	0.0144932
825.947	0.0142883
826.025	0.0143550
826.103	0.0141727
826.182	0.0142576
826.260	0.0142341
826.338	0.0142112
826.416	0.0142579
826.494	0.0141617
826.572	0.0140900
826.650	0.0141405
826.728	0.0143279
826.807	0.0141331
826.885	0.0139906
826.963	0.0140285
827.041	0.0141543
827.119	0.0142455
827.197	0.0141561
827.275	0.0142023
827.353	0.0143287
827.432	0.0142114
827.510	0.0141147
827.588	0.0141844
827.666	0.0143622
827.744	0.0142889
827.822	0.0143897
827.900	0.0144675
827.978	0.0145479
828.057	0.0145748
828.135	0.0145388
828.213	0.0145663
828.291	0.0146638
828.369	0.0147560
828.447	0.0147325
828.525	0.0147409
828.603	0.0146599
828.682	0.0147411
828.760	0.0147731
828.838	0.0146221
828.916	0.0145076
828.994	0.0145975
829.072	0.0146455
829.150	0.0144459
829.228	0.0144550
829.307	0.0144900
829.385	0.0144844
829.463	0.0143945
829.541	0.0142856
829.619	0.0144164
829.697	0.0143526
829.775	0.0144115
829.853	0.0143092
829.932	0.0143616
830.010	0.0144510
830.088	0.0143050
830.166	0.0141790
830.244	0.0141693
830.322	0.0141715
830.400	0.0143540
830.478	0.0143139
830.557	0.0141012
830.635	0.0141617
830.713	0.0142395
830.791	0.0143156
830.869	0.0141777
830.947	0.0141589
831.025	0.0141820
831.103	0.0142899
831.182	0.0143939
831.260	0.0142358
831.338	0.0142434
831.416	0.0142252
831.494	0.0143008
831.572	0.0142394
831.650	0.0142851
831.728	0.0144735
831.807	0.0144609
831.885	0.0142710
831.963	0.0143535
832.041	0.0143976
832.119	0.0144581
832.197	0.0144726
832.275	0.0144766
832.353	0.0142952
832.432	0.0144244
832.510	0.0144978
832.588	0.0143734
832.666	0.0144213
832.744	0.0145409
832.822	0.0146019
832.900	0.0146926
832.978	0.0145716
833.057	0.0145072
833.135	0.0146669
833.213	0.0145611
833.291	0.0145570
833.369	0.0146844
833.447	0.0146790
833.525	0.0145992
833.603	0.0146530
833.682	0.0145935
833.760	0.0146314
833.838	0.0146976
833.916	0.0147095
833.994	0.0146982
834.072	0.0146255
834.150	0.0148071
834.228	0.0146161
834.307	0.0146172
834.385	0.0146188
834.463	0.0146435
834.541	0.0146607
834.619	0.0145451
834.697	0.0144885
834.775	0.0145091
834.853	0.0143703
834.932	0.0143687
835.010	0.0145258
835.088	0.0142823
835.166	0.0142441
835.244	0.0144221
835.322	0.0144353
835.400	0.0143342
835.478	0.0143517
835.557	0.0143008
835.635	0.0143490
835.713	0.0144530
835.791	0.0144550
835.869	0.0145401
835.947	0.0145304
836.025	0.0144814
836.103	0.0145345
836.182	0.0145735
836.260	0.0146657
836.338	0.0148154
836.416	0.0146214
836.494	0.0147444
836.572	0.0146655
836.650	0.0148077
836.728	0.0146434
836.807	0.0147434
836.885	0.0147007
836.963	0.0146829
837.041	0.0146906
837.119	0.0146770
837.197	0.0145523
837.275	0.0146749
837.353	0.0145963
837.432	0.0146835
837.510	0.0145973
837.588	0.0145095
837.666	0.0145292
837.744	0.0145345
837.822	0.0145970
837.900	0.0144707
837.978	0.0145873
838.057	0.0145686
838.135	0.0145386
838.213	0.0146113
838.291	0.0147041
838.369	0.0146636
838.447	0.0146510
838.525	0.0147099
838.603	0.0145855
838.682	0.0147288
838.760	0.0146468
838.838	0.0147108
838.916	0.0147366
838.994	0.0146491
839.072	0.0146216
839.150	0.0146549
839.228	0.0145915
839.307	0.0145328
839.385	0.0146693
839.463	0.0146570
839.541	0.0146241
839.619	0.0145918
839.697	0.0146432
839.775	0.0145580
839.853	0.0146099
839.932	0.0144836
840.010	0.0146789
840.088	0.0146991
840.166	0.0147505
840.244	0.0147823
840.322	0.0148029
840.400	0.0146662
840.478	0.0145496
840.557	0.0146565
840.635	0.0145703
840.713	0.0144541
840.791	0.0144984
840.869	0.0144432
840.947	0.0143830
841.025	0.0143455
841.103	0.0143410
841.182	0.0140903
841.260	0.0140327
841.338	0.0143139
841.416	0.0141641
841.494	0.0140543
841.572	0.0140405
841.650	0.0141250
841.728	0.0137910
841.807	0.0139049
841.885	0.0141269
841.963	0.0139490
842.041	0.0140093
842.119	0.0139905
842.197	0.0140536
842.275	0.0139501
842.353	0.0139262
842.432	0.0141254
842.510	0.0140693
842.588	0.0139912
842.666	0.0139819
842.744	0.0139953
842.822	0.0140019
842.900	0.0140430
842.978	0.0141756
843.057	0.0142677
843.135	0.0140957
843.213	0.0140797
843.291	0.0142846
843.369	0.0141525
843.447	0.0141629
843.525	0.0142238
843.603	0.0141265
843.682	0.0141518
843.760	0.0140420
843.838	0.0142004
843.916	0.0143177
843.994	0.0142249
844.072	0.0139992
844.150	0.0142188
844.228	0.0142915
844.307	0.0142918
844.385	0.0143382
844.463	0.0143893
844.541	0.0142715
844.619	0.0144690
844.697	0.0145419
844.775	0.0144948
844.853	0.0144574
844.932	0.0146771
845.010	0.0147151
845.088	0.0146046
845.166	0.0145098
845.244	0.0147189
845.322	0.0147550
845.400	0.0146301
845.478	0.0145821
845.557	0.0146358
845.635	0.0147128
845.713	0.0145744
845.791	0.0144792
845.869	0.0145371
845.947	0.0145557
846.025	0.0144227
846.103	0.0144781
846.182	0.0144316
846.260	0.0144759
846.338	0.0143871
846.416	0.0143841
846.494	0.0143159
846.572	0.0142252
846.650	0.0142390
846.728	0.0142499
846.807	0.0141782
846.885	0.0140030
846.963	0.0140530
847.041	0.0140720
847.119	0.0140783
847.197	0.0139281
847.275	0.0141209
847.353	0.0142258
847.432	0.0141447
847.510	0.0141348
847.588	0.0140977
847.666	0.0140928
847.744	0.0142862
847.822	0.0141265
847.900	0.0140418
847.978	0.0142833
848.057	0.0141951
848.135	0.0142085
848.213	0.0142079
848.291	0.0140868
848.369	0.0140395
848.447	0.0140307
848.525	0.0140914
848.603	0.0141390
848.682	0.0142022
848.760	0.0142074
848.838	0.0142134
848.916	0.0142565
848.994	0.0140918
849.072	0.0141925
849.150	0.0141982
849.228	0.0142526
849.307	0.0142849
849.385	0.0143856
849.463	0.0144131
849.541	0.0144395
849.619	0.0144852
849.697	0.0146301
849.775	0.0144548
849.853	0.0144000
849.932	0.0145779
850.010	0.0145640
850.088	0.0145027
850.166	0.0146834
850.244	0.0145485
850.322	0.0144229
850.400	0.0144638
850.478	0.0144182
850.557	0.0144758
850.635	0.0143122
850.713	0.0142912
850.791	0.0142536
850.869	0.0143077
850.947	0.0141780
851.025	0.0142751
851.103	0.0142796
851.182	0.0142559
851.260	0.0142966
851.338	0.0141270
851.416	0.0143593
851.494	0.0142605
851.572	0.0142798
851.650	0.0143935
851.728	0.0143566
851.807	0.0143672
851.885	0.0142990
851.963	0.0143280
852.041	0.0144629
852.119	0.0145249
852.197	0.0144511
852.275	0.0144891
852.353	0.0145568
852.432	0.0144414
852.510	0.0145456
852.588	0.0145238
852.666	0.0145060
852.744	0.0146224
852.822	0.0146207
852.900	0.0145585
852.978	0.0145112
853.057	0.0145956
853.135	0.0145974
853.213	0.0146243
853.291	0.0145343
853.369	0.0142998
853.447	0.0143148
853.525	0.0143659
853.603	0.0142876
853.682	0.0144243
853.760	0.0142877
853.838	0.0144020
853.916	0.0142941
853.994	0.0144274
854.072	0.0142229
854.150	0.0141796
854.228	0.0143442
854.307	0.0142031
854.385	0.0143005
854.463	0.0143097
854.541	0.0143776
854.619	0.0143050
854.697	0.0143223
854.775	0.0144042
854.853	0.0143810
854.932	0.0143214
855.010	0.0142804
855.088	0.0143732
855.166	0.0143423
855.244	0.0143151
855.322	0.0144966
855.400	0.0142915
855.478	0.0144466
855.557	0.0144360
855.635	0.0143266
855.713	0.0141642
855.791	0.0144337
855.869	0.0143961
855.947	0.0144952
856.025	0.0142535
856.103	0.0143524
856.182	0.0142818
856.260	0.0142966
856.338	0.0145229
856.416	0.0145664
856.494	0.0144544
856.572	0.0144878
856.650	0.0145232
856.728	0.0146027
856.807	0.0146820
856.885	0.0146921
856.963	0.0147390
857.041	0.0147531
857.119	0.0146910
857.197	0.0146256
857.275	0.0145788
857.353	0.0144792
857.432	0.0145741
857.510	0.0144633
857.588	0.0146431
857.666	0.0145995
857.744	0.0144247
857.822	0.0142953
857.900	0.0144428
857.978	0.0145127
858.057	0.0144690
858.135	0.0144558
858.213	0.0143345
858.291	0.0142999
858.369	0.0142573
858.447	0.0143980
858.525	0.0142667
858.603	0.0143275
858.682	0.0142756
858.760	0.0142594
858.838	0.0141850
858.916	0.0142214
858.994	0.0142419
859.072	0.0141402
859.150	0.0143366
859.228	0.0141582
859.307	0.0142489
859.385	0.0141831
859.463	0.0142216
859.541	0.0140911
859.619	0.0141451
859.697	0.0144061
859.775	0.0143455
859.853	0.0143838
859.932	0.0143147
860.010	0.0143076
860.088	0.0143445
860.166	0.0143655
860.244	0.0144719
860.322	0.0145479
860.400	0.0146484
860.478	0.0145200
860.557	0.0146102
860.635	0.0147041
860.713	0.0145823
860.791	0.0145860
860.869	0.0148772
860.947	0.0147058
861.025	0.0147237
861.103	0.0145760
861.182	0.0147078
861.260	0.0147535
861.338	0.0147545
861.416	0.0147784
861.494	0.0146301
861.572	0.0146946
861.650	0.0146842
861.728	0.0146925
861.807	0.0146082
861.885	0.0146580
861.963	0.0148188
862.041	0.0148303
862.119	0.0147525
862.197	0.0148978
862.275	0.0146161
862.353	0.0146597
862.432	0.0147330
862.510	0.0146857
862.588	0.0146542
862.666	0.0146305
862.744	0.0146905
862.822	0.0145538
862.900	0.0144814
862.978	0.0145213
863.057	0.0143990
863.135	0.0145803
863.213	0.0145198
863.291	0.0143551
863.369	0.0141505
863.447	0.0142619
863.525	0.0142469
863.603	0.0142548
863.682	0.0141572
863.760	0.0142208
863.838	0.0141003
863.916	0.0140740
863.994	0.0140768
864.072	0.0140475
864.150	0.0141271
864.228	0.0140787
864.307	0.0140289
864.385	0.0141656
864.463	0.0141778
864.541	0.0141762
864.619	0.0141292
864.697	0.0142968
864.775	0.0142393
864.853	0.0143710
864.932	0.0142921
865.010	0.0143982
865.088	0.0145033
865.166	0.0144611
865.244	0.0144475
865.322	0.0143910
865.400	0.0143806
865.478	0.0143784
865.557	0.0143832
865.635	0.0145411
865.713	0.0145383
865.791	0.0145503
865.869	0.0143942
865.947	0.0143899
866.025	0.0143919
866.103	0.0143906
866.182	0.0144474
866.260	0.0143221
866.338	0.0143354
866.416	0.0144295
866.494	0.0144418
866.572	0.0144173
866.650	0.0143326
866.728	0.0143262
866.807	0.0142113
866.885	0.0142145
866.963	0.0142981
867.041	0.0142728
867.119	0.0143053
867.197	0.0142920
867.275	0.0143670
867.353	0.0145815
867.432	0.0143305
867.510	0.0144314
867.588	0.0145711
867.666	0.0146304
867.744	0.0147260
867.822	0.0146420
867.900	0.0147610
867.978	0.0146229
868.057	0.0147072
868.135	0.0145975
868.213	0.0146988
868.291	0.0147025
868.369	0.0147269
868.447	0.0147568
868.525	0.0146964
868.603	0.0147188
868.682	0.0147001
868.760	0.0149024
868.838	0.0147461
868.916	0.0146296
868.994	0.0146472
869.072	0.0145973
869.150	0.0147026
869.228	0.0146391
869.307	0.0146377
869.385	0.0146352
869.463	0.0147313
869.541	0.0144337
869.619	0.0143678
869.697	0.0142731
869.775	0.0144173
869.853	0.0142160
869.932	0.0143156
870.010	0.0143293
870.088	0.0142599
870.166	0.0143606
870.244	0.0142688
870.322	0.0142387
870.400	0.0141618
870.478	0.0142668
870.557	0.0142258
870.635	0.0143329
870.713	0.0142861
870.791	0.0144266
870.869	0.0144981
870.947	0.0143549
871.025	0.0143144
871.103	0.0142326
871.182	0.0144009
871.260	0.0143790
871.338	0.0143448
871.416	0.0143946
871.494	0.0142675
871.572	0.0143855
871.650	0.0142815
871.728	0.0142776
871.807	0.0140813
871.885	0.0142243
871.963	0.0140685
872.041	0.0139677
872.119	0.0140977
872.197	0.0140714
872.275	0.0140488
872.353	0.0139969
872.432	0.0142421
872.510	0.0139996
872.588	0.0140488
872.666	0.0142381
872.744	0.0140369
872.822	0.0141878
872.900	0.0142725
872.978	0.0144013
873.057	0.0143394
873.135	0.0145577
873.213	0.0145992
873.291	0.0145049
873.369	0.0145731
873.447	0.0147134
873.525	0.0147018
873.603	0.0146938
873.682	0.0147078
873.760	0.0146848
873.838	0.0147600
873.916	0.0146703
873.994	0.0149287
874.072	0.0148713
874.150	0.0147791
874.228	0.0148168
874.307	0.0148650
874.385	0.0147219
874.463	0.0148641
874.541	0.0148611
874.619	0.0146365
874.697	0.0145409
874.775	0.0147172
874.853	0.0147307
874.932	0.0144640
875.010	0.0145551
875.088	0.0145217
875.166	0.0143757
875.244	0.0143919
875.322	0.0143145
875.400	0.0142416
875.478	0.0142738
875.557	0.0143066
875.635	0.0142572
875.713	0.0142979
875.791	0.0142099
875.869	0.0142336
875.947	0.0143065
876.025	0.0142031
876.103	0.0142688
876.182	0.0142967
876.260	0.0142049
876.338	0.0141267
876.416	0.0143029
876.494	0.0143558
876.572	0.0142860
876.650	0.0141987
876.728	0.0142060
876.807	0.0143558
876.885	0.0144191
876.963	0.0143452
877.041	0.0143180
877.119	0.0143776
877.197	0.0144447
877.275	0.0146603
877.353	0.0145225
877.432	0.0144463
877.510	0.0146895
877.588	0.0146211
877.666	0.0146500
877.744	0.0145082
877.822	0.0144512
877.900	0.0144249
877.978	0.0144720
878.057	0.0143273
878.135	0.0144597
878.213	0.0143787
878.291	0.0144464
878.369	0.0144166
878.447	0.0143000
878.525	0.0141626
878.603	0.0143019
878.682	0.0142553
878.760	0.0142210
878.838	0.0141473
878.916	0.0142873
878.994	0.0141409
879.072	0.0140133
879.150	0.0139258
879.228	0.0139490
879.307	0.0139213
879.385	0.0138808
879.463	0.0138955
879.541	0.0138340
879.619	0.0137801
879.697	0.0139055
879.775	0.0139322
879.853	0.0139531
879.932	0.0139509
880.010	0.0139648
880.088	0.0139583
880.166	0.0141003
880.244	0.0140150
880.322	0.0141898
880.400	0.0141506
880.478	0.0142987
880.557	0.0144131
880.635	0.0143079
880.713	0.0142966
880.791	0.0143636
880.869	0.0145530
880.947	0.0144204
881.025	0.0144759
881.103	0.0144539
881.182	0.0145520
881.260	0.0145344
881.338	0.0145547
881.416	0.0146574
881.494	0.0145862
881.572	0.0145363
881.650	0.0148146
881.728	0.0147612
881.807	0.0148099
881.885	0.0147024
881.963	0.0145555
882.041	0.0147901
882.119	0.0147449
882.197	0.0146622
882.275	0.0146582
882.353	0.0145966
882.432	0.0146293
882.510	0.0146255
882.588	0.0144019
882.666	0.0145358
882.744	0.0144614
882.822	0.0144985
882.900	0.0144806
882.978	0.0145899
883.057	0.0143987
883.135	0.0143565
883.213	0.0143811
883.291	0.0144292
883.369	0.0145010
883.447	0.0143690
883.525	0.0142390
883.603	0.0143005
883.682	0.0143011
883.760	0.0141618
883.838	0.0141225
883.916	0.0139758
883.994	0.0139957
884.072	0.0139291
884.150	0.0139581
884.228	0.0139683
884.307	0.0140057
884.385	0.0138638
884.463	0.0140029
884.541	0.0140136
884.619	0.0140296
884.697	0.0141160
884.775	0.0142691
884.853	0.0144820
884.932	0.0145292
885.010	0.0142973
885.088	0.0144732
885.166	0.0145473
885.244	0.0145142
885.322	0.0146403
885.400	0.0146438
885.478	0.0147185
885.557	0.0147757
885.635	0.0145702
885.713	0.0147205
885.791	0.0147638
885.869	0.0146014
885.947	0.0146106
886.025	0.0146742
886.103	0.0147070
886.182	0.0146557
886.260	0.0145412
886.338	0.0146395
886.416	0.0145827
886.494	0.0143544
886.572	0.0143328
886.650	0.0142995
886.728	0.0142852
886.807	0.0142473
886.885	0.0143020
886.963	0.0141581
887.041	0.0141299
887.119	0.0141928
887.197	0.0141182
887.275	0.0142393
887.353	0.0141021
887.432	0.0140578
887.510	0.0141748
887.588	0.0142393
887.666	0.0144078
887.744	0.0144263
887.822	0.0143473
887.900	0.0143403
887.978	0.0145271
888.057	0.0146097
888.135	0.0146442
888.213	0.0146229
888.291	0.0146288
888.369	0.0146526
888.447	0.0147158
888.525	0.0147298
888.603	0.0148101
888.682	0.0146881
888.760	0.0146513
888.838	0.0147426
888.916	0.0149468
888.994	0.0147974
889.072	0.0149963
889.150	0.0147546
889.228	0.0146781
889.307	0.0147944
889.385	0.0147773
889.463	0.0146757
889.541	0.0146423
889.619	0.0146486
889.697	0.0144142
889.775	0.0144305
889.853	0.0143763
889.932	0.0145351
890.010	0.0144248
890.088	0.0143938
890.166	0.0142206
890.244	0.0142896
890.322	0.0142927
890.400	0.0143718
890.478	0.0143217
890.557	0.0144266
890.635	0.0144650
890.713	0.0144321
890.791	0.0145060
890.869	0.0144456
890.947	0.0144031
891.025	0.0145243
891.103	0.0144260
891.182	0.0144901
891.260	0.0144713
891.338	0.0145248
891.416	0.0144827
891.494	0.0146035
891.572	0.0142634
891.650	0.0142350
891.728	0.0143020
891.807	0.0144359
891.885	0.0144118
891.963	0.0142268
892.041	0.0142815
892.119	0.0142520
892.197	0.0141945
892.275	0.0143396
892.353	0.0143465
892.432	0.0141827
892.510	0.0140759
892.588	0.0141269
892.666	0.0140901
892.744	0.0142196
892.822	0.0141930
892.900	0.0142191
892.978	0.0141747
893.057	0.0142225
893.135	0.0143416
893.213	0.0143215
893.291	0.0144344
893.369	0.0144967
893.447	0.0146380
893.525	0.0148037
893.603	0.0147481
893.682	0.0148077
893.760	0.0149215
893.838	0.0149211
893.916	0.0149680
893.994	0.0150235
894.072	0.0150391
894.150	0.0149597
894.228	0.0149416
894.307	0.0149496
894.385	0.0149762
894.463	0.0148593
894.541	0.0147762
894.619	0.0147742
894.697	0.0147043
894.775	0.0146439
894.853	0.0145063
894.932	0.0145374
895.010	0.0143962
895.088	0.0144275
895.166	0.0142346
895.244	0.0142638
895.322	0.0141651
895.400	0.0142706
895.478	0.0142847
895.557	0.0142502
895.635	0.0143076
895.713	0.0142464
895.791	0.0143221
895.869	0.0142644
895.947	0.0144372
896.025	0.0142145
896.103	0.0144460
896.182	0.0145087
896.260	0.0145563
896.338	0.0146230
896.416	0.0146184
896.494	0.0146820
896.572	0.0146601
896.650	0.0148256
896.728	0.0148546
896.807	0.0146666
896.885	0.0146569
896.963	0.0147655
897.041	0.0146011
897.119	0.0146214
897.197	0.0145292
897.275	0.0145551
897.353	0.0144595
897.432	0.0143764
897.510	0.0143776
897.588	0.0143305
897.666	0.0142934
897.744	0.0141833
897.822	0.0143479
897.900	0.0143218
897.978	0.0142596
898.057	0.0142232
898.135	0.0143685
898.213	0.0143936
898.291	0.0143817
898.369	0.0144330
898.447	0.0144576
898.525	0.0145054
898.603	0.0145775
898.682	0.0147126
898.760	0.0146336
898.838	0.0145817
898.916	0.0145453
898.994	0.0145329
899.072	0.0146283
899.150	0.0145689
899.228	0.0145874
899.307	0.0145643
899.385	0.0145341
899.463	0.0146066
899.541	0.0146465
899.619	0.0145996
899.697	0.0145803
899.775	0.0145770
899.853	0.0145555
899.932	0.0144913
900.010	0.0145444
900.088	0.0143536
900.166	0.0144241
900.244	0.0145450
900.322	0.0144177
900.400	0.0143188
900.478	0.0142732
900.557	0.0143130
900.635	0.0142163
900.713	0.0142360
900.791	0.0143849
900.869	0.0143452
900.947	0.0141180
901.025	0.0144058
901.103	0.0143736
901.182	0.0142841
901.260	0.0142715
901.338	0.0143343
901.416	0.0141833
901.494	0.0142822
901.572	0.0143314
901.650	0.0143333
901.728	0.0144411
901.807	0.0144581
901.885	0.0143531
901.963	0.0144044
902.041	0.0146165
902.119	0.0143362
902.197	0.0143329
902.275	0.0144469
902.353	0.0141975
902.432	0.0143026
902.510	0.0143509
902.588	0.0143728
902.666	0.0143375
902.744	0.0143328
902.822	0.0143777
902.900	0.0144260
902.978	0.0144823
903.057	0.0143476
903.135	0.0143076
903.213	0.0143695
903.291	0.0144409
903.369	0.0143264
903.447	0.0143513
903.525	0.0143795
903.603	0.0141941
903.682	0.0141634
903.760	0.0142505
903.838	0.0141929
903.916	0.0142709
903.994	0.0142208
904.072	0.0142229
904.150	0.0141630
904.228	0.0141894
904.307	0.0141241
904.385	0.0141611
904.463	0.0142257
904.541	0.0140668
904.619	0.0140446
904.697	0.0141768
904.775	0.0142560
904.853	0.0141122
904.932	0.0141893
905.010	0.0142474
905.088	0.0141958
905.166	0.0142518
905.244	0.0143933
905.322	0.0143267
905.400	0.0142651
905.478	0.0144614
905.557	0.0143992
905.635	0.0144664
905.713	0.0145095
905.791	0.0145943
905.869	0.0145119
905.947	0.0145052
906.025	0.0145409
906.103	0.0144689
906.182	0.0145172
906.260	0.0145450
906.338	0.0144883
906.416	0.0143047
906.494	0.0143875
906.572	0.0144012
906.650	0.0143056
906.728	0.0143586
906.807	0.0142917
906.885	0.0144173
906.963	0.0144516
907.041	0.0144397
907.119	0.0143853
907.197	0.0142741
907.275	0.0141822
907.353	0.0144351
907.432	0.0142413
907.510	0.0141407
907.588	0.0141994
907.666	0.0142044
907.744	0.0141742
907.822	0.0142191
907.900	0.0141507
907.978	0.0140363
908.057	0.0140639
908.135	0.0140552
908.213	0.0141590
908.291	0.0140572
908.369	0.0141236
908.447	0.0140917
908.525	0.0141195
908.603	0.0141763
908.682	0.0141930
908.760	0.0142313
908.838	0.0142662
908.916	0.0141637
908.994	0.0141731
909.072	0.0142531
909.150	0.0143816
909.228	0.0141780
909.307	0.0141849
909.385	0.0142782
909.463	0.0143943
909.541	0.0142699
909.619	0.0144692
909.697	0.0143383
909.775	0.0142427
909.853	0.0143703
909.932	0.0142614
910.010	0.0144134
910.088	0.0144527
910.166	0.0144753
910.244	0.0146310
910.322	0.0144314
910.400	0.0144317
910.478	0.0144598
910.557	0.0145534
910.635	0.0145414
910.713	0.0145773
910.791	0.0144865
910.869	0.0144484
910.947	0.0145114
911.025	0.0145087
911.103	0.0145673
911.182	0.0144088
911.260	0.0145003
911.338	0.0143934
911.416	0.0144455
911.494	0.0141950
911.572	0.0142096
911.650	0.0144523
911.728	0.0144373
911.807	0.0143094
911.885	0.0144360
911.963	0.0143890
912.041	0.0144522
912.119	0.0143312
912.197	0.0143315
912.275	0.0143481
912.353	0.0145354
912.432	0.0144662
912.510	0.0144628
912.588	0.0145488
912.666	0.0145676
912.744	0.0143812
912.822	0.0145261
912.900	0.0143868
912.978	0.0145040
913.057	0.0145335
913.135	0.0145038
913.213	0.0144885
913.291	0.0144408
913.369	0.0144265
913.447	0.0144568
913.525	0.0142936
913.603	0.0143947
913.682	0.0143871
913.760	0.0143222
913.838	0.0142753
913.916	0.0143389
913.994	0.0141682
914.072	0.0142241
914.150	0.0143634
914.228	0.0142697
914.307	0.0142252
914.385	0.0144127
914.463	0.0142677
914.541	0.0143726
914.619	0.0142764
914.697	0.0144511
914.775	0.0144207
914.853	0.0143354
914.932	0.0146507
915.010	0.0146071
915.088	0.0145687
915.166	0.0145059
915.244	0.0145818
915.322	0.0146158
915.400	0.0146162
915.478	0.0146696
915.557	0.0145689
915.635	0.0146457
915.713	0.0145387
915.791	0.0146587
915.869	0.0145200
915.947	0.0145566
916.025	0.0145124
916.103	0.0145441
916.182	0.0144891
916.260	0.0144500
916.338	0.0145258
916.416	0.0144271
916.494	0.0143757
916.572	0.0144410
916.650	0.0145239
916.728	0.0143195
916.807	0.0142835
916.885	0.0142455
916.963	0.0144098
917.041	0.0145191
917.119	0.0145148
917.197	0.0143409
917.275	0.0145717
917.353	0.0144623
917.432	0.0144237
917.510	0.0143772
917.588	0.0146016
917.666	0.0144273
917.744	0.0144621
917.822	0.0145032
917.900	0.0144940
917.978	0.0144366
918.057	0.0144343
918.135	0.0144228
918.213	0.0144572
918.291	0.0143396
918.369	0.0144678
918.447	0.0144714
918.525	0.0144628
918.603	0.0144217
918.682	0.0144100
918.760	0.0144102
918.838	0.0144222
918.916	0.0143980
918.994	0.0144860
919.072	0.0143881
919.150	0.0144286
919.228	0.0145439
919.307	0.0143749
919.385	0.0144032
919.463	0.0143669
919.541	0.0143204
919.619	0.0143353
919.697	0.0144135
919.775	0.0143936
919.853	0.0142622
919.932	0.0143583
920.010	0.0144054
920.088	0.0144321
920.166	0.0144015
920.244	0.0143171
920.322	0.0143179
920.400	0.0144386
920.478	0.0143014
920.557	0.0144304
920.635	0.0144615
920.713	0.0144981
920.791	0.0144812
920.869	0.0146201
920.947	0.0145538
921.025	0.0145937
921.103	0.0145612
921.182	0.0146458
921.260	0.0145882
921.338	0.0144990
921.416	0.0145741
921.494	0.0145479
921.572	0.0145655
921.650	0.0144770
921.728	0.0145974
921.807	0.0143665
921.885	0.0145531
921.963	0.0144144
922.041	0.0143758
922.119	0.0144454
922.197	0.0143727
922.275	0.0143120
922.353	0.0141709
922.432	0.0141703
922.510	0.0142047
922.588	0.0142643
922.666	0.0141570
922.744	0.0143638
922.822	0.0142777
922.900	0.0142757
922.978	0.0141431
923.057	0.0141866
923.135	0.0144152
923.213	0.0141881
923.291	0.0143111
923.369	0.0143307
923.447	0.0143482
923.525	0.0143570
923.603	0.0144552
923.682	0.0142672
923.760	0.0142844
923.838	0.0145422
923.916	0.0144362
923.994	0.0143994
924.072	0.0145425
924.150	0.0146017
924.228	0.0144467
924.307	0.0145197
924.385	0.0144778
924.463	0.0144114
924.541	0.0144263
924.619	0.0145150
924.697	0.0144394
924.775	0.0143893
924.853	0.0143935
924.932	0.0143710
925.010	0.0144078
925.088	0.0142521
925.166	0.0145351
925.244	0.0144122
925.322	0.0142447
925.400	0.0145145
925.478	0.0144061
925.557	0.0143561
925.635	0.0145326
925.713	0.0144289
925.791	0.0143016
925.869	0.0144258
925.947	0.0142735
926.025	0.0144149
926.103	0.0144015
926.182	0.0143315
926.260	0.0144419
926.338	0.0143172
926.416	0.0144811
926.494	0.0141718
926.572	0.0142750
926.650	0.0142555
926.728	0.0143019
926.807	0.0143040
926.885	0.0142219
926.963	0.0142498
927.041	0.0143372
927.119	0.0143400
927.197	0.0141551
927.275	0.0142270
927.353	0.0141829
927.432	0.0144058
927.510	0.0142741
927.588	0.0142156
927.666	0.0143430
927.744	0.0143431
927.822	0.0143486
927.900	0.0143783
927.978	0.0143767
928.057	0.0143977
928.135	0.0145512
928.213	0.0145621
928.291	0.0145419
928.369	0.0144376
928.447	0.0143265
928.525	0.0144538
928.603	0.0143864
928.682	0.0144152
928.760	0.0144625
928.838	0.0143722
928.916	0.0144803
928.994	0.0144710
929.072	0.0143911
929.150	0.0143925
929.228	0.0143968
929.307	0.0143686
929.385	0.0142386
929.463	0.0143245
929.541	0.0144114
929.619	0.0142462
929.697	0.0142691
929.775	0.0143026
929.853	0.0142289
929.932	0.0143419
930.010	0.0142267
930.088	0.0142470
930.166	0.0143197
930.244	0.0141594
930.322	0.0142366
930.400	0.0141853
930.478	0.0142268
930.557	0.0143465
930.635	0.0142616
930.713	0.0142252
930.791	0.0142891
930.869	0.0141621
930.947	0.0143649
931.025	0.0142870
931.103	0.0142191
931.182	0.0143192
931.260	0.0143064
931.338	0.0142408
931.416	0.0143839
931.494	0.0144355
931.572	0.0143658
931.650	0.0142908
931.728	0.0142538
931.807	0.0143081
931.885	0.0143927
931.963	0.0143141
932.041	0.0143659
932.119	0.0143969
932.197	0.0144808
932.275	0.0144156
932.353	0.0143979
932.432	0.0144037
932.510	0.0144614
932.588	0.0144072
932.666	0.0144833
932.744	0.0144575
932.822	0.0145658
932.900	0.0145901
932.978	0.0144932
933.057	0.0144913
933.135	0.0144509
933.213	0.0144805
933.291	0.0145077
933.369	0.0145361
933.447	0.0145345
933.525	0.0144915
933.603	0.0143845
933.682	0.0144541
933.760	0.0144894
933.838	0.0145644
933.916	0.0144823
933.994	0.0144880
934.072	0.0144004
934.150	0.0143378
934.228	0.0143314
934.307	0.0144743
934.385	0.0144991
934.463	0.0143593
934.541	0.0142503
934.619	0.0143815
934.697	0.0142664
934.775	0.0142383
934.853	0.0143103
934.932	0.0143012
935.010	0.0143068
935.088	0.0143230
935.166	0.0144249
935.244	0.0143008
935.322	0.0142406
935.400	0.0143162
935.478	0.0143625
935.557	0.0142181
935.635	0.0144167
935.713	0.0143430
935.791	0.0144260
935.869	0.0142787
935.947	0.0142948
936.025	0.0145146
936.103	0.0142979
936.182	0.0144297
936.260	0.0146349
936.338	0.0144334
936.416	0.0144668
936.494	0.0145187
936.572	0.0145567
936.650	0.0145787
936.728	0.0144508
936.807	0.0145043
936.885	0.0145577
936.963	0.0144006
937.041	0.0144144
937.119	0.0143501
937.197	0.0142769
937.275	0.0145015
937.353	0.0144775
937.432	0.0144320
937.510	0.0142934
937.588	0.0143233
937.666	0.0143086
937.744	0.0142452
937.822	0.0142054
937.900	0.0144097
937.978	0.0144117
938.057	0.0144771
938.135	0.0142906
938.213	0.0142986
938.291	0.0143382
938.369	0.0143212
938.447	0.0142012
938.525	0.0144300
938.603	0.0143739
938.682	0.0144045
938.760	0.0143415
938.838	0.0143087
938.916	0.0143153
938.994	0.0143905
939.072	0.0142195
939.150	0.0142522
939.228	0.0144191
939.307	0.0142863
939.385	0.0142629
939.463	0.0143814
939.541	0.0143108
939.619	0.0142287
939.697	0.0142793
939.775	0.0143938
939.853	0.0141901
939.932	0.0141452
940.010	0.0141859
940.088	0.0141750
940.166	0.0142472
940.244	0.0141145
940.322	0.0142255
940.400	0.0141755
940.478	0.0142823
940.557	0.0142403
940.635	0.0142722
940.713	0.0143933
940.791	0.0144798
940.869	0.0143787
940.947	0.0144830
941.025	0.0144650
941.103	0.0146041
941.182	0.0147317
941.260	0.0146573
941.338	0.0146169
941.416	0.0147812
941.494	0.0147023
941.572	0.0146091
941.650	0.0146587
941.728	0.0147163
941.807	0.0146018
941.885	0.0148277
941.963	0.0146712
942.041	0.0146247
942.119	0.0145100
942.197	0.0146271
942.275	0.0144970
942.353	0.0144939
942.432	0.0145374
942.510	0.0145242
942.588	0.0144032
942.666	0.0144257
942.744	0.0144768
942.822	0.0143643
942.900	0.0145229
942.978	0.0144485
943.057	0.0143832
943.135	0.0144156
943.213	0.0143002
943.291	0.0143875
943.369	0.0143740
943.447	0.0143024
943.525	0.0142920
943.603	0.0143863
943.682	0.0143154
943.760	0.0142740
943.838	0.0143109
943.916	0.0142500
943.994	0.0143649
944.072	0.0144505
944.150	0.0144806
944.228	0.0141909
944.307	0.0143262
944.385	0.0144347
944.463	0.0144600
944.541	0.0145272
944.619	0.0142826
944.697	0.0145271
944.775	0.0143519
944.853	0.0143407
944.932	0.0143665
945.010	0.0143477
945.088	0.0144099
945.166	0.0144188
945.244	0.0144707
945.322	0.0145060
945.400	0.0144531
945.478	0.0144620
945.557	0.0144794
945.635	0.0145602
945.713	0.0145421
945.791	0.0146069
945.869	0.0145446
945.947	0.0145550
946.025	0.0145149
946.103	0.0144923
946.182	0.0146024
946.260	0.0145850
946.338	0.0144097
946.416	0.0144687
946.494	0.0145001
946.572	0.0145003
946.650	0.0146424
946.728	0.0146732
946.807	0.0145467
946.885	0.0143864
946.963	0.0145752
947.041	0.0144795
947.119	0.0145621
947.197	0.0146539
947.275	0.0145092
947.353	0.0144473
947.432	0.0144901
947.510	0.0145179
947.588	0.0145435
947.666	0.0144170
947.744	0.0144942
947.822	0.0145482
947.900	0.0142731
947.978	0.0143891
948.057	0.0144093
948.135	0.0145192
948.213	0.0143120
948.291	0.0144353
948.369	0.0144624
948.447	0.0143034
948.525	0.0143150
948.603	0.0143013
948.682	0.0144199
948.760	0.0144006
948.838	0.0143240
948.916	0.0142845
948.994	0.0143307
949.072	0.0145090
949.150	0.0144211
949.228	0.0144288
949.307	0.0143987
949.385	0.0144039
949.463	0.0144694
949.541	0.0144157
949.619	0.0143221
949.697	0.0143668
949.775	0.0142184
949.853	0.0143195
949.932	0.0143696
950.010	0.0142348
950.088	0.0142649
950.166	0.0142174
950.244	0.0141447
950.322	0.0141122
950.400	0.0142271
950.478	0.0141978
950.557	0.0140347
950.635	0.0142112
950.713	0.0141311
950.791	0.0139674
950.869	0.0140931
950.947	0.0142500
951.025	0.0141978
951.103	0.0143382
951.182	0.0141616
951.260	0.0141344
951.338	0.0144062
951.416	0.0143005
951.494	0.0142869
951.572	0.0144388
951.650	0.0145486
951.728	0.0145550
951.807	0.0145368
951.885	0.0146094
951.963	0.0144871
952.041	0.0145804
952.119	0.0145437
952.197	0.0144439
952.275	0.0145077
952.353	0.0144625
952.432	0.0144993
952.510	0.0146251
952.588	0.0145894
952.666	0.0144376
952.744	0.0145690
952.822	0.0145493
952.900	0.0143916
952.978	0.0145497
953.057	0.0144463
953.135	0.0144341
953.213	0.0144021
953.291	0.0144937
953.369	0.0145029
953.447	0.0144270
953.525	0.0143496
953.603	0.0143842
953.682	0.0143748
953.760	0.0141951
953.838	0.0142782
953.916	0.0142883
953.994	0.0142475
954.072	0.0143200
954.150	0.0142729
954.228	0.0142704
954.307	0.0142982
954.385	0.0142686
954.463	0.0143383
954.541	0.0144185
954.619	0.0143938
954.697	0.0143638
954.775	0.0143624
954.853	0.0143919
954.932	0.0145427
955.010	0.0144866
955.088	0.0144786
955.166	0.0144201
955.244	0.0144062
955.322	0.0145264
955.400	0.0145638
955.478	0.0144008
955.557	0.0143870
955.635	0.0144044
955.713	0.0145126
955.791	0.0144341
955.869	0.0144513
955.947	0.0143484
956.025	0.0145070
956.103	0.0143251
956.182	0.0144935
956.260	0.0143080
956.338	0.0142603
956.416	0.0143593
956.494	0.0142982
956.572	0.0144137
956.650	0.0142344
956.728	0.0142261
956.807	0.0144418
956.885	0.0144261
956.963	0.0144310
957.041	0.0143809
957.119	0.0143808
957.197	0.0143108
957.275	0.0144593
957.353	0.0143655
957.432	0.0142999
957.510	0.0144208
957.588	0.0144346
957.666	0.0145098
957.744	0.0144705
957.822	0.0143272
957.900	0.0143676
957.978	0.0145676
958.057	0.0144672
958.135	0.0145546
958.213	0.0145054
958.291	0.0143823
958.369	0.0144371
958.447	0.0143385
958.525	0.0144696
958.603	0.0144396
958.682	0.0144134
958.760	0.0143371
958.838	0.0144662
958.916	0.0145317
958.994	0.0143250
959.072	0.0144675
959.150	0.0143649
959.228	0.0142883
959.307	0.0144028
959.385	0.0144312
959.463	0.0143045
959.541	0.0143076
959.619	0.0143729
959.697	0.0144230
959.775	0.0143684
959.853	0.0142822
959.932	0.0142091
960.010	0.0144993
960.088	0.0142450
960.166	0.0143388
960.244	0.0143052
960.322	0.0143140
960.400	0.0143188
960.478	0.0145148
960.557	0.0144095
960.635	0.0142519
960.713	0.0143880
960.791	0.0144077
960.869	0.0144153
960.947	0.0143374
961.025	0.0143304
961.103	0.0143320
961.182	0.0143736
961.260	0.0144104
961.338	0.0143804
961.416	0.0144355
961.494	0.0145590
961.572	0.0144492
961.650	0.0145051
961.728	0.0145474
961.807	0.0145204
961.885	0.0145507
961.963	0.0146385
962.041	0.0144657
962.119	0.0144534
962.197	0.0144771
962.275	0.0145668
962.353	0.0145187
962.432	0.0145976
962.510	0.0144538
962.588	0.0144482
962.666	0.0145395
962.744	0.0144930
962.822	0.0144836
962.900	0.0143909
962.978	0.0143495
963.057	0.0144087
963.135	0.0144525
963.213	0.0142512
963.291	0.0142053
963.369	0.0144267
963.447	0.0143987
963.525	0.0143676
963.603	0.0142567
963.682	0.0143593
963.760	0.0144892
963.838	0.0143414
963.916	0.0144116
963.994	0.0143372
964.072	0.0143708
964.150	0.0144140
964.228	0.0145422
964.307	0.0144897
964.385	0.0143455
964.463	0.0144901
964.541	0.0144433
964.619	0.0145070
964.697	0.0145627
964.775	0.0145319
964.853	0.0145425
964.932	0.0145098
965.010	0.0145328
965.088	0.0144855
965.166	0.0143510
965.244	0.0143260
965.322	0.0145779
965.400	0.0146242
965.478	0.0144058
965.557	0.0144276
965.635	0.0144989
965.713	0.0143029
965.791	0.0142130
965.869	0.0144424
965.947	0.0144581
966.025	0.0142495
966.103	0.0143282
966.182	0.0144460
966.260	0.0142523
966.338	0.0143977
966.416	0.0142445
966.494	0.0144404
966.572	0.0144190
966.650	0.0143149
966.728	0.0143674
966.807	0.0143619
966.885	0.0141862
966.963	0.0144751
967.041	0.0143330
967.119	0.0143211
967.197	0.0145165
967.275	0.0144405
967.353	0.0144270
967.432	0.0144884
967.510	0.0143127
967.588	0.0143331
967.666	0.0144041
967.744	0.0143529
967.822	0.0142490
967.900	0.0143990
967.978	0.0145187
968.057	0.0142619
968.135	0.0144658
968.213	0.0144105
968.291	0.0144025
968.369	0.0144556
968.447	0.0145604
968.525	0.0143752
968.603	0.0144785
968.682	0.0145036
968.760	0.0144990
968.838	0.0146181
968.916	0.0144943
968.994	0.0143948
969.072	0.0146471
969.150	0.0145959
969.228	0.0147182
969.307	0.0146005
969.385	0.0144845
969.463	0.0146740
969.541	0.0146718
969.619	0.0146178
969.697	0.0147237
969.775	0.0146774
969.853	0.0145446
969.932	0.0146455
