05/14/2022	19:28:15	Ver.	4.1	UNKNOWN
Optical Delay	650.009681	Delta X		0.078125	Sweeps	1	Scan Rate	0/0
Coordinates	Axis 1	NaN	Axis 2	NaN	Axis 3	NaN	Axis 4	NaN	Axis 5	NaN	Axis 6	0.000000
TX Power	0.000000	RX Power	0.000000

650.010	0.0146647
650.088	0.0146428
650.166	0.0146615
650.244	0.0146410
650.322	0.0147100
650.400	0.0146392
650.478	0.0146600
650.557	0.0147236
650.635	0.0148757
650.713	0.0146535
650.791	0.0146685
650.869	0.0147409
650.947	0.0148383
651.025	0.0147726
651.103	0.0146700
651.182	0.0146593
651.260	0.0146960
651.338	0.0147363
651.416	0.0146692
651.494	0.0146336
651.572	0.0146661
651.650	0.0146320
651.728	0.0147475
651.807	0.0146014
651.885	0.0146605
651.963	0.0147336
652.041	0.0147377
652.119	0.0147128
652.197	0.0146700
652.275	0.0146058
652.353	0.0146484
652.432	0.0148664
652.510	0.0146984
652.588	0.0145942
652.666	0.0146458
652.744	0.0145886
652.822	0.0147143
652.900	0.0145998
652.978	0.0146403
653.057	0.0146024
653.135	0.0146130
653.213	0.0146751
653.291	0.0146568
653.369	0.0147825
653.447	0.0146642
653.525	0.0146761
653.603	0.0147009
653.682	0.0147495
653.760	0.0146175
653.838	0.0145982
653.916	0.0144612
653.994	0.0146220
654.072	0.0146247
654.150	0.0145879
654.228	0.0145967
654.307	0.0148061
654.385	0.0145189
654.463	0.0147179
654.541	0.0147565
654.619	0.0146823
654.697	0.0146606
654.775	0.0147524
654.853	0.0146091
654.932	0.0147110
655.010	0.0147555
655.088	0.0146909
655.166	0.0147781
655.244	0.0147444
655.322	0.0147981
655.400	0.0146245
655.478	0.0147441
655.557	0.0147005
655.635	0.0147169
655.713	0.0146753
655.791	0.0148167
655.869	0.0147611
655.947	0.0146404
656.025	0.0146089
656.103	0.0147838
656.182	0.0148511
656.260	0.0146517
656.338	0.0148148
656.416	0.0146688
656.494	0.0147404
656.572	0.0147793
656.650	0.0146860
656.728	0.0146959
656.807	0.0147104
656.885	0.0147155
656.963	0.0147667
657.041	0.0146730
657.119	0.0145412
657.197	0.0146525
657.275	0.0147361
657.353	0.0145565
657.432	0.0146416
657.510	0.0146117
657.588	0.0146690
657.666	0.0146017
657.744	0.0147449
657.822	0.0146007
657.900	0.0145936
657.978	0.0146111
658.057	0.0145084
658.135	0.0145582
658.213	0.0147031
658.291	0.0146633
658.369	0.0144482
658.447	0.0144627
658.525	0.0144769
658.603	0.0147228
658.682	0.0147213
658.760	0.0145719
658.838	0.0147954
658.916	0.0147481
658.994	0.0146794
659.072	0.0147159
659.150	0.0145623
659.228	0.0146616
659.307	0.0146426
659.385	0.0147167
659.463	0.0146748
659.541	0.0146906
659.619	0.0145958
659.697	0.0146980
659.775	0.0146763
659.853	0.0146638
659.932	0.0145472
660.010	0.0145499
660.088	0.0147551
660.166	0.0146670
660.244	0.0146695
660.322	0.0147401
660.400	0.0146173
660.478	0.0147471
660.557	0.0147457
660.635	0.0145021
660.713	0.0146090
660.791	0.0146134
660.869	0.0147115
660.947	0.0146516
661.025	0.0146825
661.103	0.0145347
661.182	0.0145836
661.260	0.0146524
661.338	0.0147372
661.416	0.0147177
661.494	0.0146279
661.572	0.0147567
661.650	0.0146311
661.728	0.0145913
661.807	0.0145922
661.885	0.0146314
661.963	0.0145550
662.041	0.0145735
662.119	0.0146442
662.197	0.0145885
662.275	0.0145796
662.353	0.0145950
662.432	0.0146736
662.510	0.0146905
662.588	0.0144898
662.666	0.0145140
662.744	0.0146690
662.822	0.0145559
662.900	0.0147396
662.978	0.0146504
663.057	0.0144966
663.135	0.0145285
663.213	0.0147063
663.291	0.0147259
663.369	0.0146280
663.447	0.0146267
663.525	0.0146270
663.603	0.0146888
663.682	0.0146152
663.760	0.0146774
663.838	0.0145316
663.916	0.0145863
663.994	0.0146059
664.072	0.0146639
664.150	0.0147678
664.228	0.0147752
664.307	0.0147181
664.385	0.0147048
664.463	0.0147806
664.541	0.0146371
664.619	0.0147340
664.697	0.0147644
664.775	0.0146232
664.853	0.0148084
664.932	0.0146935
665.010	0.0147098
665.088	0.0147017
665.166	0.0147864
665.244	0.0148213
665.322	0.0145917
665.400	0.0147638
665.478	0.0148555
665.557	0.0146765
665.635	0.0146991
665.713	0.0147239
665.791	0.0147655
665.869	0.0147025
665.947	0.0146049
666.025	0.0145557
666.103	0.0144100
666.182	0.0145454
666.260	0.0145410
666.338	0.0144836
666.416	0.0146556
666.494	0.0146198
666.572	0.0144605
666.650	0.0147481
666.728	0.0146766
666.807	0.0145692
666.885	0.0146531
666.963	0.0148426
667.041	0.0148631
667.119	0.0149483
667.197	0.0147766
667.275	0.0149151
667.353	0.0149392
667.432	0.0149573
667.510	0.0150218
667.588	0.0151073
667.666	0.0151424
667.744	0.0150551
667.822	0.0149944
667.900	0.0148388
667.978	0.0147199
668.057	0.0147855
668.135	0.0146244
668.213	0.0145377
668.291	0.0144363
668.369	0.0143400
668.447	0.0142556
668.525	0.0141840
668.603	0.0140868
668.682	0.0140594
668.760	0.0140478
668.838	0.0141086
668.916	0.0141810
668.994	0.0141219
669.072	0.0141904
669.150	0.0144288
669.228	0.0144250
669.307	0.0147164
669.385	0.0149144
669.463	0.0151293
669.541	0.0153367
669.619	0.0156575
669.697	0.0156509
669.775	0.0157529
669.853	0.0157867
669.932	0.0159396
670.010	0.0158503
670.088	0.0159131
670.166	0.0158995
670.244	0.0157020
670.322	0.0154644
670.400	0.0151762
670.478	0.0149712
670.557	0.0147343
670.635	0.0143461
670.713	0.0140905
670.791	0.0138165
670.869	0.0135517
670.947	0.0133647
671.025	0.0130318
671.103	0.0127454
671.182	0.0128669
671.260	0.0129333
671.338	0.0127897
671.416	0.0129378
671.494	0.0131233
671.572	0.0133215
671.650	0.0135805
671.728	0.0139643
671.807	0.0143271
671.885	0.0148962
671.963	0.0151828
672.041	0.0156776
672.119	0.0160781
672.197	0.0165389
672.275	0.0167368
672.353	0.0169343
672.432	0.0172556
672.510	0.0172102
672.588	0.0172778
672.666	0.0173797
672.744	0.0171622
672.822	0.0170170
672.900	0.0167519
672.978	0.0165071
673.057	0.0160011
673.135	0.0157027
673.213	0.0151637
673.291	0.0145605
673.369	0.0141158
673.447	0.0138508
673.525	0.0132565
673.603	0.0129438
673.682	0.0125081
673.760	0.0122966
673.838	0.0120920
673.916	0.0121278
673.994	0.0119588
674.072	0.0118801
674.150	0.0121371
674.228	0.0121851
674.307	0.0124001
674.385	0.0129147
674.463	0.0131336
674.541	0.0134077
674.619	0.0138822
674.697	0.0143941
674.775	0.0147480
674.853	0.0150692
674.932	0.0152105
675.010	0.0156247
675.088	0.0159710
675.166	0.0162772
675.244	0.0164790
675.322	0.0167139
675.400	0.0171002
675.478	0.0170193
675.557	0.0170184
675.635	0.0170236
675.713	0.0169583
675.791	0.0168938
675.869	0.0168049
675.947	0.0164136
676.025	0.0162262
676.103	0.0158910
676.182	0.0155157
676.260	0.0151798
676.338	0.0149025
676.416	0.0145557
676.494	0.0143729
676.572	0.0140334
676.650	0.0137287
676.728	0.0132977
676.807	0.0130413
676.885	0.0127818
676.963	0.0127858
677.041	0.0126463
677.119	0.0124529
677.197	0.0124718
677.275	0.0125431
677.353	0.0127516
677.432	0.0129974
677.510	0.0131912
677.588	0.0135220
677.666	0.0137868
677.744	0.0141404
677.822	0.0145680
677.900	0.0149487
677.978	0.0150854
678.057	0.0154150
678.135	0.0158118
678.213	0.0159901
678.291	0.0160727
678.369	0.0160728
678.447	0.0161874
678.525	0.0162106
678.603	0.0160938
678.682	0.0159193
678.760	0.0159951
678.838	0.0157703
678.916	0.0154542
678.994	0.0152376
679.072	0.0149994
679.150	0.0147010
679.228	0.0144445
679.307	0.0142857
679.385	0.0141042
679.463	0.0136881
679.541	0.0134489
679.619	0.0133237
679.697	0.0131114
679.775	0.0129279
679.853	0.0129215
679.932	0.0129716
680.010	0.0130656
680.088	0.0132729
680.166	0.0133527
680.244	0.0135442
680.322	0.0138163
680.400	0.0142290
680.478	0.0146085
680.557	0.0148579
680.635	0.0151599
680.713	0.0157127
680.791	0.0159753
680.869	0.0162498
680.947	0.0164957
681.025	0.0168330
681.103	0.0170025
681.182	0.0172030
681.260	0.0170328
681.338	0.0171816
681.416	0.0170538
681.494	0.0168167
681.572	0.0166348
681.650	0.0163512
681.728	0.0160815
681.807	0.0158875
681.885	0.0155135
681.963	0.0151205
682.041	0.0149232
682.119	0.0145148
682.197	0.0141973
682.275	0.0140475
682.353	0.0137691
682.432	0.0133735
682.510	0.0131490
682.588	0.0129193
682.666	0.0127043
682.744	0.0125538
682.822	0.0124265
682.900	0.0122781
682.978	0.0121541
683.057	0.0120823
683.135	0.0122321
683.213	0.0121230
683.291	0.0120853
683.369	0.0123898
683.447	0.0124252
683.525	0.0124770
683.603	0.0128362
683.682	0.0129697
683.760	0.0133509
683.838	0.0135773
683.916	0.0138344
683.994	0.0141216
684.072	0.0145470
684.150	0.0147677
684.228	0.0151804
684.307	0.0153830
684.385	0.0158778
684.463	0.0161398
684.541	0.0165804
684.619	0.0168106
684.697	0.0170110
684.775	0.0171581
684.853	0.0176042
684.932	0.0178009
685.010	0.0178315
685.088	0.0180422
685.166	0.0181386
685.244	0.0181747
685.322	0.0182524
685.400	0.0181651
685.478	0.0181702
685.557	0.0179385
685.635	0.0175089
685.713	0.0172963
685.791	0.0169314
685.869	0.0165381
685.947	0.0160239
686.025	0.0154932
686.103	0.0150639
686.182	0.0147566
686.260	0.0141224
686.338	0.0136631
686.416	0.0132234
686.494	0.0128746
686.572	0.0125982
686.650	0.0122407
686.728	0.0120113
686.807	0.0118328
686.885	0.0115561
686.963	0.0115990
687.041	0.0114823
687.119	0.0113765
687.197	0.0113393
687.275	0.0112708
687.353	0.0113537
687.432	0.0112357
687.510	0.0113820
687.588	0.0114159
687.666	0.0115630
687.744	0.0116891
687.822	0.0118512
687.900	0.0121974
687.978	0.0123225
688.057	0.0128099
688.135	0.0131327
688.213	0.0135071
688.291	0.0138960
688.369	0.0144566
688.447	0.0150282
688.525	0.0153448
688.603	0.0158288
688.682	0.0164734
688.760	0.0168763
688.838	0.0174117
688.916	0.0177824
688.994	0.0181950
689.072	0.0185925
689.150	0.0187718
689.228	0.0188342
689.307	0.0190271
689.385	0.0191329
689.463	0.0190533
689.541	0.0189896
689.619	0.0188463
689.697	0.0187014
689.775	0.0182504
689.853	0.0179580
689.932	0.0177462
690.010	0.0173856
690.088	0.0170087
690.166	0.0165182
690.244	0.0160891
690.322	0.0157372
690.400	0.0152193
690.478	0.0147262
690.557	0.0143092
690.635	0.0137696
690.713	0.0133970
690.791	0.0127190
690.869	0.0124574
690.947	0.0121177
691.025	0.0117371
691.103	0.0114813
691.182	0.0112943
691.260	0.0113325
691.338	0.0114455
691.416	0.0115520
691.494	0.0117355
691.572	0.0119942
691.650	0.0122230
691.728	0.0124664
691.807	0.0127266
691.885	0.0129597
691.963	0.0131542
692.041	0.0132715
692.119	0.0133013
692.197	0.0133453
692.275	0.0133893
692.353	0.0133283
692.432	0.0130879
692.510	0.0132904
692.588	0.0131170
692.666	0.0129672
692.744	0.0130336
692.822	0.0131582
692.900	0.0133277
692.978	0.0132838
693.057	0.0138029
693.135	0.0140154
693.213	0.0145082
693.291	0.0148191
693.369	0.0152044
693.447	0.0155758
693.525	0.0160543
693.603	0.0165182
693.682	0.0169595
693.760	0.0173357
693.838	0.0175425
693.916	0.0179202
693.994	0.0182623
694.072	0.0183372
694.150	0.0185128
694.228	0.0186906
694.307	0.0186124
694.385	0.0186393
694.463	0.0185789
694.541	0.0183863
694.619	0.0181908
694.697	0.0181710
694.775	0.0177825
694.853	0.0174751
694.932	0.0168645
695.010	0.0164652
695.088	0.0161253
695.166	0.0155962
695.244	0.0149268
695.322	0.0144373
695.400	0.0139751
695.478	0.0134525
695.557	0.0129814
695.635	0.0126095
695.713	0.0122331
695.791	0.0119255
695.869	0.0115726
695.947	0.0115258
696.025	0.0113704
696.103	0.0111413
696.182	0.0112317
696.260	0.0112437
696.338	0.0110963
696.416	0.0113084
696.494	0.0116821
696.572	0.0119012
696.650	0.0122217
696.728	0.0126246
696.807	0.0130161
696.885	0.0133638
696.963	0.0139332
697.041	0.0143090
697.119	0.0146393
697.197	0.0150838
697.275	0.0155807
697.353	0.0158767
697.432	0.0161687
697.510	0.0162157
697.588	0.0164268
697.666	0.0165116
697.744	0.0165507
697.822	0.0165383
697.900	0.0164704
697.978	0.0164558
698.057	0.0163458
698.135	0.0160643
698.213	0.0158228
698.291	0.0157162
698.369	0.0154093
698.447	0.0149860
698.525	0.0147461
698.603	0.0145047
698.682	0.0142644
698.760	0.0142372
698.838	0.0140168
698.916	0.0138445
698.994	0.0137333
699.072	0.0135796
699.150	0.0138187
699.228	0.0137685
699.307	0.0139940
699.385	0.0141969
699.463	0.0143977
699.541	0.0145679
699.619	0.0146937
699.697	0.0148949
699.775	0.0152198
699.853	0.0154197
699.932	0.0155432
700.010	0.0156222
700.088	0.0157968
700.166	0.0157899
700.244	0.0159836
700.322	0.0160680
700.400	0.0160563
700.478	0.0160581
700.557	0.0161106
700.635	0.0161810
700.713	0.0159777
700.791	0.0159927
700.869	0.0157700
700.947	0.0156638
701.025	0.0156208
701.103	0.0153880
701.182	0.0153307
701.260	0.0150621
701.338	0.0149802
701.416	0.0147913
701.494	0.0147254
701.572	0.0144260
701.650	0.0144138
701.728	0.0140061
701.807	0.0139171
701.885	0.0135725
701.963	0.0134310
702.041	0.0133212
702.119	0.0133196
702.197	0.0131753
702.275	0.0130457
702.353	0.0129127
702.432	0.0128568
702.510	0.0128433
702.588	0.0131004
702.666	0.0130517
702.744	0.0130661
702.822	0.0132587
702.900	0.0134307
702.978	0.0136658
703.057	0.0138338
703.135	0.0140680
703.213	0.0140529
703.291	0.0144096
703.369	0.0146294
703.447	0.0147344
703.525	0.0147376
703.603	0.0149706
703.682	0.0150243
703.760	0.0151712
703.838	0.0151998
703.916	0.0153001
703.994	0.0152213
704.072	0.0152281
704.150	0.0152701
704.228	0.0152760
704.307	0.0152952
704.385	0.0152370
704.463	0.0151043
704.541	0.0151718
704.619	0.0152089
704.697	0.0151899
704.775	0.0152558
704.853	0.0152461
704.932	0.0149545
705.010	0.0150934
705.088	0.0149603
705.166	0.0148484
705.244	0.0148175
705.322	0.0147105
705.400	0.0145488
705.478	0.0145394
705.557	0.0143614
705.635	0.0141847
705.713	0.0141621
705.791	0.0142082
705.869	0.0142043
705.947	0.0143003
706.025	0.0142946
706.103	0.0143964
706.182	0.0146481
706.260	0.0147353
706.338	0.0151198
706.416	0.0152396
706.494	0.0153744
706.572	0.0156414
706.650	0.0160505
706.728	0.0162470
706.807	0.0161150
706.885	0.0162884
706.963	0.0163293
707.041	0.0161968
707.119	0.0161396
707.197	0.0162924
707.275	0.0161310
707.353	0.0158124
707.432	0.0156293
707.510	0.0153700
707.588	0.0149707
707.666	0.0147868
707.744	0.0144965
707.822	0.0142651
707.900	0.0139808
707.978	0.0136490
708.057	0.0135068
708.135	0.0132365
708.213	0.0131942
708.291	0.0129453
708.369	0.0129124
708.447	0.0128506
708.525	0.0127111
708.603	0.0128362
708.682	0.0129093
708.760	0.0129304
708.838	0.0130214
708.916	0.0131741
708.994	0.0133392
709.072	0.0134705
709.150	0.0135587
709.228	0.0139189
709.307	0.0140403
709.385	0.0142317
709.463	0.0143169
709.541	0.0145505
709.619	0.0145467
709.697	0.0146185
709.775	0.0147576
709.853	0.0146478
709.932	0.0146597
710.010	0.0147453
710.088	0.0147325
710.166	0.0147858
710.244	0.0147468
710.322	0.0147080
710.400	0.0145885
710.478	0.0147120
710.557	0.0147621
710.635	0.0148575
710.713	0.0149632
710.791	0.0148519
710.869	0.0149968
710.947	0.0152318
711.025	0.0152428
711.103	0.0152173
711.182	0.0153416
711.260	0.0154285
711.338	0.0154096
711.416	0.0154208
711.494	0.0155853
711.572	0.0155249
711.650	0.0153687
711.728	0.0154635
711.807	0.0153923
711.885	0.0152792
711.963	0.0154230
712.041	0.0153255
712.119	0.0154684
712.197	0.0155118
712.275	0.0155413
712.353	0.0155387
712.432	0.0155163
712.510	0.0155668
712.588	0.0155352
712.666	0.0155300
712.744	0.0153709
712.822	0.0153748
712.900	0.0151558
712.978	0.0151500
713.057	0.0151129
713.135	0.0150438
713.213	0.0148534
713.291	0.0146845
713.369	0.0146619
713.447	0.0145343
713.525	0.0145606
713.603	0.0145585
713.682	0.0145269
713.760	0.0143715
713.838	0.0143028
713.916	0.0142432
713.994	0.0143265
714.072	0.0144107
714.150	0.0143961
714.228	0.0143343
714.307	0.0142023
714.385	0.0140769
714.463	0.0141320
714.541	0.0139439
714.619	0.0139839
714.697	0.0139358
714.775	0.0137451
714.853	0.0137779
714.932	0.0135258
715.010	0.0134634
715.088	0.0134633
715.166	0.0133135
715.244	0.0133210
715.322	0.0131821
715.400	0.0131300
715.478	0.0131955
715.557	0.0132452
715.635	0.0132488
715.713	0.0134560
715.791	0.0136425
715.869	0.0135973
715.947	0.0138039
716.025	0.0140833
716.103	0.0142584
716.182	0.0144968
716.260	0.0145988
716.338	0.0147557
716.416	0.0148705
716.494	0.0151982
716.572	0.0153805
716.650	0.0153346
716.728	0.0155354
716.807	0.0155592
716.885	0.0156626
716.963	0.0157668
717.041	0.0157874
717.119	0.0158054
717.197	0.0158774
717.275	0.0160940
717.353	0.0161536
717.432	0.0160846
717.510	0.0163278
717.588	0.0163934
717.666	0.0162843
717.744	0.0164909
717.822	0.0163628
717.900	0.0162811
717.978	0.0161049
718.057	0.0161402
718.135	0.0160925
718.213	0.0160428
718.291	0.0157910
718.369	0.0156689
718.447	0.0156183
718.525	0.0155731
718.603	0.0154077
718.682	0.0152035
718.760	0.0151312
718.838	0.0150265
718.916	0.0146637
718.994	0.0148175
719.072	0.0147804
719.150	0.0146333
719.228	0.0145741
719.307	0.0145773
719.385	0.0143970
719.463	0.0144138
719.541	0.0143103
719.619	0.0142075
719.697	0.0141402
719.775	0.0141633
719.853	0.0139907
719.932	0.0140862
720.010	0.0139977
720.088	0.0139430
720.166	0.0139255
720.244	0.0138309
720.322	0.0136102
720.400	0.0134729
720.478	0.0133225
720.557	0.0135129
720.635	0.0133873
720.713	0.0132492
720.791	0.0132259
720.869	0.0130483
720.947	0.0130507
721.025	0.0130897
721.103	0.0131094
721.182	0.0130373
721.260	0.0132127
721.338	0.0132428
721.416	0.0132790
721.494	0.0135970
721.572	0.0137891
721.650	0.0138368
721.728	0.0139633
721.807	0.0142418
721.885	0.0146125
721.963	0.0147353
722.041	0.0148964
722.119	0.0151729
722.197	0.0152127
722.275	0.0154402
722.353	0.0156777
722.432	0.0157346
722.510	0.0159353
722.588	0.0159138
722.666	0.0162019
722.744	0.0162180
722.822	0.0161581
722.900	0.0161370
722.978	0.0162972
723.057	0.0161691
723.135	0.0160999
723.213	0.0160446
723.291	0.0159138
723.369	0.0158983
723.447	0.0158369
723.525	0.0157007
723.603	0.0156936
723.682	0.0156400
723.760	0.0156564
723.838	0.0155772
723.916	0.0154117
723.994	0.0153618
724.072	0.0152415
724.150	0.0152350
724.228	0.0152032
724.307	0.0150469
724.385	0.0148045
724.463	0.0148603
724.541	0.0148901
724.619	0.0146165
724.697	0.0146041
724.775	0.0144603
724.853	0.0143499
724.932	0.0142284
725.010	0.0141914
725.088	0.0140137
725.166	0.0139920
725.244	0.0139449
725.322	0.0139266
725.400	0.0138979
725.478	0.0139227
725.557	0.0137244
725.635	0.0138792
725.713	0.0139441
725.791	0.0139532
725.869	0.0141001
725.947	0.0141279
726.025	0.0141740
726.103	0.0140759
726.182	0.0140173
726.260	0.0140657
726.338	0.0142690
726.416	0.0141103
726.494	0.0142169
726.572	0.0142957
726.650	0.0142916
726.728	0.0141514
726.807	0.0141869
726.885	0.0142491
726.963	0.0141982
727.041	0.0142673
727.119	0.0143549
727.197	0.0142737
727.275	0.0142558
727.353	0.0143426
727.432	0.0143437
727.510	0.0142754
727.588	0.0142223
727.666	0.0142740
727.744	0.0142848
727.822	0.0143542
727.900	0.0143446
727.978	0.0144625
728.057	0.0146106
728.135	0.0147562
728.213	0.0147997
728.291	0.0148844
728.369	0.0149244
728.447	0.0151207
728.525	0.0151739
728.603	0.0151627
728.682	0.0152405
728.760	0.0153712
728.838	0.0153477
728.916	0.0152264
728.994	0.0152274
729.072	0.0152617
729.150	0.0153021
729.228	0.0152946
729.307	0.0152105
729.385	0.0151366
729.463	0.0151154
729.541	0.0151467
729.619	0.0151659
729.697	0.0151967
729.775	0.0151654
729.853	0.0151218
729.932	0.0151038
730.010	0.0152453
730.088	0.0151947
730.166	0.0149906
730.244	0.0150691
730.322	0.0151145
730.400	0.0151382
730.478	0.0149836
730.557	0.0149451
730.635	0.0149794
730.713	0.0147476
730.791	0.0146405
730.869	0.0145837
730.947	0.0146098
731.025	0.0144502
731.103	0.0143668
731.182	0.0143244
731.260	0.0143238
731.338	0.0140965
731.416	0.0140123
731.494	0.0140386
731.572	0.0141058
731.650	0.0140158
731.728	0.0141202
731.807	0.0141998
731.885	0.0142278
731.963	0.0140273
732.041	0.0141508
732.119	0.0140432
732.197	0.0140539
732.275	0.0141537
732.353	0.0142664
732.432	0.0143577
732.510	0.0143219
732.588	0.0143629
732.666	0.0143880
732.744	0.0142165
732.822	0.0143623
732.900	0.0144598
732.978	0.0145007
733.057	0.0143085
733.135	0.0142814
733.213	0.0143279
733.291	0.0143676
733.369	0.0144411
733.447	0.0141971
733.525	0.0142888
733.603	0.0143581
733.682	0.0143591
733.760	0.0143816
733.838	0.0142972
733.916	0.0143980
733.994	0.0143627
734.072	0.0143767
734.150	0.0145281
734.228	0.0143869
734.307	0.0144694
734.385	0.0145515
734.463	0.0148141
734.541	0.0147576
734.619	0.0147276
734.697	0.0146786
734.775	0.0148638
734.853	0.0148898
734.932	0.0148723
735.010	0.0148895
735.088	0.0149540
735.166	0.0149229
735.244	0.0149183
735.322	0.0150426
735.400	0.0149776
735.478	0.0149284
735.557	0.0149349
735.635	0.0149706
735.713	0.0150516
735.791	0.0150240
735.869	0.0151546
735.947	0.0149554
736.025	0.0151027
736.103	0.0150764
736.182	0.0151671
736.260	0.0150076
736.338	0.0149361
736.416	0.0149068
736.494	0.0149046
736.572	0.0149053
736.650	0.0149505
736.728	0.0146407
736.807	0.0146564
736.885	0.0145641
736.963	0.0145634
737.041	0.0146317
737.119	0.0142840
737.197	0.0145300
737.275	0.0144383
737.353	0.0144732
737.432	0.0142200
737.510	0.0144144
737.588	0.0142951
737.666	0.0142697
737.744	0.0142919
737.822	0.0143230
737.900	0.0144135
737.978	0.0143911
738.057	0.0141847
738.135	0.0141423
738.213	0.0142348
738.291	0.0143200
738.369	0.0143227
738.447	0.0143479
738.525	0.0143726
738.603	0.0142783
738.682	0.0144776
738.760	0.0145036
738.838	0.0144623
738.916	0.0145589
738.994	0.0146471
739.072	0.0146658
739.150	0.0146539
739.228	0.0146309
739.307	0.0147214
739.385	0.0148503
739.463	0.0148147
739.541	0.0147952
739.619	0.0149203
739.697	0.0148000
739.775	0.0146724
739.853	0.0145935
739.932	0.0146831
740.010	0.0145951
740.088	0.0146129
740.166	0.0146106
740.244	0.0145083
740.322	0.0145177
740.400	0.0143599
740.478	0.0145919
740.557	0.0145153
740.635	0.0145222
740.713	0.0144304
740.791	0.0146747
740.869	0.0146368
740.947	0.0146864
741.025	0.0147074
741.103	0.0146944
741.182	0.0149484
741.260	0.0146696
741.338	0.0147742
741.416	0.0148921
741.494	0.0149049
741.572	0.0149394
741.650	0.0148659
741.728	0.0148273
741.807	0.0149585
741.885	0.0147800
741.963	0.0146535
742.041	0.0146215
742.119	0.0147543
742.197	0.0146950
742.275	0.0145951
742.353	0.0146101
742.432	0.0145352
742.510	0.0144423
742.588	0.0143919
742.666	0.0144533
742.744	0.0145606
742.822	0.0144415
742.900	0.0143693
742.978	0.0144822
743.057	0.0144542
743.135	0.0144134
743.213	0.0144671
743.291	0.0144965
743.369	0.0146498
743.447	0.0146873
743.525	0.0146013
743.603	0.0146746
743.682	0.0147770
743.760	0.0148151
743.838	0.0149568
743.916	0.0148782
743.994	0.0149426
744.072	0.0148738
744.150	0.0149582
744.228	0.0150779
744.307	0.0150011
744.385	0.0148525
744.463	0.0147910
744.541	0.0146478
744.619	0.0148847
744.697	0.0149366
744.775	0.0147697
744.853	0.0148080
744.932	0.0146471
745.010	0.0146902
745.088	0.0147812
745.166	0.0146877
745.244	0.0149242
745.322	0.0145004
745.400	0.0146497
745.478	0.0146222
745.557	0.0147364
745.635	0.0147454
745.713	0.0147711
745.791	0.0146849
745.869	0.0147813
745.947	0.0147816
746.025	0.0146140
746.103	0.0147053
746.182	0.0146974
746.260	0.0148344
746.338	0.0147419
746.416	0.0147009
746.494	0.0146249
746.572	0.0146137
746.650	0.0146742
746.728	0.0146313
746.807	0.0145969
746.885	0.0146518
746.963	0.0146428
747.041	0.0145798
747.119	0.0146441
747.197	0.0146004
747.275	0.0144801
747.353	0.0147486
747.432	0.0146044
747.510	0.0145731
747.588	0.0147163
747.666	0.0147108
747.744	0.0146857
747.822	0.0147124
747.900	0.0146484
747.978	0.0147355
748.057	0.0146429
748.135	0.0148459
748.213	0.0147327
748.291	0.0146677
748.369	0.0148197
748.447	0.0148151
748.525	0.0147424
748.603	0.0146912
748.682	0.0147759
748.760	0.0148708
748.838	0.0148737
748.916	0.0149781
748.994	0.0147060
749.072	0.0148506
749.150	0.0149042
749.228	0.0148646
749.307	0.0148621
749.385	0.0147072
749.463	0.0147195
749.541	0.0147484
749.619	0.0147469
749.697	0.0145332
749.775	0.0146288
749.853	0.0145396
749.932	0.0145149
750.010	0.0145797
750.088	0.0143633
750.166	0.0143951
750.244	0.0144197
750.322	0.0145462
750.400	0.0146126
750.478	0.0145628
750.557	0.0145863
750.635	0.0146381
750.713	0.0147324
750.791	0.0148241
750.869	0.0146840
750.947	0.0148067
751.025	0.0148489
751.103	0.0148653
751.182	0.0148500
751.260	0.0149377
751.338	0.0147837
751.416	0.0148404
751.494	0.0149203
751.572	0.0148853
751.650	0.0147693
751.728	0.0148109
751.807	0.0149164
751.885	0.0148625
751.963	0.0149228
752.041	0.0148958
752.119	0.0149527
752.197	0.0148891
752.275	0.0148518
752.353	0.0148273
752.432	0.0148080
752.510	0.0148719
752.588	0.0147231
752.666	0.0148736
752.744	0.0148169
752.822	0.0147051
752.900	0.0147248
752.978	0.0147786
753.057	0.0147384
753.135	0.0147520
753.213	0.0146935
753.291	0.0146516
753.369	0.0146870
753.447	0.0147211
753.525	0.0146326
753.603	0.0146238
753.682	0.0146227
753.760	0.0146918
753.838	0.0147742
753.916	0.0145633
753.994	0.0146456
754.072	0.0147594
754.150	0.0146825
754.228	0.0149144
754.307	0.0146804
754.385	0.0147034
754.463	0.0147811
754.541	0.0145909
754.619	0.0146252
754.697	0.0145901
754.775	0.0146459
754.853	0.0147131
754.932	0.0146664
755.010	0.0146408
755.088	0.0146034
755.166	0.0144951
755.244	0.0145897
755.322	0.0144310
755.400	0.0145206
755.478	0.0146033
755.557	0.0146735
755.635	0.0146834
755.713	0.0144231
755.791	0.0143254
755.869	0.0145031
755.947	0.0144611
756.025	0.0145709
756.103	0.0145724
756.182	0.0144408
756.260	0.0144568
756.338	0.0143307
756.416	0.0144677
756.494	0.0144701
756.572	0.0144726
756.650	0.0143441
756.728	0.0142915
756.807	0.0143519
756.885	0.0142566
756.963	0.0144543
757.041	0.0143668
757.119	0.0142682
757.197	0.0142757
757.275	0.0143380
757.353	0.0143940
757.432	0.0144835
757.510	0.0144514
757.588	0.0145183
757.666	0.0144056
757.744	0.0145753
757.822	0.0144730
757.900	0.0145746
757.978	0.0147157
758.057	0.0147356
758.135	0.0148042
758.213	0.0149030
758.291	0.0148679
758.369	0.0148663
758.447	0.0148400
758.525	0.0147961
758.603	0.0148846
758.682	0.0150362
758.760	0.0149020
758.838	0.0147548
758.916	0.0149152
758.994	0.0148019
759.072	0.0148596
759.150	0.0148876
759.228	0.0148699
759.307	0.0147914
759.385	0.0149400
759.463	0.0149748
759.541	0.0149225
759.619	0.0150478
759.697	0.0150114
759.775	0.0149004
759.853	0.0151468
759.932	0.0150464
760.010	0.0149479
760.088	0.0149327
760.166	0.0149216
760.244	0.0149737
760.322	0.0149057
760.400	0.0148225
760.478	0.0148840
760.557	0.0145798
760.635	0.0147197
760.713	0.0146819
760.791	0.0145784
760.869	0.0145094
760.947	0.0143968
761.025	0.0143003
761.103	0.0142999
761.182	0.0142368
761.260	0.0143106
761.338	0.0140801
761.416	0.0142966
761.494	0.0142808
761.572	0.0141821
761.650	0.0142030
761.728	0.0142757
761.807	0.0142285
761.885	0.0141190
761.963	0.0142685
762.041	0.0143481
762.119	0.0143301
762.197	0.0143204
762.275	0.0144233
762.353	0.0144622
762.432	0.0143222
762.510	0.0142987
762.588	0.0144657
762.666	0.0144082
762.744	0.0144743
762.822	0.0144866
762.900	0.0145081
762.978	0.0144726
763.057	0.0146101
763.135	0.0145854
763.213	0.0145476
763.291	0.0145337
763.369	0.0147199
763.447	0.0147492
763.525	0.0148409
763.603	0.0146960
763.682	0.0147552
763.760	0.0145641
763.838	0.0146931
763.916	0.0146918
763.994	0.0148251
764.072	0.0149133
764.150	0.0148496
764.228	0.0147456
764.307	0.0147303
764.385	0.0147305
764.463	0.0148997
764.541	0.0149433
764.619	0.0149757
764.697	0.0148270
764.775	0.0150541
764.853	0.0151057
764.932	0.0150603
765.010	0.0149904
765.088	0.0149572
765.166	0.0149556
765.244	0.0150394
765.322	0.0151192
765.400	0.0150538
765.478	0.0150527
765.557	0.0150359
765.635	0.0150093
765.713	0.0149479
765.791	0.0149818
765.869	0.0150163
765.947	0.0149344
766.025	0.0148392
766.103	0.0148135
766.182	0.0148554
766.260	0.0147832
766.338	0.0148006
766.416	0.0149242
766.494	0.0148124
766.572	0.0149139
766.650	0.0148018
766.728	0.0146922
766.807	0.0148906
766.885	0.0147816
766.963	0.0146202
767.041	0.0147253
767.119	0.0146869
767.197	0.0146078
767.275	0.0146925
767.353	0.0146473
767.432	0.0145409
767.510	0.0145078
767.588	0.0144175
767.666	0.0145705
767.744	0.0143056
767.822	0.0144715
767.900	0.0144436
767.978	0.0144482
768.057	0.0143711
768.135	0.0144510
768.213	0.0144123
768.291	0.0143320
768.369	0.0145524
768.447	0.0146295
768.525	0.0144470
768.603	0.0146035
768.682	0.0148483
768.760	0.0146967
768.838	0.0147627
768.916	0.0146989
768.994	0.0147644
769.072	0.0149249
769.150	0.0149074
769.228	0.0150107
769.307	0.0149416
769.385	0.0149226
769.463	0.0149795
769.541	0.0150342
769.619	0.0150674
769.697	0.0148987
769.775	0.0150092
769.853	0.0148539
769.932	0.0149229
770.010	0.0149522
770.088	0.0149168
770.166	0.0148294
770.244	0.0148091
770.322	0.0147134
770.400	0.0146982
770.478	0.0146404
770.557	0.0146358
770.635	0.0144965
770.713	0.0144601
770.791	0.0145248
770.869	0.0144347
770.947	0.0144837
771.025	0.0145132
771.103	0.0143449
771.182	0.0145210
771.260	0.0145557
771.338	0.0145348
771.416	0.0146941
771.494	0.0146083
771.572	0.0145889
771.650	0.0147580
771.728	0.0147761
771.807	0.0148210
771.885	0.0149010
771.963	0.0149622
772.041	0.0149656
772.119	0.0149239
772.197	0.0150299
772.275	0.0150694
772.353	0.0150260
772.432	0.0151201
772.510	0.0149804
772.588	0.0150769
772.666	0.0150268
772.744	0.0149607
772.822	0.0149435
772.900	0.0150146
772.978	0.0151273
773.057	0.0149901
773.135	0.0147144
773.213	0.0147195
773.291	0.0147810
773.369	0.0147550
773.447	0.0147929
773.525	0.0147624
773.603	0.0146303
773.682	0.0149274
773.760	0.0147600
773.838	0.0148066
773.916	0.0148411
773.994	0.0147664
774.072	0.0148024
774.150	0.0148207
774.228	0.0148419
774.307	0.0148757
774.385	0.0148635
774.463	0.0148218
774.541	0.0147860
774.619	0.0145753
774.697	0.0146913
774.775	0.0147916
774.853	0.0145245
774.932	0.0146124
775.010	0.0146592
775.088	0.0146016
775.166	0.0145737
775.244	0.0143288
775.322	0.0144932
775.400	0.0145692
775.478	0.0143504
775.557	0.0144116
775.635	0.0143177
775.713	0.0143806
775.791	0.0143693
775.869	0.0143618
775.947	0.0142809
776.025	0.0144688
776.103	0.0143329
776.182	0.0144924
776.260	0.0143677
776.338	0.0144765
776.416	0.0144249
776.494	0.0144868
776.572	0.0145841
776.650	0.0144933
776.728	0.0144889
776.807	0.0145892
776.885	0.0146812
776.963	0.0145950
777.041	0.0145202
777.119	0.0145270
777.197	0.0146016
777.275	0.0145351
777.353	0.0146017
777.432	0.0146752
777.510	0.0144766
777.588	0.0146635
777.666	0.0146919
777.744	0.0144616
777.822	0.0146909
777.900	0.0146947
777.978	0.0145811
778.057	0.0147868
778.135	0.0147944
778.213	0.0148557
778.291	0.0146706
778.369	0.0147828
778.447	0.0148381
778.525	0.0147410
778.603	0.0148181
778.682	0.0147998
778.760	0.0148508
778.838	0.0148328
778.916	0.0148650
778.994	0.0148005
779.072	0.0147014
779.150	0.0148001
779.228	0.0147624
779.307	0.0145753
779.385	0.0145959
779.463	0.0147065
779.541	0.0145068
779.619	0.0144276
779.697	0.0143596
779.775	0.0145123
779.853	0.0144318
779.932	0.0142561
780.010	0.0143457
780.088	0.0142058
780.166	0.0144328
780.244	0.0143469
780.322	0.0143035
780.400	0.0144546
780.478	0.0145469
780.557	0.0144190
780.635	0.0146236
780.713	0.0146803
780.791	0.0148615
780.869	0.0147870
780.947	0.0149572
781.025	0.0149763
781.103	0.0151083
781.182	0.0151815
781.260	0.0151334
781.338	0.0152343
781.416	0.0151543
781.494	0.0151152
781.572	0.0150438
781.650	0.0150697
781.728	0.0149490
781.807	0.0149298
781.885	0.0150204
781.963	0.0149555
782.041	0.0147744
782.119	0.0147092
782.197	0.0146439
782.275	0.0146126
782.353	0.0145174
782.432	0.0145364
782.510	0.0143644
782.588	0.0144221
782.666	0.0142073
782.744	0.0143761
782.822	0.0143723
782.900	0.0144514
782.978	0.0143276
783.057	0.0144537
783.135	0.0144311
783.213	0.0143456
783.291	0.0143450
783.369	0.0143420
783.447	0.0144441
783.525	0.0143416
783.603	0.0141692
783.682	0.0143233
783.760	0.0144041
783.838	0.0142307
783.916	0.0142102
783.994	0.0142263
784.072	0.0141830
784.150	0.0141048
784.228	0.0141584
784.307	0.0140603
784.385	0.0141405
784.463	0.0141225
784.541	0.0142033
784.619	0.0141161
784.697	0.0141556
784.775	0.0142381
784.853	0.0142844
784.932	0.0142226
785.010	0.0143792
785.088	0.0145825
785.166	0.0147483
785.244	0.0147787
785.322	0.0148041
785.400	0.0149554
785.478	0.0149616
785.557	0.0152186
785.635	0.0152808
785.713	0.0152132
785.791	0.0154256
785.869	0.0153917
785.947	0.0154393
786.025	0.0155653
786.103	0.0154459
786.182	0.0154899
786.260	0.0155573
786.338	0.0156210
786.416	0.0155233
786.494	0.0155190
786.572	0.0154577
786.650	0.0152711
786.728	0.0153072
786.807	0.0151207
786.885	0.0152358
786.963	0.0149819
787.041	0.0149630
787.119	0.0148873
787.197	0.0148902
787.275	0.0148103
787.353	0.0146457
787.432	0.0147198
787.510	0.0146274
787.588	0.0146182
787.666	0.0146786
787.744	0.0145787
787.822	0.0145784
787.900	0.0146225
787.978	0.0146302
788.057	0.0145688
788.135	0.0144847
788.213	0.0145223
788.291	0.0144553
788.369	0.0145204
788.447	0.0142840
788.525	0.0143394
788.603	0.0142918
788.682	0.0142516
788.760	0.0143005
788.838	0.0142142
788.916	0.0142670
788.994	0.0140490
789.072	0.0139972
789.150	0.0140380
789.228	0.0138424
789.307	0.0140384
789.385	0.0141649
789.463	0.0141117
789.541	0.0142303
789.619	0.0142526
789.697	0.0142629
789.775	0.0143044
789.853	0.0145852
789.932	0.0145798
790.010	0.0145468
790.088	0.0148051
790.166	0.0149193
790.244	0.0149201
790.322	0.0150475
790.400	0.0151508
790.478	0.0152252
790.557	0.0152332
790.635	0.0153414
790.713	0.0153392
790.791	0.0153987
790.869	0.0152116
790.947	0.0151257
791.025	0.0152411
791.103	0.0152435
791.182	0.0151448
791.260	0.0149644
791.338	0.0149896
791.416	0.0149566
791.494	0.0147862
791.572	0.0147165
791.650	0.0146149
791.728	0.0145786
791.807	0.0146235
791.885	0.0145938
791.963	0.0144234
792.041	0.0144547
792.119	0.0145880
792.197	0.0145741
792.275	0.0144692
792.353	0.0145014
792.432	0.0146880
792.510	0.0146462
792.588	0.0146366
792.666	0.0145855
792.744	0.0147248
792.822	0.0145573
792.900	0.0146563
792.978	0.0145812
793.057	0.0145148
793.135	0.0146782
793.213	0.0145402
793.291	0.0144848
793.369	0.0145760
793.447	0.0145694
793.525	0.0145125
793.603	0.0146260
793.682	0.0145271
793.760	0.0146049
793.838	0.0147196
793.916	0.0148956
793.994	0.0147810
794.072	0.0146580
794.150	0.0149186
794.228	0.0148042
794.307	0.0149583
794.385	0.0149253
794.463	0.0147621
794.541	0.0148825
794.619	0.0150252
794.697	0.0150816
794.775	0.0151369
794.853	0.0150231
794.932	0.0150121
795.010	0.0149256
795.088	0.0150737
795.166	0.0149758
795.244	0.0149639
795.322	0.0150359
795.400	0.0150843
795.478	0.0148582
795.557	0.0147276
795.635	0.0147660
795.713	0.0146213
795.791	0.0145917
795.869	0.0145806
795.947	0.0145468
796.025	0.0144654
796.103	0.0145158
796.182	0.0145464
796.260	0.0143677
796.338	0.0142528
796.416	0.0144346
796.494	0.0143768
796.572	0.0145081
796.650	0.0144153
796.728	0.0145773
796.807	0.0146203
796.885	0.0146165
796.963	0.0145300
797.041	0.0146175
797.119	0.0148341
797.197	0.0146609
797.275	0.0147984
797.353	0.0148000
797.432	0.0147257
797.510	0.0148746
797.588	0.0148988
797.666	0.0149702
797.744	0.0149176
797.822	0.0147997
797.900	0.0148837
797.978	0.0148196
798.057	0.0147611
798.135	0.0146532
798.213	0.0145460
798.291	0.0145144
798.369	0.0144617
798.447	0.0143881
798.525	0.0143973
798.603	0.0143866
798.682	0.0143627
798.760	0.0142677
798.838	0.0143815
798.916	0.0144454
798.994	0.0144380
799.072	0.0143294
799.150	0.0143735
799.228	0.0143198
799.307	0.0143951
799.385	0.0144086
799.463	0.0144705
799.541	0.0144664
799.619	0.0145381
799.697	0.0146049
799.775	0.0144927
799.853	0.0145969
799.932	0.0146088
800.010	0.0146545
800.088	0.0146806
800.166	0.0147632
800.244	0.0145264
800.322	0.0146255
800.400	0.0146301
800.478	0.0146967
800.557	0.0147557
800.635	0.0146183
800.713	0.0145311
800.791	0.0146117
800.869	0.0145583
800.947	0.0145920
801.025	0.0146711
801.103	0.0147211
801.182	0.0146253
801.260	0.0146735
801.338	0.0146452
801.416	0.0146985
801.494	0.0148146
801.572	0.0146170
801.650	0.0146128
801.728	0.0147671
801.807	0.0147957
801.885	0.0147034
801.963	0.0148374
802.041	0.0148451
802.119	0.0148891
802.197	0.0149094
802.275	0.0147662
802.353	0.0148331
802.432	0.0148597
802.510	0.0147987
802.588	0.0147584
802.666	0.0147368
802.744	0.0146386
802.822	0.0146449
802.900	0.0145827
802.978	0.0145575
803.057	0.0145861
803.135	0.0146024
803.213	0.0145452
803.291	0.0145221
803.369	0.0144997
803.447	0.0144366
803.525	0.0146236
803.603	0.0145929
803.682	0.0146146
803.760	0.0146204
803.838	0.0146001
803.916	0.0146120
803.994	0.0145926
804.072	0.0146292
804.150	0.0146557
804.228	0.0145512
804.307	0.0146494
804.385	0.0145496
804.463	0.0144844
804.541	0.0143267
804.619	0.0143954
804.697	0.0143503
804.775	0.0142686
804.853	0.0142239
804.932	0.0142643
805.010	0.0142372
805.088	0.0141064
805.166	0.0140583
805.244	0.0140764
805.322	0.0140329
805.400	0.0139465
805.478	0.0139745
805.557	0.0141447
805.635	0.0140402
805.713	0.0140615
805.791	0.0142143
805.869	0.0142439
805.947	0.0143642
806.025	0.0144208
806.103	0.0144625
806.182	0.0144840
806.260	0.0145091
806.338	0.0146097
806.416	0.0146401
806.494	0.0147569
806.572	0.0145132
806.650	0.0146582
806.728	0.0147707
806.807	0.0149000
806.885	0.0149039
806.963	0.0148679
807.041	0.0150407
807.119	0.0149123
807.197	0.0149009
807.275	0.0149426
807.353	0.0150592
807.432	0.0149593
807.510	0.0149966
807.588	0.0150838
807.666	0.0150562
807.744	0.0150779
807.822	0.0150797
807.900	0.0150287
807.978	0.0149849
808.057	0.0150249
808.135	0.0149168
808.213	0.0149810
808.291	0.0151212
808.369	0.0152189
808.447	0.0150549
808.525	0.0149747
808.603	0.0149377
808.682	0.0148999
808.760	0.0149686
808.838	0.0149147
808.916	0.0149981
808.994	0.0148154
809.072	0.0146925
809.150	0.0149240
809.228	0.0148126
809.307	0.0146890
809.385	0.0148555
809.463	0.0148149
809.541	0.0148756
809.619	0.0146806
809.697	0.0148573
809.775	0.0146286
809.853	0.0145916
809.932	0.0147153
810.010	0.0146242
810.088	0.0147173
810.166	0.0146623
810.244	0.0145824
810.322	0.0145484
810.400	0.0146978
810.478	0.0143901
810.557	0.0144679
810.635	0.0145851
810.713	0.0144547
810.791	0.0143907
810.869	0.0144038
810.947	0.0143698
811.025	0.0143104
811.103	0.0141533
811.182	0.0144329
811.260	0.0143755
811.338	0.0144178
811.416	0.0144189
811.494	0.0143729
811.572	0.0145556
811.650	0.0145478
811.728	0.0145338
811.807	0.0145103
811.885	0.0145635
811.963	0.0145345
812.041	0.0145292
812.119	0.0145118
812.197	0.0146989
812.275	0.0143892
812.353	0.0143850
812.432	0.0144083
812.510	0.0144926
812.588	0.0145547
812.666	0.0144319
812.744	0.0145188
812.822	0.0144789
812.900	0.0143505
812.978	0.0145546
813.057	0.0147400
813.135	0.0147243
813.213	0.0146947
813.291	0.0148280
813.369	0.0147552
813.447	0.0148734
813.525	0.0148660
813.603	0.0148681
813.682	0.0148123
813.760	0.0149783
813.838	0.0149854
813.916	0.0150018
813.994	0.0150072
814.072	0.0150159
814.150	0.0151020
814.228	0.0149999
814.307	0.0149693
814.385	0.0150726
814.463	0.0150384
814.541	0.0150385
814.619	0.0150336
814.697	0.0151124
814.775	0.0149699
814.853	0.0150386
814.932	0.0149902
815.010	0.0150304
815.088	0.0150669
815.166	0.0150778
815.244	0.0151357
815.322	0.0153020
815.400	0.0152682
815.478	0.0150894
815.557	0.0151866
815.635	0.0152434
815.713	0.0151873
815.791	0.0151048
815.869	0.0151828
815.947	0.0151824
816.025	0.0150224
816.103	0.0149957
816.182	0.0152069
816.260	0.0150756
816.338	0.0148710
816.416	0.0149613
816.494	0.0148403
816.572	0.0147378
816.650	0.0145451
816.728	0.0145643
816.807	0.0145248
816.885	0.0142879
816.963	0.0143242
817.041	0.0141786
817.119	0.0142983
817.197	0.0141820
817.275	0.0139297
817.353	0.0139222
817.432	0.0141145
817.510	0.0139526
817.588	0.0140485
817.666	0.0139812
817.744	0.0140160
817.822	0.0142476
817.900	0.0142177
817.978	0.0141673
818.057	0.0141260
818.135	0.0143743
818.213	0.0144252
818.291	0.0145278
818.369	0.0145119
818.447	0.0145526
818.525	0.0148006
818.603	0.0147839
818.682	0.0147723
818.760	0.0150108
818.838	0.0150600
818.916	0.0150778
818.994	0.0151780
819.072	0.0152610
819.150	0.0150925
819.228	0.0151192
819.307	0.0151308
819.385	0.0151823
819.463	0.0150301
819.541	0.0151058
819.619	0.0150044
819.697	0.0150560
819.775	0.0150533
819.853	0.0149480
819.932	0.0146423
820.010	0.0146939
820.088	0.0147871
820.166	0.0146982
820.244	0.0146663
820.322	0.0146233
820.400	0.0146050
820.478	0.0144609
820.557	0.0144896
820.635	0.0144359
820.713	0.0144600
820.791	0.0145259
820.869	0.0144296
820.947	0.0144031
821.025	0.0145954
821.103	0.0145669
821.182	0.0146226
821.260	0.0146336
821.338	0.0146426
821.416	0.0147978
821.494	0.0148775
821.572	0.0146584
821.650	0.0147410
821.728	0.0149357
821.807	0.0148338
821.885	0.0148544
821.963	0.0150675
822.041	0.0149406
822.119	0.0150446
822.197	0.0149683
822.275	0.0148040
822.353	0.0148772
822.432	0.0149203
822.510	0.0148457
822.588	0.0147811
822.666	0.0148151
822.744	0.0147627
822.822	0.0147811
822.900	0.0147961
822.978	0.0145106
823.057	0.0145705
823.135	0.0146857
823.213	0.0145741
823.291	0.0144689
823.369	0.0143102
823.447	0.0143298
823.525	0.0144479
823.603	0.0143666
823.682	0.0143337
823.760	0.0141689
823.838	0.0141579
823.916	0.0140929
823.994	0.0140554
824.072	0.0140900
824.150	0.0140960
824.228	0.0143021
824.307	0.0142295
824.385	0.0141140
824.463	0.0143402
824.541	0.0144113
824.619	0.0144536
824.697	0.0144380
824.775	0.0144564
824.853	0.0143861
824.932	0.0143398
825.010	0.0143863
825.088	0.0145779
825.166	0.0145556
825.244	0.0145717
825.322	0.0147242
825.400	0.0147994
825.478	0.0147609
825.557	0.0146909
825.635	0.0148141
825.713	0.0147172
825.791	0.0147708
825.869	0.0147298
825.947	0.0145773
826.025	0.0146860
826.103	0.0147406
826.182	0.0147622
826.260	0.0147406
826.338	0.0146977
826.416	0.0146254
826.494	0.0146951
826.572	0.0145506
826.650	0.0146094
826.728	0.0146272
826.807	0.0146729
826.885	0.0145686
826.963	0.0146974
827.041	0.0146810
827.119	0.0147755
827.197	0.0146960
827.275	0.0147088
827.353	0.0148418
827.432	0.0147492
827.510	0.0148949
827.588	0.0147184
827.666	0.0148540
827.744	0.0148917
827.822	0.0148856
827.900	0.0148768
827.978	0.0149154
828.057	0.0148333
828.135	0.0150407
828.213	0.0148361
828.291	0.0146805
828.369	0.0148570
828.447	0.0146930
828.525	0.0145542
828.603	0.0145730
828.682	0.0146485
828.760	0.0146104
828.838	0.0144981
828.916	0.0144127
828.994	0.0144868
829.072	0.0144231
829.150	0.0144154
829.228	0.0144842
829.307	0.0143814
829.385	0.0142980
829.463	0.0145220
829.541	0.0145551
829.619	0.0144091
829.697	0.0144727
829.775	0.0144328
829.853	0.0145627
829.932	0.0146788
830.010	0.0145683
830.088	0.0145440
830.166	0.0145760
830.244	0.0147073
830.322	0.0147545
830.400	0.0146410
830.478	0.0147322
830.557	0.0148656
830.635	0.0149400
830.713	0.0147496
830.791	0.0148241
830.869	0.0149685
830.947	0.0150511
831.025	0.0149744
831.103	0.0149142
831.182	0.0149856
831.260	0.0149615
831.338	0.0148875
831.416	0.0148621
831.494	0.0148843
831.572	0.0146413
831.650	0.0147400
831.728	0.0146609
831.807	0.0145793
831.885	0.0145989
831.963	0.0144210
832.041	0.0146622
832.119	0.0146188
832.197	0.0145638
832.275	0.0144602
832.353	0.0147713
832.432	0.0145824
832.510	0.0146025
832.588	0.0148180
832.666	0.0146584
832.744	0.0146146
832.822	0.0147220
832.900	0.0147028
832.978	0.0148968
833.057	0.0148105
833.135	0.0149546
833.213	0.0149867
833.291	0.0148760
833.369	0.0148984
833.447	0.0149181
833.525	0.0149968
833.603	0.0150797
833.682	0.0148211
833.760	0.0147775
833.838	0.0147944
833.916	0.0148150
833.994	0.0146327
834.072	0.0145685
834.150	0.0146090
834.228	0.0143987
834.307	0.0142501
834.385	0.0144747
834.463	0.0143913
834.541	0.0143999
834.619	0.0143234
834.697	0.0142979
834.775	0.0143946
834.853	0.0143255
834.932	0.0144071
835.010	0.0144563
835.088	0.0143085
835.166	0.0143719
835.244	0.0144606
835.322	0.0145990
835.400	0.0145704
835.478	0.0146887
835.557	0.0147896
835.635	0.0147433
835.713	0.0148514
835.791	0.0149029
835.869	0.0148671
835.947	0.0148640
836.025	0.0150092
836.103	0.0149622
836.182	0.0150542
836.260	0.0148837
836.338	0.0148928
836.416	0.0149860
836.494	0.0149249
836.572	0.0148648
836.650	0.0149070
836.728	0.0149241
836.807	0.0147624
836.885	0.0148106
836.963	0.0146812
837.041	0.0146913
837.119	0.0148006
837.197	0.0147601
837.275	0.0146404
837.353	0.0147809
837.432	0.0147511
837.510	0.0148328
837.588	0.0148367
837.666	0.0147968
837.744	0.0146869
837.822	0.0147380
837.900	0.0147994
837.978	0.0148940
838.057	0.0148228
838.135	0.0147808
838.213	0.0148079
838.291	0.0149660
838.369	0.0148969
838.447	0.0150058
838.525	0.0148311
838.603	0.0148512
838.682	0.0149168
838.760	0.0149436
838.838	0.0148402
838.916	0.0147859
838.994	0.0148964
839.072	0.0149265
839.150	0.0147734
839.228	0.0148762
839.307	0.0148055
839.385	0.0147747
839.463	0.0147312
839.541	0.0146811
839.619	0.0145580
839.697	0.0146767
839.775	0.0147007
839.853	0.0144894
839.932	0.0147392
840.010	0.0148620
840.088	0.0144644
840.166	0.0144073
840.244	0.0144527
840.322	0.0144898
840.400	0.0145379
840.478	0.0144651
840.557	0.0145670
840.635	0.0146336
840.713	0.0144710
840.791	0.0144836
840.869	0.0145534
840.947	0.0146623
841.025	0.0146173
841.103	0.0147081
841.182	0.0149221
841.260	0.0147733
841.338	0.0146498
841.416	0.0147802
841.494	0.0148474
841.572	0.0147195
841.650	0.0148022
841.728	0.0148002
841.807	0.0148132
841.885	0.0149362
841.963	0.0149006
842.041	0.0148535
842.119	0.0148630
842.197	0.0147758
842.275	0.0147693
842.353	0.0147940
842.432	0.0148841
842.510	0.0148381
842.588	0.0149261
842.666	0.0147506
842.744	0.0148468
842.822	0.0147488
842.900	0.0147890
842.978	0.0147648
843.057	0.0148089
843.135	0.0147723
843.213	0.0147769
843.291	0.0146960
843.369	0.0147842
843.447	0.0147427
843.525	0.0147615
843.603	0.0147872
843.682	0.0147631
843.760	0.0147383
843.838	0.0148027
843.916	0.0148754
843.994	0.0148625
844.072	0.0147934
844.150	0.0148565
844.228	0.0149065
844.307	0.0149030
844.385	0.0148645
844.463	0.0149650
844.541	0.0150259
844.619	0.0151085
844.697	0.0150492
844.775	0.0151099
844.853	0.0150926
844.932	0.0150320
845.010	0.0149962
845.088	0.0150793
845.166	0.0151129
845.244	0.0151479
845.322	0.0152097
845.400	0.0148843
845.478	0.0148849
845.557	0.0151263
845.635	0.0150298
845.713	0.0149265
845.791	0.0147183
845.869	0.0147443
845.947	0.0147635
846.025	0.0146947
846.103	0.0146548
846.182	0.0144576
846.260	0.0146099
846.338	0.0144622
846.416	0.0144378
846.494	0.0145178
846.572	0.0144171
846.650	0.0143650
846.728	0.0143353
846.807	0.0143267
846.885	0.0143761
846.963	0.0143264
847.041	0.0144090
847.119	0.0144550
847.197	0.0143728
847.275	0.0143955
847.353	0.0144685
847.432	0.0144698
847.510	0.0144548
847.588	0.0144662
847.666	0.0145533
847.744	0.0145484
847.822	0.0146447
847.900	0.0147558
847.978	0.0145550
848.057	0.0147614
848.135	0.0147644
848.213	0.0148283
848.291	0.0147713
848.369	0.0150230
848.447	0.0149320
848.525	0.0149259
848.603	0.0148242
848.682	0.0148980
848.760	0.0149112
848.838	0.0149350
848.916	0.0150166
848.994	0.0150937
849.072	0.0149636
849.150	0.0148336
849.228	0.0149308
849.307	0.0148851
849.385	0.0149020
849.463	0.0148912
849.541	0.0148322
849.619	0.0147791
849.697	0.0146163
849.775	0.0147548
849.853	0.0147525
849.932	0.0147887
850.010	0.0147054
850.088	0.0147261
850.166	0.0148211
850.244	0.0147271
850.322	0.0146558
850.400	0.0146883
850.478	0.0147281
850.557	0.0147319
850.635	0.0146448
850.713	0.0145707
850.791	0.0146843
850.869	0.0148244
850.947	0.0148003
851.025	0.0147971
851.103	0.0146527
851.182	0.0147401
851.260	0.0149133
851.338	0.0147923
851.416	0.0149141
851.494	0.0148795
851.572	0.0148668
851.650	0.0148376
851.728	0.0149054
851.807	0.0148657
851.885	0.0148632
851.963	0.0148393
852.041	0.0147391
852.119	0.0147219
852.197	0.0146776
852.275	0.0146695
852.353	0.0146659
852.432	0.0146492
852.510	0.0145186
852.588	0.0145224
852.666	0.0145332
852.744	0.0146212
852.822	0.0146136
852.900	0.0145988
852.978	0.0146232
853.057	0.0145334
853.135	0.0145108
853.213	0.0144659
853.291	0.0145126
853.369	0.0146501
853.447	0.0146180
853.525	0.0145235
853.603	0.0145823
853.682	0.0147530
853.760	0.0144708
853.838	0.0145081
853.916	0.0145041
853.994	0.0147104
854.072	0.0145742
854.150	0.0145142
854.228	0.0145602
854.307	0.0145805
854.385	0.0146042
854.463	0.0144024
854.541	0.0143449
854.619	0.0145206
854.697	0.0145606
854.775	0.0145249
854.853	0.0146709
854.932	0.0145084
855.010	0.0144324
855.088	0.0144755
855.166	0.0146495
855.244	0.0144526
855.322	0.0146102
855.400	0.0145851
855.478	0.0146091
855.557	0.0146777
855.635	0.0147018
855.713	0.0147364
855.791	0.0146519
855.869	0.0146946
855.947	0.0145881
856.025	0.0146496
856.103	0.0147636
856.182	0.0147722
856.260	0.0148564
856.338	0.0149441
856.416	0.0148679
856.494	0.0148656
856.572	0.0147724
856.650	0.0149021
856.728	0.0149998
856.807	0.0148855
856.885	0.0149850
856.963	0.0149774
857.041	0.0148064
857.119	0.0150923
857.197	0.0150931
857.275	0.0149284
857.353	0.0149323
857.432	0.0147655
857.510	0.0148136
857.588	0.0149171
857.666	0.0147836
857.744	0.0147614
857.822	0.0146489
857.900	0.0148692
857.978	0.0145929
858.057	0.0146385
858.135	0.0145234
858.213	0.0144681
858.291	0.0145218
858.369	0.0143985
858.447	0.0143661
858.525	0.0142696
858.603	0.0143326
858.682	0.0143351
858.760	0.0142116
858.838	0.0142093
858.916	0.0141791
858.994	0.0142957
859.072	0.0142081
859.150	0.0142974
859.228	0.0142726
859.307	0.0142874
859.385	0.0142203
859.463	0.0142937
859.541	0.0142990
859.619	0.0144181
859.697	0.0143991
859.775	0.0144737
859.853	0.0145052
859.932	0.0144756
860.010	0.0144235
860.088	0.0145560
860.166	0.0146774
860.244	0.0148252
860.322	0.0147672
860.400	0.0148766
860.478	0.0151215
860.557	0.0149490
860.635	0.0151463
860.713	0.0150475
860.791	0.0149963
860.869	0.0150018
860.947	0.0151701
861.025	0.0150349
861.103	0.0149929
861.182	0.0152305
861.260	0.0151722
861.338	0.0150165
861.416	0.0149905
861.494	0.0149150
861.572	0.0151649
861.650	0.0150808
861.728	0.0149531
861.807	0.0150314
861.885	0.0149702
861.963	0.0148665
862.041	0.0148637
862.119	0.0147984
862.197	0.0148515
862.275	0.0146849
862.353	0.0145159
862.432	0.0146159
862.510	0.0147453
862.588	0.0143772
862.666	0.0144878
862.744	0.0143588
862.822	0.0144334
862.900	0.0144041
862.978	0.0144832
863.057	0.0145438
863.135	0.0145042
863.213	0.0145418
863.291	0.0144518
863.369	0.0146605
863.447	0.0146513
863.525	0.0147294
863.603	0.0144576
863.682	0.0145830
863.760	0.0146135
863.838	0.0146530
863.916	0.0146721
863.994	0.0148803
864.072	0.0148056
864.150	0.0149360
864.228	0.0149052
864.307	0.0148914
864.385	0.0150663
864.463	0.0149683
864.541	0.0149384
864.619	0.0149790
864.697	0.0151563
864.775	0.0150109
864.853	0.0149792
864.932	0.0147976
865.010	0.0148764
865.088	0.0149806
865.166	0.0148615
865.244	0.0147872
865.322	0.0146707
865.400	0.0147060
865.478	0.0147408
865.557	0.0147439
865.635	0.0146742
865.713	0.0146222
865.791	0.0145161
865.869	0.0145509
865.947	0.0145671
866.025	0.0146774
866.103	0.0145293
866.182	0.0144740
866.260	0.0145107
866.338	0.0145654
866.416	0.0145365
866.494	0.0145949
866.572	0.0146812
866.650	0.0146635
866.728	0.0145625
866.807	0.0146610
866.885	0.0147159
866.963	0.0147299
867.041	0.0147161
867.119	0.0147438
867.197	0.0147728
867.275	0.0148901
867.353	0.0148499
867.432	0.0150305
867.510	0.0148235
867.588	0.0148618
867.666	0.0148145
867.744	0.0149733
867.822	0.0150578
867.900	0.0149681
867.978	0.0148314
868.057	0.0148459
868.135	0.0148714
868.213	0.0148758
868.291	0.0148109
868.369	0.0147628
868.447	0.0146185
868.525	0.0147540
868.603	0.0148897
868.682	0.0148473
868.760	0.0147787
868.838	0.0148482
868.916	0.0148753
868.994	0.0148559
869.072	0.0148532
869.150	0.0149515
869.228	0.0148899
869.307	0.0151289
869.385	0.0150632
869.463	0.0148442
869.541	0.0148299
869.619	0.0148360
869.697	0.0149338
869.775	0.0148441
869.853	0.0148581
869.932	0.0149047
870.010	0.0147371
870.088	0.0146474
870.166	0.0147068
870.244	0.0146188
870.322	0.0145827
870.400	0.0146861
870.478	0.0144360
870.557	0.0144879
870.635	0.0145697
870.713	0.0144744
870.791	0.0144630
870.869	0.0144418
870.947	0.0145171
871.025	0.0143992
871.103	0.0143224
871.182	0.0144798
871.260	0.0145659
871.338	0.0144994
871.416	0.0146038
871.494	0.0146658
871.572	0.0146845
871.650	0.0147232
871.728	0.0147605
871.807	0.0149210
871.885	0.0149966
871.963	0.0150381
872.041	0.0149607
872.119	0.0150328
872.197	0.0151275
872.275	0.0151425
872.353	0.0153221
872.432	0.0152521
872.510	0.0152037
872.588	0.0151238
872.666	0.0152217
872.744	0.0151623
872.822	0.0150409
872.900	0.0151915
872.978	0.0150645
873.057	0.0149123
873.135	0.0149667
873.213	0.0151038
873.291	0.0150156
873.369	0.0148304
873.447	0.0149748
873.525	0.0149246
873.603	0.0147695
873.682	0.0144915
873.760	0.0147164
873.838	0.0146331
873.916	0.0147557
873.994	0.0145949
874.072	0.0146296
874.150	0.0146711
874.228	0.0145623
874.307	0.0145843
874.385	0.0145952
874.463	0.0144851
874.541	0.0145431
874.619	0.0146748
874.697	0.0146659
874.775	0.0146245
874.853	0.0145222
874.932	0.0146072
875.010	0.0145573
875.088	0.0146451
875.166	0.0145808
875.244	0.0146384
875.322	0.0146960
875.400	0.0146983
875.478	0.0145111
875.557	0.0149134
875.635	0.0147443
875.713	0.0148559
875.791	0.0149045
875.869	0.0148340
875.947	0.0148879
876.025	0.0148942
876.103	0.0148923
876.182	0.0149905
876.260	0.0148702
876.338	0.0148949
876.416	0.0149180
876.494	0.0149463
876.572	0.0149218
876.650	0.0148910
876.728	0.0148917
876.807	0.0149174
876.885	0.0149545
876.963	0.0148908
877.041	0.0148354
877.119	0.0148395
877.197	0.0149332
877.275	0.0148651
877.353	0.0148105
877.432	0.0147049
877.510	0.0146828
877.588	0.0146043
877.666	0.0145766
877.744	0.0145597
877.822	0.0144172
877.900	0.0145956
877.978	0.0144678
878.057	0.0142399
878.135	0.0144023
878.213	0.0142658
878.291	0.0142013
878.369	0.0143115
878.447	0.0142661
878.525	0.0142853
878.603	0.0142435
878.682	0.0142966
878.760	0.0142962
878.838	0.0142755
878.916	0.0142937
878.994	0.0143970
879.072	0.0144096
879.150	0.0144521
879.228	0.0144238
879.307	0.0144618
879.385	0.0144652
879.463	0.0145090
879.541	0.0146829
879.619	0.0147456
879.697	0.0146011
879.775	0.0148078
879.853	0.0148306
879.932	0.0148738
880.010	0.0148517
880.088	0.0148505
880.166	0.0148077
880.244	0.0148854
880.322	0.0149178
880.400	0.0148792
880.478	0.0149976
880.557	0.0148744
880.635	0.0149149
880.713	0.0149665
880.791	0.0149158
880.869	0.0148786
880.947	0.0147755
881.025	0.0147607
881.103	0.0148113
881.182	0.0148493
881.260	0.0148294
881.338	0.0147865
881.416	0.0146650
881.494	0.0146535
881.572	0.0147890
881.650	0.0146689
881.728	0.0145966
881.807	0.0146477
881.885	0.0145822
881.963	0.0145017
882.041	0.0146311
882.119	0.0146458
882.197	0.0145821
882.275	0.0145850
882.353	0.0144997
882.432	0.0144151
882.510	0.0144991
882.588	0.0144564
882.666	0.0144970
882.744	0.0144823
882.822	0.0145783
882.900	0.0143987
882.978	0.0145715
883.057	0.0144858
883.135	0.0144843
883.213	0.0146468
883.291	0.0146141
883.369	0.0146925
883.447	0.0146603
883.525	0.0146729
883.603	0.0146905
883.682	0.0147668
883.760	0.0147570
883.838	0.0146355
883.916	0.0146676
883.994	0.0145342
884.072	0.0146049
884.150	0.0146431
884.228	0.0144793
884.307	0.0144829
884.385	0.0145465
884.463	0.0145766
884.541	0.0143951
884.619	0.0144973
884.697	0.0146120
884.775	0.0146178
884.853	0.0146770
884.932	0.0145676
885.010	0.0146101
885.088	0.0148621
885.166	0.0147364
885.244	0.0147797
885.322	0.0147552
885.400	0.0146569
885.478	0.0147363
885.557	0.0147571
885.635	0.0148838
885.713	0.0146810
885.791	0.0146869
885.869	0.0146702
885.947	0.0147519
886.025	0.0146002
886.103	0.0147163
886.182	0.0146062
886.260	0.0147709
886.338	0.0145895
886.416	0.0146134
886.494	0.0146844
886.572	0.0146351
886.650	0.0144394
886.728	0.0143717
886.807	0.0145351
886.885	0.0145110
886.963	0.0146346
887.041	0.0146549
887.119	0.0145184
887.197	0.0145370
887.275	0.0146272
887.353	0.0145390
887.432	0.0146743
887.510	0.0147245
887.588	0.0147211
887.666	0.0147947
887.744	0.0148399
887.822	0.0147433
887.900	0.0148865
887.978	0.0148988
888.057	0.0149508
888.135	0.0150394
888.213	0.0149734
888.291	0.0150397
888.369	0.0149891
888.447	0.0150528
888.525	0.0150357
888.603	0.0150049
888.682	0.0151064
888.760	0.0151304
888.838	0.0151192
888.916	0.0152141
888.994	0.0150495
889.072	0.0150617
889.150	0.0151016
889.228	0.0149526
889.307	0.0149053
889.385	0.0149145
889.463	0.0148939
889.541	0.0148483
889.619	0.0146893
889.697	0.0145095
889.775	0.0145361
889.853	0.0147036
889.932	0.0144716
890.010	0.0145533
890.088	0.0145458
890.166	0.0144149
890.244	0.0143459
890.322	0.0144933
890.400	0.0144241
890.478	0.0144584
890.557	0.0144317
890.635	0.0144965
890.713	0.0145643
890.791	0.0145600
890.869	0.0144739
890.947	0.0145358
891.025	0.0146753
891.103	0.0146735
891.182	0.0146374
891.260	0.0147437
891.338	0.0147730
891.416	0.0148026
891.494	0.0148085
891.572	0.0148195
891.650	0.0148911
891.728	0.0149299
891.807	0.0148374
891.885	0.0148611
891.963	0.0149476
892.041	0.0150566
892.119	0.0149274
892.197	0.0149194
892.275	0.0149052
892.353	0.0150179
892.432	0.0149345
892.510	0.0148966
892.588	0.0150040
892.666	0.0149627
892.744	0.0148389
892.822	0.0150347
892.900	0.0149182
892.978	0.0148631
893.057	0.0148228
893.135	0.0149614
893.213	0.0149576
893.291	0.0148321
893.369	0.0147394
893.447	0.0147854
893.525	0.0148784
893.603	0.0148072
893.682	0.0146622
893.760	0.0147958
893.838	0.0148608
893.916	0.0147293
893.994	0.0146650
894.072	0.0146985
894.150	0.0146693
894.228	0.0147448
894.307	0.0147186
894.385	0.0146809
894.463	0.0146223
894.541	0.0146313
894.619	0.0147071
894.697	0.0146668
894.775	0.0146598
894.853	0.0146881
894.932	0.0148332
895.010	0.0147793
895.088	0.0148197
895.166	0.0146618
895.244	0.0146470
895.322	0.0146861
895.400	0.0147183
895.478	0.0146767
895.557	0.0147922
895.635	0.0145075
895.713	0.0145521
895.791	0.0146120
895.869	0.0145670
895.947	0.0146030
896.025	0.0147066
896.103	0.0146928
896.182	0.0146503
896.260	0.0145741
896.338	0.0146655
896.416	0.0144795
896.494	0.0145330
896.572	0.0147704
896.650	0.0146935
896.728	0.0145164
896.807	0.0145737
896.885	0.0147122
896.963	0.0146320
897.041	0.0146746
897.119	0.0147384
897.197	0.0145782
897.275	0.0147990
897.353	0.0147125
897.432	0.0147632
897.510	0.0149495
897.588	0.0147532
897.666	0.0147364
897.744	0.0147575
897.822	0.0147163
897.900	0.0147807
897.978	0.0149176
898.057	0.0148817
898.135	0.0147813
898.213	0.0148074
898.291	0.0148225
898.369	0.0147981
898.447	0.0149718
898.525	0.0148663
898.603	0.0148565
898.682	0.0148232
898.760	0.0147067
898.838	0.0146282
898.916	0.0147574
898.994	0.0145250
899.072	0.0145964
899.150	0.0146248
899.228	0.0145414
899.307	0.0145135
899.385	0.0144186
899.463	0.0143644
899.541	0.0143861
899.619	0.0142941
899.697	0.0144167
899.775	0.0142937
899.853	0.0145113
899.932	0.0143776
900.010	0.0142750
900.088	0.0143927
900.166	0.0142939
900.244	0.0144393
900.322	0.0144954
900.400	0.0145387
900.478	0.0146030
900.557	0.0145640
900.635	0.0145726
900.713	0.0146134
900.791	0.0146754
900.869	0.0147423
900.947	0.0147512
901.025	0.0147379
901.103	0.0146676
901.182	0.0147982
901.260	0.0147524
901.338	0.0149458
901.416	0.0147214
901.494	0.0147753
901.572	0.0147705
901.650	0.0146857
901.728	0.0146687
901.807	0.0145858
901.885	0.0145929
901.963	0.0146521
902.041	0.0145551
902.119	0.0145172
902.197	0.0146655
902.275	0.0144650
902.353	0.0144946
902.432	0.0144806
902.510	0.0143674
902.588	0.0144755
902.666	0.0144914
902.744	0.0144686
902.822	0.0144530
902.900	0.0145187
902.978	0.0144208
903.057	0.0145031
903.135	0.0144569
903.213	0.0144702
903.291	0.0145623
903.369	0.0145319
903.447	0.0145972
903.525	0.0145257
903.603	0.0145274
903.682	0.0145490
903.760	0.0146127
903.838	0.0146286
903.916	0.0145533
903.994	0.0145571
904.072	0.0148034
904.150	0.0147655
904.228	0.0147102
904.307	0.0146973
904.385	0.0148324
904.463	0.0146521
904.541	0.0146568
904.619	0.0147520
904.697	0.0147862
904.775	0.0146590
904.853	0.0146268
904.932	0.0145985
905.010	0.0147010
905.088	0.0146113
905.166	0.0146901
905.244	0.0148402
905.322	0.0147350
905.400	0.0147244
905.478	0.0147292
905.557	0.0146936
905.635	0.0147082
905.713	0.0146897
905.791	0.0146712
905.869	0.0146980
905.947	0.0146535
906.025	0.0146074
906.103	0.0146416
906.182	0.0146461
906.260	0.0145184
906.338	0.0145044
906.416	0.0145932
906.494	0.0145881
906.572	0.0146141
906.650	0.0147237
906.728	0.0146092
906.807	0.0146291
906.885	0.0145512
906.963	0.0144907
907.041	0.0144777
907.119	0.0146108
907.197	0.0146439
907.275	0.0144742
907.353	0.0143577
907.432	0.0145334
907.510	0.0144924
907.588	0.0144174
907.666	0.0144696
907.744	0.0146534
907.822	0.0145939
907.900	0.0144345
907.978	0.0144815
908.057	0.0146556
908.135	0.0145863
908.213	0.0144826
908.291	0.0143902
908.369	0.0144648
908.447	0.0146481
908.525	0.0146828
908.603	0.0145216
908.682	0.0145869
908.760	0.0146619
908.838	0.0147880
908.916	0.0146507
908.994	0.0146461
909.072	0.0146616
909.150	0.0146310
909.228	0.0146948
909.307	0.0146090
909.385	0.0146690
909.463	0.0145968
909.541	0.0146183
909.619	0.0146527
909.697	0.0147145
909.775	0.0146759
909.853	0.0148001
909.932	0.0145206
910.010	0.0146597
910.088	0.0145065
910.166	0.0146092
910.244	0.0146281
910.322	0.0147192
910.400	0.0146968
910.478	0.0147677
910.557	0.0147604
910.635	0.0146351
910.713	0.0146709
910.791	0.0148553
910.869	0.0148215
910.947	0.0146777
911.025	0.0146504
911.103	0.0146844
911.182	0.0147440
911.260	0.0145913
911.338	0.0148769
911.416	0.0147218
911.494	0.0145059
911.572	0.0145378
911.650	0.0146704
911.728	0.0145963
911.807	0.0144569
911.885	0.0144466
911.963	0.0145981
912.041	0.0145771
912.119	0.0144638
912.197	0.0143982
912.275	0.0144141
912.353	0.0145361
912.432	0.0145267
912.510	0.0143734
912.588	0.0146356
912.666	0.0146614
912.744	0.0145336
912.822	0.0145547
912.900	0.0146857
912.978	0.0147290
913.057	0.0146730
913.135	0.0147839
913.213	0.0147678
913.291	0.0147285
913.369	0.0147694
913.447	0.0147871
913.525	0.0148715
913.603	0.0149084
913.682	0.0148817
913.760	0.0147883
913.838	0.0148875
913.916	0.0149342
913.994	0.0148243
914.072	0.0148656
914.150	0.0149207
914.228	0.0149632
914.307	0.0148885
914.385	0.0149502
914.463	0.0150354
914.541	0.0149229
914.619	0.0148270
914.697	0.0147633
914.775	0.0148025
914.853	0.0148042
914.932	0.0147746
915.010	0.0146597
915.088	0.0147552
915.166	0.0147147
915.244	0.0147182
915.322	0.0147012
915.400	0.0146102
915.478	0.0145759
915.557	0.0145821
915.635	0.0145795
915.713	0.0144775
915.791	0.0146465
915.869	0.0145750
915.947	0.0145685
916.025	0.0145465
916.103	0.0144083
916.182	0.0144933
916.260	0.0145123
916.338	0.0145302
916.416	0.0144705
916.494	0.0145872
916.572	0.0144981
916.650	0.0145270
916.728	0.0144839
916.807	0.0145490
916.885	0.0146511
916.963	0.0146519
917.041	0.0146292
917.119	0.0145630
917.197	0.0144936
917.275	0.0147352
917.353	0.0147205
917.432	0.0146631
917.510	0.0146526
917.588	0.0147142
917.666	0.0147464
917.744	0.0146027
917.822	0.0146889
917.900	0.0146881
917.978	0.0147172
918.057	0.0148293
918.135	0.0147179
918.213	0.0147472
918.291	0.0148374
918.369	0.0148573
918.447	0.0148256
918.525	0.0148138
918.603	0.0147839
918.682	0.0149543
918.760	0.0147882
918.838	0.0148750
918.916	0.0149239
918.994	0.0148708
919.072	0.0148520
919.150	0.0148592
919.228	0.0150262
919.307	0.0148346
919.385	0.0148112
919.463	0.0148640
919.541	0.0148853
919.619	0.0147398
919.697	0.0147912
919.775	0.0147695
919.853	0.0147765
919.932	0.0147488
920.010	0.0146991
920.088	0.0148460
920.166	0.0147506
920.244	0.0146848
920.322	0.0148026
920.400	0.0146819
920.478	0.0146272
920.557	0.0145994
920.635	0.0145153
920.713	0.0145468
920.791	0.0144211
920.869	0.0144748
920.947	0.0144560
921.025	0.0144040
921.103	0.0141876
921.182	0.0143501
921.260	0.0144288
921.338	0.0143188
921.416	0.0142492
921.494	0.0143947
921.572	0.0143567
921.650	0.0143417
921.728	0.0144769
921.807	0.0144128
921.885	0.0144444
921.963	0.0145920
922.041	0.0145229
922.119	0.0145750
922.197	0.0147159
922.275	0.0146046
922.353	0.0145900
922.432	0.0146758
922.510	0.0146861
922.588	0.0148458
922.666	0.0148464
922.744	0.0148439
922.822	0.0148817
922.900	0.0148357
922.978	0.0148197
923.057	0.0148677
923.135	0.0148313
923.213	0.0146726
923.291	0.0147771
923.369	0.0147283
923.447	0.0146926
923.525	0.0147115
923.603	0.0147861
923.682	0.0145634
923.760	0.0147575
923.838	0.0147688
923.916	0.0146604
923.994	0.0145939
924.072	0.0147117
924.150	0.0147771
924.228	0.0148370
924.307	0.0147787
924.385	0.0148322
924.463	0.0147210
924.541	0.0148706
924.619	0.0149181
924.697	0.0147520
924.775	0.0149091
924.853	0.0148450
924.932	0.0148663
925.010	0.0148354
925.088	0.0148539
925.166	0.0149823
925.244	0.0148351
925.322	0.0147746
925.400	0.0147232
925.478	0.0145520
925.557	0.0147760
925.635	0.0147707
925.713	0.0148310
925.791	0.0147555
925.869	0.0146522
925.947	0.0145842
926.025	0.0146188
926.103	0.0147019
926.182	0.0146350
926.260	0.0146742
926.338	0.0145187
926.416	0.0144999
926.494	0.0146532
926.572	0.0146263
926.650	0.0145924
926.728	0.0145257
926.807	0.0146391
926.885	0.0145261
926.963	0.0144610
927.041	0.0145483
927.119	0.0145882
927.197	0.0145815
927.275	0.0146203
927.353	0.0146443
927.432	0.0145770
927.510	0.0144514
927.588	0.0146396
927.666	0.0147469
927.744	0.0147015
927.822	0.0146829
927.900	0.0147491
927.978	0.0146912
928.057	0.0146758
928.135	0.0147646
928.213	0.0146378
928.291	0.0146598
928.369	0.0145190
928.447	0.0145226
928.525	0.0146612
928.603	0.0146669
928.682	0.0148398
928.760	0.0147095
928.838	0.0146008
928.916	0.0146909
928.994	0.0146615
929.072	0.0147350
929.150	0.0146770
929.228	0.0147586
929.307	0.0146610
929.385	0.0147133
929.463	0.0147768
929.541	0.0146504
929.619	0.0147292
929.697	0.0148619
929.775	0.0147713
929.853	0.0148782
929.932	0.0146780
930.010	0.0146766
930.088	0.0147728
930.166	0.0148224
930.244	0.0147198
930.322	0.0148249
930.400	0.0147079
930.478	0.0145738
930.557	0.0145777
930.635	0.0147574
930.713	0.0146764
930.791	0.0145928
930.869	0.0147942
930.947	0.0145779
931.025	0.0146507
931.103	0.0145531
931.182	0.0146310
931.260	0.0146542
931.338	0.0145840
931.416	0.0145670
931.494	0.0146915
931.572	0.0147013
931.650	0.0146112
931.728	0.0145306
931.807	0.0146098
931.885	0.0146928
931.963	0.0147176
932.041	0.0145658
932.119	0.0147161
932.197	0.0147026
932.275	0.0146585
932.353	0.0146416
932.432	0.0146056
932.510	0.0147144
932.588	0.0146872
932.666	0.0146872
932.744	0.0148238
932.822	0.0148303
932.900	0.0148262
932.978	0.0149950
933.057	0.0147060
933.135	0.0147483
933.213	0.0147603
933.291	0.0147902
933.369	0.0147787
933.447	0.0147006
933.525	0.0146503
933.603	0.0144971
933.682	0.0147197
933.760	0.0146141
933.838	0.0146527
933.916	0.0146105
933.994	0.0143810
934.072	0.0145139
934.150	0.0147272
934.228	0.0146419
934.307	0.0145033
934.385	0.0145410
934.463	0.0146484
934.541	0.0144881
934.619	0.0146449
934.697	0.0144611
934.775	0.0147849
934.853	0.0147659
934.932	0.0146190
935.010	0.0146014
935.088	0.0146767
935.166	0.0146564
935.244	0.0147021
935.322	0.0147001
935.400	0.0147544
935.478	0.0148051
935.557	0.0146852
935.635	0.0146540
935.713	0.0148512
935.791	0.0146824
935.869	0.0147282
935.947	0.0147367
936.025	0.0146864
936.103	0.0148758
936.182	0.0146217
936.260	0.0148455
936.338	0.0147847
936.416	0.0145608
936.494	0.0145240
936.572	0.0146275
936.650	0.0146497
936.728	0.0146841
936.807	0.0145933
936.885	0.0146421
936.963	0.0145774
937.041	0.0146923
937.119	0.0146580
937.197	0.0145547
937.275	0.0146656
937.353	0.0145946
937.432	0.0146094
937.510	0.0146020
937.588	0.0146140
937.666	0.0144642
937.744	0.0145247
937.822	0.0146490
937.900	0.0145493
937.978	0.0145454
938.057	0.0145541
938.135	0.0146990
938.213	0.0146176
938.291	0.0146838
938.369	0.0145386
938.447	0.0145386
938.525	0.0146819
938.603	0.0148061
938.682	0.0147271
938.760	0.0146158
938.838	0.0146362
938.916	0.0148257
938.994	0.0147665
939.072	0.0148254
939.150	0.0148143
939.228	0.0147824
939.307	0.0147667
939.385	0.0147069
939.463	0.0146685
939.541	0.0147135
939.619	0.0148478
939.697	0.0147924
939.775	0.0148204
939.853	0.0146761
939.932	0.0146581
940.010	0.0147945
940.088	0.0147385
940.166	0.0148132
940.244	0.0146844
940.322	0.0148875
940.400	0.0147146
940.478	0.0145831
940.557	0.0147618
940.635	0.0147712
940.713	0.0147142
940.791	0.0147243
940.869	0.0146746
940.947	0.0147349
941.025	0.0147434
941.103	0.0147239
941.182	0.0146582
941.260	0.0145784
941.338	0.0148321
941.416	0.0146454
941.494	0.0145724
941.572	0.0146217
941.650	0.0146644
941.728	0.0147779
941.807	0.0147163
941.885	0.0147626
941.963	0.0147338
942.041	0.0146844
942.119	0.0146506
942.197	0.0146912
942.275	0.0148003
942.353	0.0146696
942.432	0.0145869
942.510	0.0146500
942.588	0.0147548
942.666	0.0146886
942.744	0.0146188
942.822	0.0146841
942.900	0.0147531
942.978	0.0146858
943.057	0.0145562
943.135	0.0146358
943.213	0.0146642
943.291	0.0145647
943.369	0.0146046
943.447	0.0146641
943.525	0.0146220
943.603	0.0145877
943.682	0.0145731
943.760	0.0146160
943.838	0.0145757
943.916	0.0145028
943.994	0.0146088
944.072	0.0147592
944.150	0.0145346
944.228	0.0146673
944.307	0.0146907
944.385	0.0146506
944.463	0.0147099
944.541	0.0148136
944.619	0.0146231
944.697	0.0147565
944.775	0.0147713
944.853	0.0147240
944.932	0.0147029
945.010	0.0148254
945.088	0.0148001
945.166	0.0147350
945.244	0.0148299
945.322	0.0148206
945.400	0.0148895
945.478	0.0147982
945.557	0.0146938
945.635	0.0148102
945.713	0.0148395
945.791	0.0148403
945.869	0.0147742
945.947	0.0147794
946.025	0.0146459
946.103	0.0147276
946.182	0.0148153
946.260	0.0148825
946.338	0.0147862
946.416	0.0146511
946.494	0.0146242
946.572	0.0148043
946.650	0.0146777
946.728	0.0146619
946.807	0.0146989
946.885	0.0147352
946.963	0.0146590
947.041	0.0148438
947.119	0.0147154
947.197	0.0147164
947.275	0.0147796
947.353	0.0147519
947.432	0.0147598
947.510	0.0146999
947.588	0.0148882
947.666	0.0149312
947.744	0.0149186
947.822	0.0147144
947.900	0.0147844
947.978	0.0147691
948.057	0.0147649
948.135	0.0148288
948.213	0.0147966
948.291	0.0149322
948.369	0.0147476
948.447	0.0146958
948.525	0.0145757
948.603	0.0147247
948.682	0.0148911
948.760	0.0146700
948.838	0.0146126
948.916	0.0146798
948.994	0.0148557
949.072	0.0146107
949.150	0.0146442
949.228	0.0146970
949.307	0.0146289
949.385	0.0146484
949.463	0.0146713
949.541	0.0146464
949.619	0.0147333
949.697	0.0146317
949.775	0.0147621
949.853	0.0147812
949.932	0.0147331
950.010	0.0146437
950.088	0.0147150
950.166	0.0144821
950.244	0.0144933
950.322	0.0146436
950.400	0.0146632
950.478	0.0147153
950.557	0.0146970
950.635	0.0146545
950.713	0.0147179
950.791	0.0146551
950.869	0.0148313
950.947	0.0148096
951.025	0.0147436
951.103	0.0149109
951.182	0.0148093
951.260	0.0147971
951.338	0.0149590
951.416	0.0149810
951.494	0.0149964
951.572	0.0150040
951.650	0.0149157
951.728	0.0149470
951.807	0.0149438
951.885	0.0147594
951.963	0.0149052
952.041	0.0149837
952.119	0.0149009
952.197	0.0148948
952.275	0.0148866
952.353	0.0148727
952.432	0.0147373
952.510	0.0148936
952.588	0.0147198
952.666	0.0147556
952.744	0.0146735
952.822	0.0145604
952.900	0.0147211
952.978	0.0146404
953.057	0.0145999
953.135	0.0147755
953.213	0.0144796
953.291	0.0146212
953.369	0.0146407
953.447	0.0145936
953.525	0.0146764
953.603	0.0146949
953.682	0.0147104
953.760	0.0145968
953.838	0.0145680
953.916	0.0145277
953.994	0.0145441
954.072	0.0145972
954.150	0.0147099
954.228	0.0146625
954.307	0.0147627
954.385	0.0145770
954.463	0.0146449
954.541	0.0147237
954.619	0.0146738
954.697	0.0147300
954.775	0.0146855
954.853	0.0146351
954.932	0.0147358
955.010	0.0147182
955.088	0.0148026
955.166	0.0146468
955.244	0.0146351
955.322	0.0147197
955.400	0.0148187
955.478	0.0149672
955.557	0.0147328
955.635	0.0146494
955.713	0.0145535
955.791	0.0146514
955.869	0.0145852
955.947	0.0145962
956.025	0.0145841
956.103	0.0146546
956.182	0.0146272
956.260	0.0146738
956.338	0.0148282
956.416	0.0147773
956.494	0.0146440
956.572	0.0146917
956.650	0.0147166
956.728	0.0148257
956.807	0.0147185
956.885	0.0147548
956.963	0.0147233
957.041	0.0148783
957.119	0.0147561
957.197	0.0148228
957.275	0.0146041
957.353	0.0147211
957.432	0.0149446
957.510	0.0147711
957.588	0.0148613
957.666	0.0148426
957.744	0.0147884
957.822	0.0146930
957.900	0.0147330
957.978	0.0147959
958.057	0.0147713
958.135	0.0146621
958.213	0.0145749
958.291	0.0145727
958.369	0.0146188
958.447	0.0146063
958.525	0.0146215
958.603	0.0146188
958.682	0.0145558
958.760	0.0147105
958.838	0.0146635
958.916	0.0145805
958.994	0.0147019
959.072	0.0145893
959.150	0.0146563
959.228	0.0146220
959.307	0.0146879
959.385	0.0146065
959.463	0.0147742
959.541	0.0147475
959.619	0.0146961
959.697	0.0148837
959.775	0.0147963
959.853	0.0147089
959.932	0.0147161
960.010	0.0148119
960.088	0.0148040
960.166	0.0149238
960.244	0.0148494
960.322	0.0148161
960.400	0.0148203
960.478	0.0146820
960.557	0.0147211
960.635	0.0146176
960.713	0.0147340
960.791	0.0148004
960.869	0.0148467
960.947	0.0146268
961.025	0.0145795
961.103	0.0147532
961.182	0.0147501
961.260	0.0146869
961.338	0.0146252
961.416	0.0146775
961.494	0.0147449
961.572	0.0146066
961.650	0.0146500
961.728	0.0147133
961.807	0.0147968
961.885	0.0146628
961.963	0.0146397
962.041	0.0146674
962.119	0.0148196
962.197	0.0147923
962.275	0.0146275
962.353	0.0146369
962.432	0.0147372
962.510	0.0146889
962.588	0.0148842
962.666	0.0147192
962.744	0.0147713
962.822	0.0146246
962.900	0.0146964
962.978	0.0148154
963.057	0.0148215
963.135	0.0147235
963.213	0.0147108
963.291	0.0147483
963.369	0.0148576
963.447	0.0148867
963.525	0.0148991
963.603	0.0149947
963.682	0.0148412
963.760	0.0148322
963.838	0.0149221
963.916	0.0147272
963.994	0.0149715
964.072	0.0149837
964.150	0.0149361
964.228	0.0149302
964.307	0.0148491
964.385	0.0150105
964.463	0.0148952
964.541	0.0148445
964.619	0.0148947
964.697	0.0150021
964.775	0.0149094
964.853	0.0147967
964.932	0.0147285
965.010	0.0147986
965.088	0.0148952
965.166	0.0146824
965.244	0.0147662
965.322	0.0147583
965.400	0.0146710
965.478	0.0146519
965.557	0.0147182
965.635	0.0146838
965.713	0.0146619
965.791	0.0146521
965.869	0.0145866
965.947	0.0146053
966.025	0.0145977
966.103	0.0146873
966.182	0.0146056
966.260	0.0146168
966.338	0.0145257
966.416	0.0145866
966.494	0.0146552
966.572	0.0146631
966.650	0.0146381
966.728	0.0146513
966.807	0.0146577
966.885	0.0145982
966.963	0.0145153
967.041	0.0145367
967.119	0.0146371
967.197	0.0146595
967.275	0.0148283
967.353	0.0147432
967.432	0.0146976
967.510	0.0148058
967.588	0.0146777
967.666	0.0147370
967.744	0.0147886
967.822	0.0148711
967.900	0.0148702
967.978	0.0148763
968.057	0.0148985
968.135	0.0149863
968.213	0.0148083
968.291	0.0149364
968.369	0.0147903
968.447	0.0148333
968.525	0.0148299
968.603	0.0149579
968.682	0.0150117
968.760	0.0148659
968.838	0.0149249
968.916	0.0148573
968.994	0.0148602
969.072	0.0148160
969.150	0.0147190
969.228	0.0147346
969.307	0.0148476
969.385	0.0147039
969.463	0.0146885
969.541	0.0147724
969.619	0.0146189
969.697	0.0145358
969.775	0.0146481
969.853	0.0147013
969.932	0.0147272
