05/14/2022	19:29:05	Ver.	4.1	UNKNOWN
Optical Delay	650.009681	Delta X		0.078125	Sweeps	1	Scan Rate	0/0
Coordinates	Axis 1	NaN	Axis 2	NaN	Axis 3	NaN	Axis 4	NaN	Axis 5	NaN	Axis 6	0.000000
TX Power	0.000000	RX Power	0.000000

650.010	0.0146616
650.088	0.0145402
650.166	0.0145770
650.244	0.0147098
650.322	0.0146186
650.400	0.0146181
650.478	0.0147828
650.557	0.0146282
650.635	0.0145609
650.713	0.0145181
650.791	0.0146239
650.869	0.0144879
650.947	0.0146275
651.025	0.0145632
651.103	0.0145485
651.182	0.0146110
651.260	0.0146523
651.338	0.0146682
651.416	0.0146834
651.494	0.0145802
651.572	0.0145306
651.650	0.0147237
651.728	0.0146137
651.807	0.0146719
651.885	0.0147884
651.963	0.0145702
652.041	0.0144721
652.119	0.0146143
652.197	0.0146595
652.275	0.0145264
652.353	0.0147649
652.432	0.0145277
652.510	0.0147697
652.588	0.0146191
652.666	0.0147359
652.744	0.0147215
652.822	0.0145711
652.900	0.0146992
652.978	0.0146676
653.057	0.0147169
653.135	0.0147095
653.213	0.0146350
653.291	0.0147367
653.369	0.0147293
653.447	0.0145467
653.525	0.0146684
653.603	0.0147757
653.682	0.0147265
653.760	0.0147327
653.838	0.0145510
653.916	0.0145972
653.994	0.0147121
654.072	0.0147079
654.150	0.0147884
654.228	0.0147588
654.307	0.0147619
654.385	0.0146806
654.463	0.0146798
654.541	0.0147106
654.619	0.0146457
654.697	0.0147913
654.775	0.0148027
654.853	0.0146853
654.932	0.0148191
655.010	0.0147112
655.088	0.0148023
655.166	0.0147271
655.244	0.0148325
655.322	0.0147810
655.400	0.0146856
655.478	0.0147783
655.557	0.0148217
655.635	0.0147359
655.713	0.0147700
655.791	0.0146747
655.869	0.0147987
655.947	0.0147072
656.025	0.0148422
656.103	0.0147021
656.182	0.0148193
656.260	0.0147307
656.338	0.0148349
656.416	0.0147861
656.494	0.0146764
656.572	0.0146938
656.650	0.0147219
656.728	0.0148251
656.807	0.0148624
656.885	0.0149082
656.963	0.0147711
657.041	0.0147346
657.119	0.0147469
657.197	0.0147350
657.275	0.0148004
657.353	0.0148275
657.432	0.0147655
657.510	0.0147123
657.588	0.0146204
657.666	0.0147649
657.744	0.0147290
657.822	0.0148590
657.900	0.0148445
657.978	0.0146056
658.057	0.0146822
658.135	0.0146982
658.213	0.0148191
658.291	0.0147485
658.369	0.0147787
658.447	0.0148867
658.525	0.0147311
658.603	0.0147646
658.682	0.0146602
658.760	0.0147446
658.838	0.0147626
658.916	0.0147717
658.994	0.0148369
659.072	0.0147678
659.150	0.0148267
659.228	0.0147567
659.307	0.0147503
659.385	0.0148077
659.463	0.0148363
659.541	0.0147263
659.619	0.0147771
659.697	0.0147686
659.775	0.0148125
659.853	0.0148476
659.932	0.0148471
660.010	0.0146640
660.088	0.0146950
660.166	0.0147310
660.244	0.0146998
660.322	0.0148229
660.400	0.0148407
660.478	0.0147843
660.557	0.0148208
660.635	0.0148156
660.713	0.0147605
660.791	0.0148861
660.869	0.0148151
660.947	0.0149465
661.025	0.0147269
661.103	0.0148721
661.182	0.0148092
661.260	0.0148656
661.338	0.0148068
661.416	0.0148420
661.494	0.0147103
661.572	0.0147984
661.650	0.0148357
661.728	0.0148779
661.807	0.0146832
661.885	0.0147110
661.963	0.0147240
662.041	0.0148171
662.119	0.0148122
662.197	0.0147725
662.275	0.0146484
662.353	0.0147935
662.432	0.0148091
662.510	0.0147748
662.588	0.0147099
662.666	0.0146342
662.744	0.0148326
662.822	0.0146809
662.900	0.0148846
662.978	0.0147824
663.057	0.0146918
663.135	0.0147555
663.213	0.0148256
663.291	0.0148565
663.369	0.0147736
663.447	0.0148446
663.525	0.0148419
663.603	0.0148132
663.682	0.0146935
663.760	0.0147963
663.838	0.0147968
663.916	0.0147483
663.994	0.0147986
664.072	0.0147416
664.150	0.0147971
664.228	0.0148418
664.307	0.0146339
664.385	0.0147682
664.463	0.0147045
664.541	0.0145834
664.619	0.0146114
664.697	0.0145365
664.775	0.0144978
664.853	0.0146307
664.932	0.0145877
665.010	0.0145223
665.088	0.0146084
665.166	0.0146378
665.244	0.0145878
665.322	0.0145744
665.400	0.0146447
665.478	0.0145494
665.557	0.0145730
665.635	0.0146189
665.713	0.0146697
665.791	0.0146793
665.869	0.0147014
665.947	0.0146561
666.025	0.0147221
666.103	0.0148527
666.182	0.0149264
666.260	0.0148920
666.338	0.0149746
666.416	0.0150413
666.494	0.0150764
666.572	0.0149199
666.650	0.0150015
666.728	0.0150537
666.807	0.0149094
666.885	0.0147509
666.963	0.0148100
667.041	0.0147366
667.119	0.0144767
667.197	0.0144501
667.275	0.0143546
667.353	0.0142204
667.432	0.0141131
667.510	0.0140210
667.588	0.0141395
667.666	0.0140778
667.744	0.0140015
667.822	0.0139764
667.900	0.0142068
667.978	0.0141976
668.057	0.0143128
668.135	0.0144614
668.213	0.0146362
668.291	0.0147693
668.369	0.0149642
668.447	0.0151144
668.525	0.0153009
668.603	0.0154391
668.682	0.0154904
668.760	0.0156693
668.838	0.0158208
668.916	0.0158814
668.994	0.0159151
669.072	0.0158570
669.150	0.0157944
669.228	0.0156120
669.307	0.0154163
669.385	0.0152884
669.463	0.0150388
669.541	0.0147637
669.619	0.0144102
669.697	0.0140409
669.775	0.0138174
669.853	0.0134833
669.932	0.0133008
670.010	0.0130155
670.088	0.0129087
670.166	0.0125161
670.244	0.0125453
670.322	0.0126876
670.400	0.0127036
670.478	0.0129157
670.557	0.0130966
670.635	0.0133496
670.713	0.0138709
670.791	0.0143157
670.869	0.0145978
670.947	0.0150721
671.025	0.0156161
671.103	0.0160866
671.182	0.0163308
671.260	0.0168311
671.338	0.0171428
671.416	0.0174096
671.494	0.0174915
671.572	0.0174657
671.650	0.0175368
671.728	0.0175274
671.807	0.0171781
671.885	0.0169395
671.963	0.0167306
672.041	0.0164812
672.119	0.0159200
672.197	0.0153603
672.275	0.0149191
672.353	0.0144480
672.432	0.0137710
672.510	0.0134072
672.588	0.0130035
672.666	0.0125192
672.744	0.0121003
672.822	0.0119502
672.900	0.0117182
672.978	0.0116804
673.057	0.0115120
673.135	0.0117507
673.213	0.0119833
673.291	0.0122319
673.369	0.0126891
673.447	0.0128381
673.525	0.0132858
673.603	0.0138259
673.682	0.0141709
673.760	0.0146202
673.838	0.0150606
673.916	0.0157394
673.994	0.0160568
674.072	0.0163202
674.150	0.0167165
674.228	0.0170238
674.307	0.0172105
674.385	0.0174516
674.463	0.0175556
674.541	0.0175787
674.619	0.0174802
674.697	0.0173950
674.775	0.0173910
674.853	0.0172005
674.932	0.0169847
675.010	0.0167274
675.088	0.0162887
675.166	0.0160565
675.244	0.0157321
675.322	0.0153041
675.400	0.0148590
675.478	0.0144734
675.557	0.0140937
675.635	0.0138627
675.713	0.0134573
675.791	0.0130418
675.869	0.0128928
675.947	0.0126438
676.025	0.0124068
676.103	0.0121276
676.182	0.0121603
676.260	0.0123239
676.338	0.0123650
676.416	0.0124256
676.494	0.0126261
676.572	0.0128036
676.650	0.0131843
676.728	0.0134837
676.807	0.0137563
676.885	0.0142938
676.963	0.0146952
677.041	0.0150564
677.119	0.0154130
677.197	0.0157216
677.275	0.0161090
677.353	0.0163465
677.432	0.0164703
677.510	0.0165968
677.588	0.0165383
677.666	0.0165483
677.744	0.0163895
677.822	0.0162164
677.900	0.0160469
677.978	0.0157052
678.057	0.0157556
678.135	0.0154678
678.213	0.0152094
678.291	0.0149640
678.369	0.0146732
678.447	0.0144600
678.525	0.0143079
678.603	0.0141316
678.682	0.0140910
678.760	0.0138454
678.838	0.0138536
678.916	0.0137417
678.994	0.0136752
679.072	0.0134412
679.150	0.0134636
679.228	0.0135806
679.307	0.0135350
679.385	0.0136291
679.463	0.0138743
679.541	0.0141080
679.619	0.0143427
679.697	0.0144301
679.775	0.0147928
679.853	0.0150372
679.932	0.0153521
680.010	0.0154254
680.088	0.0156671
680.166	0.0158057
680.244	0.0157015
680.322	0.0160609
680.400	0.0159994
680.478	0.0162086
680.557	0.0162039
680.635	0.0161460
680.713	0.0161667
680.791	0.0161652
680.869	0.0160366
680.947	0.0158774
681.025	0.0156413
681.103	0.0156041
681.182	0.0154314
681.260	0.0150851
681.338	0.0148824
681.416	0.0146432
681.494	0.0143568
681.572	0.0142023
681.650	0.0138155
681.728	0.0135101
681.807	0.0134117
681.885	0.0133397
681.963	0.0129636
682.041	0.0128835
682.119	0.0126734
682.197	0.0126186
682.275	0.0125210
682.353	0.0124515
682.432	0.0123897
682.510	0.0126095
682.588	0.0126949
682.666	0.0128691
682.744	0.0129160
682.822	0.0132366
682.900	0.0136378
682.978	0.0137444
683.057	0.0141129
683.135	0.0145329
683.213	0.0148553
683.291	0.0151543
683.369	0.0155441
683.447	0.0159333
683.525	0.0161912
683.603	0.0162523
683.682	0.0166201
683.760	0.0168708
683.838	0.0170216
683.916	0.0170882
683.994	0.0172935
684.072	0.0172883
684.150	0.0172317
684.228	0.0174699
684.307	0.0174239
684.385	0.0174166
684.463	0.0172504
684.541	0.0171051
684.619	0.0172290
684.697	0.0169230
684.775	0.0166930
684.853	0.0165993
684.932	0.0162610
685.010	0.0162646
685.088	0.0158119
685.166	0.0153600
685.244	0.0150605
685.322	0.0147709
685.400	0.0144193
685.478	0.0139729
685.557	0.0135986
685.635	0.0132140
685.713	0.0129498
685.791	0.0125467
685.869	0.0124866
685.947	0.0122416
686.025	0.0119766
686.103	0.0120509
686.182	0.0118832
686.260	0.0117753
686.338	0.0117803
686.416	0.0119736
686.494	0.0119180
686.572	0.0119350
686.650	0.0119068
686.728	0.0119405
686.807	0.0121406
686.885	0.0123157
686.963	0.0124269
687.041	0.0126151
687.119	0.0130109
687.197	0.0132772
687.275	0.0136403
687.353	0.0138213
687.432	0.0142158
687.510	0.0145657
687.588	0.0146712
687.666	0.0149582
687.744	0.0155019
687.822	0.0157600
687.900	0.0159275
687.978	0.0164491
688.057	0.0167677
688.135	0.0169501
688.213	0.0172453
688.291	0.0174519
688.369	0.0177705
688.447	0.0180497
688.525	0.0181877
688.603	0.0182634
688.682	0.0183459
688.760	0.0183430
688.838	0.0184245
688.916	0.0184883
688.994	0.0185654
689.072	0.0183551
689.150	0.0181996
689.228	0.0182063
689.307	0.0179918
689.385	0.0175853
689.463	0.0173742
689.541	0.0170335
689.619	0.0165845
689.697	0.0159956
689.775	0.0154289
689.853	0.0148143
689.932	0.0141110
690.010	0.0133594
690.088	0.0125517
690.166	0.0120721
690.244	0.0112937
690.322	0.0107197
690.400	0.0103769
690.478	0.00992554
690.557	0.00986824
690.635	0.00968071
690.713	0.00967316
690.791	0.00991257
690.869	0.0101546
690.947	0.0104735
691.025	0.0108932
691.103	0.0112442
691.182	0.0117100
691.260	0.0121832
691.338	0.0125311
691.416	0.0129000
691.494	0.0131134
691.572	0.0136707
691.650	0.0142382
691.728	0.0144553
691.807	0.0146606
691.885	0.0148608
691.963	0.0151139
692.041	0.0154408
692.119	0.0156133
692.197	0.0158607
692.275	0.0160069
692.353	0.0162085
692.432	0.0163320
692.510	0.0164227
692.588	0.0166068
692.666	0.0165684
692.744	0.0165271
692.822	0.0167016
692.900	0.0167477
692.978	0.0167631
693.057	0.0166303
693.135	0.0165319
693.213	0.0164225
693.291	0.0163130
693.369	0.0162876
693.447	0.0164075
693.525	0.0163754
693.603	0.0162104
693.682	0.0163698
693.760	0.0166330
693.838	0.0167351
693.916	0.0167512
693.994	0.0170396
694.072	0.0171608
694.150	0.0170314
694.228	0.0170918
694.307	0.0168575
694.385	0.0167509
694.463	0.0166084
694.541	0.0164849
694.619	0.0161103
694.697	0.0157492
694.775	0.0154436
694.853	0.0148930
694.932	0.0142001
695.010	0.0139394
695.088	0.0132663
695.166	0.0128551
695.244	0.0122211
695.322	0.0118568
695.400	0.0114188
695.478	0.0110615
695.557	0.0107166
695.635	0.0104762
695.713	0.0104474
695.791	0.0102679
695.869	0.0102850
695.947	0.0103493
696.025	0.0106444
696.103	0.0108425
696.182	0.0111017
696.260	0.0113073
696.338	0.0115832
696.416	0.0121381
696.494	0.0125615
696.572	0.0131053
696.650	0.0133810
696.728	0.0138652
696.807	0.0145026
696.885	0.0146815
696.963	0.0152817
697.041	0.0158327
697.119	0.0160915
697.197	0.0165876
697.275	0.0169349
697.353	0.0172231
697.432	0.0175799
697.510	0.0179327
697.588	0.0180589
697.666	0.0181747
697.744	0.0180236
697.822	0.0180183
697.900	0.0177919
697.978	0.0176888
698.057	0.0174918
698.135	0.0172454
698.213	0.0167679
698.291	0.0164115
698.369	0.0160487
698.447	0.0155696
698.525	0.0152234
698.603	0.0148741
698.682	0.0146801
698.760	0.0144049
698.838	0.0141344
698.916	0.0136949
698.994	0.0136498
699.072	0.0134524
699.150	0.0136102
699.228	0.0134942
699.307	0.0135447
699.385	0.0135835
699.463	0.0136395
699.541	0.0138062
699.619	0.0139862
699.697	0.0141410
699.775	0.0144958
699.853	0.0146024
699.932	0.0148583
700.010	0.0150713
700.088	0.0152423
700.166	0.0154800
700.244	0.0156068
700.322	0.0156632
700.400	0.0158248
700.478	0.0160594
700.557	0.0157549
700.635	0.0157064
700.713	0.0156506
700.791	0.0153625
700.869	0.0151293
700.947	0.0148304
701.025	0.0143479
701.103	0.0141538
701.182	0.0137519
701.260	0.0133987
701.338	0.0130133
701.416	0.0127416
701.494	0.0125260
701.572	0.0122976
701.650	0.0121497
701.728	0.0120889
701.807	0.0122077
701.885	0.0123283
701.963	0.0122594
702.041	0.0122873
702.119	0.0125327
702.197	0.0128275
702.275	0.0128777
702.353	0.0131070
702.432	0.0133418
702.510	0.0135864
702.588	0.0139779
702.666	0.0142599
702.744	0.0145562
702.822	0.0149440
702.900	0.0152176
702.978	0.0154572
703.057	0.0157650
703.135	0.0160409
703.213	0.0163240
703.291	0.0164275
703.369	0.0166021
703.447	0.0166619
703.525	0.0167683
703.603	0.0168815
703.682	0.0169418
703.760	0.0167943
703.838	0.0168510
703.916	0.0170139
703.994	0.0169946
704.072	0.0168290
704.150	0.0167812
704.228	0.0166515
704.307	0.0166275
704.385	0.0164809
704.463	0.0162402
704.541	0.0162814
704.619	0.0157401
704.697	0.0154502
704.775	0.0151933
704.853	0.0147415
704.932	0.0146235
705.010	0.0141800
705.088	0.0140309
705.166	0.0135832
705.244	0.0135644
705.322	0.0135091
705.400	0.0133189
705.478	0.0132840
705.557	0.0132595
705.635	0.0133395
705.713	0.0133453
705.791	0.0135246
705.869	0.0135899
705.947	0.0137060
706.025	0.0139285
706.103	0.0140592
706.182	0.0143197
706.260	0.0146027
706.338	0.0148026
706.416	0.0147926
706.494	0.0148022
706.572	0.0149142
706.650	0.0148093
706.728	0.0150816
706.807	0.0150067
706.885	0.0148486
706.963	0.0149297
707.041	0.0148079
707.119	0.0146529
707.197	0.0147271
707.275	0.0146098
707.353	0.0146397
707.432	0.0144348
707.510	0.0144560
707.588	0.0144660
707.666	0.0144479
707.744	0.0144780
707.822	0.0144940
707.900	0.0144799
707.978	0.0144787
708.057	0.0145896
708.135	0.0146158
708.213	0.0144990
708.291	0.0144925
708.369	0.0146541
708.447	0.0145007
708.525	0.0143903
708.603	0.0143948
708.682	0.0144762
708.760	0.0142461
708.838	0.0143358
708.916	0.0144200
708.994	0.0143919
709.072	0.0144069
709.150	0.0144796
709.228	0.0142922
709.307	0.0144913
709.385	0.0146230
709.463	0.0148380
709.541	0.0148301
709.619	0.0148287
709.697	0.0151504
709.775	0.0152018
709.853	0.0150961
709.932	0.0152851
710.010	0.0152654
710.088	0.0153131
710.166	0.0153583
710.244	0.0151942
710.322	0.0151520
710.400	0.0150669
710.478	0.0149711
710.557	0.0149707
710.635	0.0147996
710.713	0.0148007
710.791	0.0149895
710.869	0.0150172
710.947	0.0148766
711.025	0.0151234
711.103	0.0153456
711.182	0.0155399
711.260	0.0155532
711.338	0.0155763
711.416	0.0157060
711.494	0.0160256
711.572	0.0160423
711.650	0.0159915
711.728	0.0159192
711.807	0.0159399
711.885	0.0158477
711.963	0.0157742
712.041	0.0156758
712.119	0.0155423
712.197	0.0153419
712.275	0.0151618
712.353	0.0151315
712.432	0.0148579
712.510	0.0145275
712.588	0.0142443
712.666	0.0140759
712.744	0.0139739
712.822	0.0136480
712.900	0.0134821
712.978	0.0133556
713.057	0.0133847
713.135	0.0132502
713.213	0.0133417
713.291	0.0131932
713.369	0.0132739
713.447	0.0134334
713.525	0.0133324
713.603	0.0136829
713.682	0.0137530
713.760	0.0138655
713.838	0.0140439
713.916	0.0140853
713.994	0.0142286
714.072	0.0144169
714.150	0.0144502
714.228	0.0145657
714.307	0.0145751
714.385	0.0145743
714.463	0.0146349
714.541	0.0145514
714.619	0.0145793
714.697	0.0145712
714.775	0.0146667
714.853	0.0144876
714.932	0.0146071
715.010	0.0146166
715.088	0.0146250
715.166	0.0147423
715.244	0.0147499
715.322	0.0147361
715.400	0.0148569
715.478	0.0148824
715.557	0.0148223
715.635	0.0147034
715.713	0.0147524
715.791	0.0148050
715.869	0.0147975
715.947	0.0147800
716.025	0.0147053
716.103	0.0148747
716.182	0.0148103
716.260	0.0148821
716.338	0.0149879
716.416	0.0150169
716.494	0.0149721
716.572	0.0151965
716.650	0.0152862
716.728	0.0152670
716.807	0.0153317
716.885	0.0153572
716.963	0.0153166
717.041	0.0153208
717.119	0.0153994
717.197	0.0153066
717.275	0.0154646
717.353	0.0154621
717.432	0.0155053
717.510	0.0154964
717.588	0.0156104
717.666	0.0155892
717.744	0.0156362
717.822	0.0157330
717.900	0.0155704
717.978	0.0156334
718.057	0.0155924
718.135	0.0155458
718.213	0.0156727
718.291	0.0153674
718.369	0.0153174
718.447	0.0153117
718.525	0.0151112
718.603	0.0150893
718.682	0.0149643
718.760	0.0147355
718.838	0.0147451
718.916	0.0144357
718.994	0.0144526
719.072	0.0142527
719.150	0.0142298
719.228	0.0139484
719.307	0.0138352
719.385	0.0137560
719.463	0.0136208
719.541	0.0134547
719.619	0.0132001
719.697	0.0132704
719.775	0.0131242
719.853	0.0129894
719.932	0.0127596
720.010	0.0129086
720.088	0.0129242
720.166	0.0129515
720.244	0.0129082
720.322	0.0129604
720.400	0.0131305
720.478	0.0132864
720.557	0.0133064
720.635	0.0133963
720.713	0.0136382
720.791	0.0137709
720.869	0.0138552
720.947	0.0142331
721.025	0.0140868
721.103	0.0143857
721.182	0.0143034
721.260	0.0145735
721.338	0.0147974
721.416	0.0148116
721.494	0.0149967
721.572	0.0150937
721.650	0.0151619
721.728	0.0152064
721.807	0.0152485
721.885	0.0154068
721.963	0.0154099
722.041	0.0154482
722.119	0.0156561
722.197	0.0156063
722.275	0.0156592
722.353	0.0158577
722.432	0.0157645
722.510	0.0159119
722.588	0.0161563
722.666	0.0162498
722.744	0.0162360
722.822	0.0160253
722.900	0.0161275
722.978	0.0160470
723.057	0.0158884
723.135	0.0159029
723.213	0.0156857
723.291	0.0155744
723.369	0.0155555
723.447	0.0153268
723.525	0.0151375
723.603	0.0151376
723.682	0.0150002
723.760	0.0149598
723.838	0.0148164
723.916	0.0148170
723.994	0.0146162
724.072	0.0145549
724.150	0.0144505
724.228	0.0145381
724.307	0.0143879
724.385	0.0143741
724.463	0.0143365
724.541	0.0140806
724.619	0.0140070
724.697	0.0140092
724.775	0.0138890
724.853	0.0139430
724.932	0.0138719
725.010	0.0139130
725.088	0.0138915
725.166	0.0136451
725.244	0.0136919
725.322	0.0138045
725.400	0.0134940
725.478	0.0134040
725.557	0.0133768
725.635	0.0134988
725.713	0.0133995
725.791	0.0134470
725.869	0.0134978
725.947	0.0134916
726.025	0.0135864
726.103	0.0135727
726.182	0.0135609
726.260	0.0137370
726.338	0.0137736
726.416	0.0136693
726.494	0.0137920
726.572	0.0138319
726.650	0.0139585
726.728	0.0139900
726.807	0.0139514
726.885	0.0140405
726.963	0.0140620
727.041	0.0144227
727.119	0.0146520
727.197	0.0146407
727.275	0.0148884
727.353	0.0151394
727.432	0.0152773
727.510	0.0155169
727.588	0.0156274
727.666	0.0157258
727.744	0.0159427
727.822	0.0159819
727.900	0.0159343
727.978	0.0163200
728.057	0.0161252
728.135	0.0160067
728.213	0.0161002
728.291	0.0160852
728.369	0.0160265
728.447	0.0158610
728.525	0.0159302
728.603	0.0157298
728.682	0.0156084
728.760	0.0157607
728.838	0.0155437
728.916	0.0154198
728.994	0.0154341
729.072	0.0154168
729.150	0.0152469
729.228	0.0151508
729.307	0.0151509
729.385	0.0150947
729.463	0.0150001
729.541	0.0150475
729.619	0.0147473
729.697	0.0147391
729.775	0.0146571
729.853	0.0145386
729.932	0.0145316
730.010	0.0144141
730.088	0.0144087
730.166	0.0143247
730.244	0.0144069
730.322	0.0141658
730.400	0.0141193
730.478	0.0141041
730.557	0.0141468
730.635	0.0139612
730.713	0.0138174
730.791	0.0139706
730.869	0.0139782
730.947	0.0139098
731.025	0.0138621
731.103	0.0138097
731.182	0.0139496
731.260	0.0139529
731.338	0.0140470
731.416	0.0142955
731.494	0.0143505
731.572	0.0143447
731.650	0.0144576
731.728	0.0145000
731.807	0.0146004
731.885	0.0147078
731.963	0.0148377
732.041	0.0148867
732.119	0.0148764
732.197	0.0148827
732.275	0.0148344
732.353	0.0147188
732.432	0.0147913
732.510	0.0146657
732.588	0.0146969
732.666	0.0147186
732.744	0.0146056
732.822	0.0144045
732.900	0.0145562
732.978	0.0146426
733.057	0.0145795
733.135	0.0144898
733.213	0.0145821
733.291	0.0146928
733.369	0.0148364
733.447	0.0148635
733.525	0.0148170
733.603	0.0150355
733.682	0.0148919
733.760	0.0149530
733.838	0.0151221
733.916	0.0150646
733.994	0.0151283
734.072	0.0153448
734.150	0.0151432
734.228	0.0151115
734.307	0.0151427
734.385	0.0150392
734.463	0.0151475
734.541	0.0149732
734.619	0.0150021
734.697	0.0150627
734.775	0.0150288
734.853	0.0151458
734.932	0.0152068
735.010	0.0151781
735.088	0.0151577
735.166	0.0152280
735.244	0.0150621
735.322	0.0152319
735.400	0.0150908
735.478	0.0150269
735.557	0.0151138
735.635	0.0150870
735.713	0.0151294
735.791	0.0150048
735.869	0.0148561
735.947	0.0148452
736.025	0.0148908
736.103	0.0147546
736.182	0.0147712
736.260	0.0146848
736.338	0.0147317
736.416	0.0146899
736.494	0.0145833
736.572	0.0144683
736.650	0.0145337
736.728	0.0145200
736.807	0.0144604
736.885	0.0143427
736.963	0.0142970
737.041	0.0141479
737.119	0.0142390
737.197	0.0142590
737.275	0.0141832
737.353	0.0142988
737.432	0.0142071
737.510	0.0143177
737.588	0.0142945
737.666	0.0143629
737.744	0.0144019
737.822	0.0143723
737.900	0.0144606
737.978	0.0145892
738.057	0.0146487
738.135	0.0146228
738.213	0.0146130
738.291	0.0146407
738.369	0.0146729
738.447	0.0146679
738.525	0.0147211
738.603	0.0146607
738.682	0.0145464
738.760	0.0146762
738.838	0.0146169
738.916	0.0145215
738.994	0.0144958
739.072	0.0144200
739.150	0.0146129
739.228	0.0146789
739.307	0.0145703
739.385	0.0144028
739.463	0.0145486
739.541	0.0145692
739.619	0.0146278
739.697	0.0145901
739.775	0.0144322
739.853	0.0146220
739.932	0.0145540
740.010	0.0146987
740.088	0.0145542
740.166	0.0146357
740.244	0.0146486
740.322	0.0147143
740.400	0.0147881
740.478	0.0148735
740.557	0.0149764
740.635	0.0148960
740.713	0.0150201
740.791	0.0150426
740.869	0.0151809
740.947	0.0152407
741.025	0.0151443
741.103	0.0152089
741.182	0.0150795
741.260	0.0153263
741.338	0.0153825
741.416	0.0153690
741.494	0.0152764
741.572	0.0152954
741.650	0.0153106
741.728	0.0151900
741.807	0.0151764
741.885	0.0149454
741.963	0.0147968
742.041	0.0147030
742.119	0.0146454
742.197	0.0145741
742.275	0.0145435
742.353	0.0142902
742.432	0.0142678
742.510	0.0141792
742.588	0.0140833
742.666	0.0141406
742.744	0.0140461
742.822	0.0141072
742.900	0.0140598
742.978	0.0141909
743.057	0.0143208
743.135	0.0143763
743.213	0.0144269
743.291	0.0145415
743.369	0.0144346
743.447	0.0145796
743.525	0.0145412
743.603	0.0147692
743.682	0.0145836
743.760	0.0146056
743.838	0.0146404
743.916	0.0146011
743.994	0.0147038
744.072	0.0144681
744.150	0.0145924
744.228	0.0145001
744.307	0.0147572
744.385	0.0147849
744.463	0.0147960
744.541	0.0147074
744.619	0.0147153
744.697	0.0149113
744.775	0.0150769
744.853	0.0148650
744.932	0.0148755
745.010	0.0148752
745.088	0.0149889
745.166	0.0149963
745.244	0.0150010
745.322	0.0148475
745.400	0.0148980
745.478	0.0147785
745.557	0.0148509
745.635	0.0148096
745.713	0.0147923
745.791	0.0148005
745.869	0.0146377
745.947	0.0147265
746.025	0.0146679
746.103	0.0145923
746.182	0.0146062
746.260	0.0146262
746.338	0.0147572
746.416	0.0146555
746.494	0.0145335
746.572	0.0145320
746.650	0.0144624
746.728	0.0145809
746.807	0.0147095
746.885	0.0147079
746.963	0.0147677
747.041	0.0145599
747.119	0.0146401
747.197	0.0147044
747.275	0.0147600
747.353	0.0145693
747.432	0.0145393
747.510	0.0146632
747.588	0.0147113
747.666	0.0146131
747.744	0.0146068
747.822	0.0145868
747.900	0.0147109
747.978	0.0146659
748.057	0.0146043
748.135	0.0144612
748.213	0.0146130
748.291	0.0144501
748.369	0.0145874
748.447	0.0145007
748.525	0.0146989
748.603	0.0147930
748.682	0.0147477
748.760	0.0146928
748.838	0.0146389
748.916	0.0147129
748.994	0.0147824
749.072	0.0148025
749.150	0.0148916
749.228	0.0148598
749.307	0.0147306
749.385	0.0146912
749.463	0.0146786
749.541	0.0146923
749.619	0.0147166
749.697	0.0146329
749.775	0.0146336
749.853	0.0145298
749.932	0.0146096
750.010	0.0145467
750.088	0.0145615
750.166	0.0147974
750.244	0.0145950
750.322	0.0144782
750.400	0.0146183
750.478	0.0145654
750.557	0.0147381
750.635	0.0148180
750.713	0.0147823
750.791	0.0146996
750.869	0.0147598
750.947	0.0147646
751.025	0.0146433
751.103	0.0147683
751.182	0.0147551
751.260	0.0147349
751.338	0.0147027
751.416	0.0146619
751.494	0.0147337
751.572	0.0148201
751.650	0.0147489
751.728	0.0147419
751.807	0.0148284
751.885	0.0147572
751.963	0.0147896
752.041	0.0149006
752.119	0.0146150
752.197	0.0147692
752.275	0.0146494
752.353	0.0147541
752.432	0.0146577
752.510	0.0145725
752.588	0.0145782
752.666	0.0147785
752.744	0.0146752
752.822	0.0145847
752.900	0.0146649
752.978	0.0145769
753.057	0.0146112
753.135	0.0147566
753.213	0.0148383
753.291	0.0146618
753.369	0.0147347
753.447	0.0148424
753.525	0.0148626
753.603	0.0148557
753.682	0.0147692
753.760	0.0149189
753.838	0.0149574
753.916	0.0150113
753.994	0.0149390
754.072	0.0149963
754.150	0.0149483
754.228	0.0149695
754.307	0.0149796
754.385	0.0149651
754.463	0.0148764
754.541	0.0150011
754.619	0.0150529
754.697	0.0149976
754.775	0.0148295
754.853	0.0147878
754.932	0.0145459
755.010	0.0148215
755.088	0.0148419
755.166	0.0146616
755.244	0.0147015
755.322	0.0146688
755.400	0.0148577
755.478	0.0147490
755.557	0.0146386
755.635	0.0146509
755.713	0.0146281
755.791	0.0147109
755.869	0.0147476
755.947	0.0146685
756.025	0.0145677
756.103	0.0145464
756.182	0.0146768
756.260	0.0146697
756.338	0.0147613
756.416	0.0146626
756.494	0.0146623
756.572	0.0146701
756.650	0.0145811
756.728	0.0146543
756.807	0.0146466
756.885	0.0146070
756.963	0.0147208
757.041	0.0146383
757.119	0.0146904
757.197	0.0148156
757.275	0.0148782
757.353	0.0146716
757.432	0.0147025
757.510	0.0146977
757.588	0.0147992
757.666	0.0147542
757.744	0.0147656
757.822	0.0148728
757.900	0.0146749
757.978	0.0147440
758.057	0.0148727
758.135	0.0148266
758.213	0.0148229
758.291	0.0148644
758.369	0.0148169
758.447	0.0148714
758.525	0.0149444
758.603	0.0149400
758.682	0.0149522
758.760	0.0150917
758.838	0.0150858
758.916	0.0150193
758.994	0.0150642
759.072	0.0151012
759.150	0.0150228
759.228	0.0151640
759.307	0.0152280
759.385	0.0149386
759.463	0.0149818
759.541	0.0149562
759.619	0.0149249
759.697	0.0149586
759.775	0.0150412
759.853	0.0149921
759.932	0.0149850
760.010	0.0149269
760.088	0.0149197
760.166	0.0148819
760.244	0.0147878
760.322	0.0147879
760.400	0.0147510
760.478	0.0147279
760.557	0.0147152
760.635	0.0146471
760.713	0.0145547
760.791	0.0147949
760.869	0.0146906
760.947	0.0146566
761.025	0.0147198
761.103	0.0146487
761.182	0.0146580
761.260	0.0145805
761.338	0.0147184
761.416	0.0146691
761.494	0.0145873
761.572	0.0146788
761.650	0.0146545
761.728	0.0146019
761.807	0.0144528
761.885	0.0144375
761.963	0.0145309
762.041	0.0145142
762.119	0.0144614
762.197	0.0146040
762.275	0.0143530
762.353	0.0144868
762.432	0.0143877
762.510	0.0144402
762.588	0.0144475
762.666	0.0144936
762.744	0.0144901
762.822	0.0143734
762.900	0.0144431
762.978	0.0143938
763.057	0.0144265
763.135	0.0144061
763.213	0.0143972
763.291	0.0144576
763.369	0.0143623
763.447	0.0144507
763.525	0.0145920
763.603	0.0146641
763.682	0.0146285
763.760	0.0146779
763.838	0.0147458
763.916	0.0148489
763.994	0.0148609
764.072	0.0149207
764.150	0.0149734
764.228	0.0148969
764.307	0.0149905
764.385	0.0150504
764.463	0.0149467
764.541	0.0149033
764.619	0.0151045
764.697	0.0152482
764.775	0.0150739
764.853	0.0150465
764.932	0.0150336
765.010	0.0151089
765.088	0.0150548
765.166	0.0150700
765.244	0.0151681
765.322	0.0149908
765.400	0.0151371
765.478	0.0149805
765.557	0.0150666
765.635	0.0148420
765.713	0.0148709
765.791	0.0149952
765.869	0.0150443
765.947	0.0148819
766.025	0.0150105
766.103	0.0148738
766.182	0.0146768
766.260	0.0146451
766.338	0.0147636
766.416	0.0145489
766.494	0.0144175
766.572	0.0144312
766.650	0.0145580
766.728	0.0145179
766.807	0.0143831
766.885	0.0142388
766.963	0.0142236
767.041	0.0142063
767.119	0.0142030
767.197	0.0143622
767.275	0.0142618
767.353	0.0142229
767.432	0.0143520
767.510	0.0143559
767.588	0.0143442
767.666	0.0142251
767.744	0.0143386
767.822	0.0144334
767.900	0.0144919
767.978	0.0144652
768.057	0.0144550
768.135	0.0143753
768.213	0.0145029
768.291	0.0145528
768.369	0.0144285
768.447	0.0146035
768.525	0.0144818
768.603	0.0145138
768.682	0.0144258
768.760	0.0146101
768.838	0.0145571
768.916	0.0144188
768.994	0.0142563
769.072	0.0143439
769.150	0.0143616
769.228	0.0143073
769.307	0.0142539
769.385	0.0142618
769.463	0.0142912
769.541	0.0144337
769.619	0.0143939
769.697	0.0144383
769.775	0.0142821
769.853	0.0144730
769.932	0.0145002
770.010	0.0146514
770.088	0.0148022
770.166	0.0146230
770.244	0.0147726
770.322	0.0148376
770.400	0.0149703
770.478	0.0149631
770.557	0.0151301
770.635	0.0150981
770.713	0.0150655
770.791	0.0151405
770.869	0.0151581
770.947	0.0151725
771.025	0.0150272
771.103	0.0151958
771.182	0.0152971
771.260	0.0152036
771.338	0.0151870
771.416	0.0152314
771.494	0.0151499
771.572	0.0151784
771.650	0.0150543
771.728	0.0149845
771.807	0.0149683
771.885	0.0150685
771.963	0.0151075
772.041	0.0149001
772.119	0.0148584
772.197	0.0148555
772.275	0.0148998
772.353	0.0147334
772.432	0.0148077
772.510	0.0148936
772.588	0.0147945
772.666	0.0146303
772.744	0.0147312
772.822	0.0146240
772.900	0.0147311
772.978	0.0147604
773.057	0.0146698
773.135	0.0146830
773.213	0.0145493
773.291	0.0145589
773.369	0.0146584
773.447	0.0145833
773.525	0.0146146
773.603	0.0146574
773.682	0.0145249
773.760	0.0145039
773.838	0.0145959
773.916	0.0145325
773.994	0.0145722
774.072	0.0146127
774.150	0.0146305
774.228	0.0145849
774.307	0.0145400
774.385	0.0145875
774.463	0.0146017
774.541	0.0146971
774.619	0.0146186
774.697	0.0146598
774.775	0.0147447
774.853	0.0146680
774.932	0.0145976
775.010	0.0146180
775.088	0.0146542
775.166	0.0147326
775.244	0.0146835
775.322	0.0145918
775.400	0.0147024
775.478	0.0145997
775.557	0.0147134
775.635	0.0148584
775.713	0.0148607
775.791	0.0148270
775.869	0.0148404
775.947	0.0149028
776.025	0.0147106
776.103	0.0148730
776.182	0.0148157
776.260	0.0146809
776.338	0.0146632
776.416	0.0147707
776.494	0.0147531
776.572	0.0146172
776.650	0.0147235
776.728	0.0148400
776.807	0.0149098
776.885	0.0147557
776.963	0.0148613
777.041	0.0149409
777.119	0.0148471
777.197	0.0150018
777.275	0.0151379
777.353	0.0150354
777.432	0.0152396
777.510	0.0151530
777.588	0.0151364
777.666	0.0151024
777.744	0.0150916
777.822	0.0151355
777.900	0.0151023
777.978	0.0150368
778.057	0.0149873
778.135	0.0150467
778.213	0.0150697
778.291	0.0149164
778.369	0.0149655
778.447	0.0149102
778.525	0.0146892
778.603	0.0147552
778.682	0.0147775
778.760	0.0145831
778.838	0.0145889
778.916	0.0147106
778.994	0.0145472
779.072	0.0145376
779.150	0.0146342
779.228	0.0145060
779.307	0.0144491
779.385	0.0146465
779.463	0.0144965
779.541	0.0145867
779.619	0.0147221
779.697	0.0147389
779.775	0.0145805
779.853	0.0147253
779.932	0.0147760
780.010	0.0146964
780.088	0.0149019
780.166	0.0146832
780.244	0.0148045
780.322	0.0149953
780.400	0.0149260
780.478	0.0151360
780.557	0.0150441
780.635	0.0150524
780.713	0.0151140
780.791	0.0151468
780.869	0.0151653
780.947	0.0150722
781.025	0.0150876
781.103	0.0151643
781.182	0.0149599
781.260	0.0149905
781.338	0.0149338
781.416	0.0148924
781.494	0.0150281
781.572	0.0148036
781.650	0.0147720
781.728	0.0147337
781.807	0.0147744
781.885	0.0146983
781.963	0.0146104
782.041	0.0146503
782.119	0.0145814
782.197	0.0145914
782.275	0.0146681
782.353	0.0145343
782.432	0.0145390
782.510	0.0144447
782.588	0.0144785
782.666	0.0145108
782.744	0.0144448
782.822	0.0143700
782.900	0.0143130
782.978	0.0143348
783.057	0.0143649
783.135	0.0142876
783.213	0.0143130
783.291	0.0142601
783.369	0.0141819
783.447	0.0142534
783.525	0.0143576
783.603	0.0142401
783.682	0.0142349
783.760	0.0143085
783.838	0.0143111
783.916	0.0144313
783.994	0.0144244
784.072	0.0145256
784.150	0.0146884
784.228	0.0146895
784.307	0.0147684
784.385	0.0148025
784.463	0.0149470
784.541	0.0148951
784.619	0.0150574
784.697	0.0152953
784.775	0.0151331
784.853	0.0153190
784.932	0.0153249
785.010	0.0153544
785.088	0.0152889
785.166	0.0153542
785.244	0.0154013
785.322	0.0154256
785.400	0.0153300
785.478	0.0153974
785.557	0.0152772
785.635	0.0153716
785.713	0.0153542
785.791	0.0153376
785.869	0.0151993
785.947	0.0151442
786.025	0.0151616
786.103	0.0150523
786.182	0.0148357
786.260	0.0147849
786.338	0.0148264
786.416	0.0147472
786.494	0.0146903
786.572	0.0145673
786.650	0.0144799
786.728	0.0145512
786.807	0.0144016
786.885	0.0143218
786.963	0.0142544
787.041	0.0144253
787.119	0.0144254
787.197	0.0142696
787.275	0.0142112
787.353	0.0142490
787.432	0.0141866
787.510	0.0143776
787.588	0.0142557
787.666	0.0141836
787.744	0.0142698
787.822	0.0142660
787.900	0.0143225
787.978	0.0141328
788.057	0.0142596
788.135	0.0142268
788.213	0.0141957
788.291	0.0144353
788.369	0.0144305
788.447	0.0144357
788.525	0.0144582
788.603	0.0146027
788.682	0.0145439
788.760	0.0145749
788.838	0.0144958
788.916	0.0146530
788.994	0.0147625
789.072	0.0146344
789.150	0.0145784
789.228	0.0147824
789.307	0.0146991
789.385	0.0147165
789.463	0.0147808
789.541	0.0149602
789.619	0.0148780
789.697	0.0149882
789.775	0.0149784
789.853	0.0150332
789.932	0.0150258
790.010	0.0151144
790.088	0.0151165
790.166	0.0149821
790.244	0.0149526
790.322	0.0148842
790.400	0.0151089
790.478	0.0150349
790.557	0.0148845
790.635	0.0148492
790.713	0.0148674
790.791	0.0148315
790.869	0.0146373
790.947	0.0146712
791.025	0.0146727
791.103	0.0145798
791.182	0.0145283
791.260	0.0144258
791.338	0.0144062
791.416	0.0143616
791.494	0.0145985
791.572	0.0142917
791.650	0.0143106
791.728	0.0143708
791.807	0.0142740
791.885	0.0141953
791.963	0.0142165
792.041	0.0142763
792.119	0.0141949
792.197	0.0142514
792.275	0.0142213
792.353	0.0142530
792.432	0.0142422
792.510	0.0143769
792.588	0.0145128
792.666	0.0147008
792.744	0.0144221
792.822	0.0144070
792.900	0.0145693
792.978	0.0146397
793.057	0.0146107
793.135	0.0147226
793.213	0.0146684
793.291	0.0147506
793.369	0.0145291
793.447	0.0145782
793.525	0.0146158
793.603	0.0147662
793.682	0.0146182
793.760	0.0147453
793.838	0.0148580
793.916	0.0149332
793.994	0.0148986
794.072	0.0150089
794.150	0.0148818
794.228	0.0150742
794.307	0.0150864
794.385	0.0151125
794.463	0.0150884
794.541	0.0150734
794.619	0.0152812
794.697	0.0152620
794.775	0.0151945
794.853	0.0150543
794.932	0.0150771
795.010	0.0150964
795.088	0.0151070
795.166	0.0150520
795.244	0.0148503
795.322	0.0148519
795.400	0.0147150
795.478	0.0148886
795.557	0.0147785
795.635	0.0146678
795.713	0.0144633
795.791	0.0144967
795.869	0.0145929
795.947	0.0145796
796.025	0.0146121
796.103	0.0145558
796.182	0.0143964
796.260	0.0143928
796.338	0.0145547
796.416	0.0145161
796.494	0.0146388
796.572	0.0146367
796.650	0.0144650
796.728	0.0145811
796.807	0.0145992
796.885	0.0145013
796.963	0.0146973
797.041	0.0146825
797.119	0.0146231
797.197	0.0146510
797.275	0.0145503
797.353	0.0145610
797.432	0.0146193
797.510	0.0145208
797.588	0.0145847
797.666	0.0146712
797.744	0.0146168
797.822	0.0145849
797.900	0.0145573
797.978	0.0147652
798.057	0.0147242
798.135	0.0146728
798.213	0.0146122
798.291	0.0147416
798.369	0.0147567
798.447	0.0147403
798.525	0.0147543
798.603	0.0146706
798.682	0.0147419
798.760	0.0146655
798.838	0.0147473
798.916	0.0147267
798.994	0.0145528
799.072	0.0146365
799.150	0.0146791
799.228	0.0144468
799.307	0.0146291
799.385	0.0146398
799.463	0.0147073
799.541	0.0147459
799.619	0.0145971
799.697	0.0147968
799.775	0.0147567
799.853	0.0147591
799.932	0.0147556
800.010	0.0149144
800.088	0.0151001
800.166	0.0149464
800.244	0.0150046
800.322	0.0150363
800.400	0.0152137
800.478	0.0152105
800.557	0.0151556
800.635	0.0152463
800.713	0.0153445
800.791	0.0154232
800.869	0.0153411
800.947	0.0154958
801.025	0.0154102
801.103	0.0154727
801.182	0.0154353
801.260	0.0154692
801.338	0.0154009
801.416	0.0152718
801.494	0.0152498
801.572	0.0151746
801.650	0.0151459
801.728	0.0151659
801.807	0.0149042
801.885	0.0148151
801.963	0.0148837
802.041	0.0148546
802.119	0.0146883
802.197	0.0144896
802.275	0.0146320
802.353	0.0145134
802.432	0.0143824
802.510	0.0144200
802.588	0.0143490
802.666	0.0143951
802.744	0.0142916
802.822	0.0142679
802.900	0.0144273
802.978	0.0142957
803.057	0.0144987
803.135	0.0143774
803.213	0.0145361
803.291	0.0147247
803.369	0.0146817
803.447	0.0147911
803.525	0.0147764
803.603	0.0149114
803.682	0.0148177
803.760	0.0148086
803.838	0.0148811
803.916	0.0148470
803.994	0.0150038
804.072	0.0148046
804.150	0.0149530
804.228	0.0150272
804.307	0.0148616
804.385	0.0148906
804.463	0.0148127
804.541	0.0148998
804.619	0.0147749
804.697	0.0146196
804.775	0.0145147
804.853	0.0144838
804.932	0.0144701
805.010	0.0144878
805.088	0.0145100
805.166	0.0142974
805.244	0.0144752
805.322	0.0145813
805.400	0.0144709
805.478	0.0145297
805.557	0.0146886
805.635	0.0147511
805.713	0.0147184
805.791	0.0148050
805.869	0.0148618
805.947	0.0149117
806.025	0.0150360
806.103	0.0150269
806.182	0.0150057
806.260	0.0150848
806.338	0.0150865
806.416	0.0151381
806.494	0.0150217
806.572	0.0148448
806.650	0.0149261
806.728	0.0148295
806.807	0.0148708
806.885	0.0148756
806.963	0.0148398
807.041	0.0146054
807.119	0.0145596
807.197	0.0146903
807.275	0.0146784
807.353	0.0146328
807.432	0.0147941
807.510	0.0147366
807.588	0.0146324
807.666	0.0146458
807.744	0.0147276
807.822	0.0146335
807.900	0.0146740
807.978	0.0146838
808.057	0.0148785
808.135	0.0148499
808.213	0.0149525
808.291	0.0149783
808.369	0.0149586
808.447	0.0149058
808.525	0.0148168
808.603	0.0149805
808.682	0.0149796
808.760	0.0148920
808.838	0.0148444
808.916	0.0147558
808.994	0.0148436
809.072	0.0146922
809.150	0.0146223
809.228	0.0146180
809.307	0.0146715
809.385	0.0146128
809.463	0.0145858
809.541	0.0145895
809.619	0.0145573
809.697	0.0146317
809.775	0.0143122
809.853	0.0144776
809.932	0.0144714
810.010	0.0144640
810.088	0.0145161
810.166	0.0144817
810.244	0.0146047
810.322	0.0145574
810.400	0.0144933
810.478	0.0146592
810.557	0.0145913
810.635	0.0147158
810.713	0.0145574
810.791	0.0145985
810.869	0.0147658
810.947	0.0147170
811.025	0.0146530
811.103	0.0145084
811.182	0.0146672
811.260	0.0144791
811.338	0.0143421
811.416	0.0144120
811.494	0.0143549
811.572	0.0143331
811.650	0.0143118
811.728	0.0141705
811.807	0.0142043
811.885	0.0141887
811.963	0.0142257
812.041	0.0141556
812.119	0.0142067
812.197	0.0142696
812.275	0.0143010
812.353	0.0144363
812.432	0.0143977
812.510	0.0144129
812.588	0.0145728
812.666	0.0145574
812.744	0.0145643
812.822	0.0145860
812.900	0.0147845
812.978	0.0146939
813.057	0.0147441
813.135	0.0148489
813.213	0.0148323
813.291	0.0147719
813.369	0.0147894
813.447	0.0148345
813.525	0.0148382
813.603	0.0146454
813.682	0.0149108
813.760	0.0148480
813.838	0.0148284
813.916	0.0147391
813.994	0.0147207
814.072	0.0146514
814.150	0.0146940
814.228	0.0148024
814.307	0.0148944
814.385	0.0148388
814.463	0.0146931
814.541	0.0147459
814.619	0.0147826
814.697	0.0147957
814.775	0.0147638
814.853	0.0148113
814.932	0.0148580
815.010	0.0149051
815.088	0.0150214
815.166	0.0149553
815.244	0.0150011
815.322	0.0149794
815.400	0.0151000
815.478	0.0152425
815.557	0.0151709
815.635	0.0151447
815.713	0.0151456
815.791	0.0150909
815.869	0.0149165
815.947	0.0147881
816.025	0.0147035
816.103	0.0148133
816.182	0.0146762
816.260	0.0144389
816.338	0.0143684
816.416	0.0142970
816.494	0.0142158
816.572	0.0141098
816.650	0.0141562
816.728	0.0141470
816.807	0.0139720
816.885	0.0139677
816.963	0.0139952
817.041	0.0140598
817.119	0.0139074
817.197	0.0138361
817.275	0.0138038
817.353	0.0139440
817.432	0.0138529
817.510	0.0138461
817.588	0.0141751
817.666	0.0141528
817.744	0.0141292
817.822	0.0142751
817.900	0.0142663
817.978	0.0143150
818.057	0.0145222
818.135	0.0145859
818.213	0.0146124
818.291	0.0148684
818.369	0.0148348
818.447	0.0148101
818.525	0.0149162
818.603	0.0151377
818.682	0.0152319
818.760	0.0151494
818.838	0.0152081
818.916	0.0154388
818.994	0.0154044
819.072	0.0153069
819.150	0.0153768
819.228	0.0155257
819.307	0.0154868
819.385	0.0152575
819.463	0.0154044
819.541	0.0151898
819.619	0.0150475
819.697	0.0150581
819.775	0.0151678
819.853	0.0149834
819.932	0.0149422
820.010	0.0149164
820.088	0.0147400
820.166	0.0145599
820.244	0.0146017
820.322	0.0146973
820.400	0.0146542
820.478	0.0145509
820.557	0.0144770
820.635	0.0144280
820.713	0.0146370
820.791	0.0145438
820.869	0.0145289
820.947	0.0144736
821.025	0.0146368
821.103	0.0146989
821.182	0.0146186
821.260	0.0145481
821.338	0.0147927
821.416	0.0149355
821.494	0.0150276
821.572	0.0148254
821.650	0.0146894
821.728	0.0149339
821.807	0.0150240
821.885	0.0150368
821.963	0.0149924
822.041	0.0148860
822.119	0.0149084
822.197	0.0149693
822.275	0.0149664
822.353	0.0149983
822.432	0.0149108
822.510	0.0148170
822.588	0.0147135
822.666	0.0147583
822.744	0.0147919
822.822	0.0146446
822.900	0.0145560
822.978	0.0145402
823.057	0.0142896
823.135	0.0143240
823.213	0.0143319
823.291	0.0141219
823.369	0.0141385
823.447	0.0141338
823.525	0.0140015
823.603	0.0139909
823.682	0.0140579
823.760	0.0140334
823.838	0.0141769
823.916	0.0141421
823.994	0.0141834
824.072	0.0143114
824.150	0.0144111
824.228	0.0145070
824.307	0.0144530
824.385	0.0145806
824.463	0.0146406
824.541	0.0147210
824.619	0.0148470
824.697	0.0149603
824.775	0.0149619
824.853	0.0150252
824.932	0.0150591
825.010	0.0151667
825.088	0.0151412
825.166	0.0151657
825.244	0.0151592
825.322	0.0150636
825.400	0.0151560
825.478	0.0151572
825.557	0.0149697
825.635	0.0149229
825.713	0.0148454
825.791	0.0150127
825.869	0.0149563
825.947	0.0147169
826.025	0.0147900
826.103	0.0147355
826.182	0.0146828
826.260	0.0145713
826.338	0.0146942
826.416	0.0146345
826.494	0.0146085
826.572	0.0147124
826.650	0.0147887
826.728	0.0147730
826.807	0.0146432
826.885	0.0147926
826.963	0.0147637
827.041	0.0149421
827.119	0.0149879
827.197	0.0150198
827.275	0.0148772
827.353	0.0148776
827.432	0.0150667
827.510	0.0150855
827.588	0.0148637
827.666	0.0149803
827.744	0.0148779
827.822	0.0149935
827.900	0.0149802
827.978	0.0149295
828.057	0.0147787
828.135	0.0147916
828.213	0.0146678
828.291	0.0146694
828.369	0.0146074
828.447	0.0147516
828.525	0.0146069
828.603	0.0144770
828.682	0.0145071
828.760	0.0146851
828.838	0.0146021
828.916	0.0146019
828.994	0.0145034
829.072	0.0144465
829.150	0.0146255
829.228	0.0145871
829.307	0.0147208
829.385	0.0145772
829.463	0.0147172
829.541	0.0148225
829.619	0.0146897
829.697	0.0148123
829.775	0.0149326
829.853	0.0149728
829.932	0.0148939
830.010	0.0150105
830.088	0.0150572
830.166	0.0150038
830.244	0.0150877
830.322	0.0150797
830.400	0.0150530
830.478	0.0152042
830.557	0.0150478
830.635	0.0150494
830.713	0.0150713
830.791	0.0149646
830.869	0.0148624
830.947	0.0147888
831.025	0.0147945
831.103	0.0147549
831.182	0.0145983
831.260	0.0145286
831.338	0.0146504
831.416	0.0146350
831.494	0.0145196
831.572	0.0146751
831.650	0.0145631
831.728	0.0146249
831.807	0.0147701
831.885	0.0147611
831.963	0.0145032
832.041	0.0146783
832.119	0.0147259
832.197	0.0147355
832.275	0.0148656
832.353	0.0150564
832.432	0.0148977
832.510	0.0149446
832.588	0.0150613
832.666	0.0150643
832.744	0.0151248
832.822	0.0148978
832.900	0.0151794
832.978	0.0150365
833.057	0.0151031
833.135	0.0149026
833.213	0.0148239
833.291	0.0146339
833.369	0.0147095
833.447	0.0145175
833.525	0.0144756
833.603	0.0144793
833.682	0.0143802
833.760	0.0141523
833.838	0.0141530
833.916	0.0142560
833.994	0.0140947
834.072	0.0141543
834.150	0.0140388
834.228	0.0140511
834.307	0.0142558
834.385	0.0142078
834.463	0.0142609
834.541	0.0143192
834.619	0.0144785
834.697	0.0145200
834.775	0.0146571
834.853	0.0145195
834.932	0.0145449
835.010	0.0148736
835.088	0.0147255
835.166	0.0150076
835.244	0.0148660
835.322	0.0148671
835.400	0.0149223
835.478	0.0149578
835.557	0.0150474
835.635	0.0148597
835.713	0.0148757
835.791	0.0149883
835.869	0.0151338
835.947	0.0148985
836.025	0.0148608
836.103	0.0150452
836.182	0.0150900
836.260	0.0149197
836.338	0.0148804
836.416	0.0148503
836.494	0.0149180
836.572	0.0148759
836.650	0.0148881
836.728	0.0146773
836.807	0.0147662
836.885	0.0148650
836.963	0.0148663
837.041	0.0149238
837.119	0.0150111
837.197	0.0149268
837.275	0.0149022
837.353	0.0149862
837.432	0.0151765
837.510	0.0149861
837.588	0.0150237
837.666	0.0149943
837.744	0.0150191
837.822	0.0150473
837.900	0.0149891
837.978	0.0148907
838.057	0.0150201
838.135	0.0147819
838.213	0.0147258
838.291	0.0147287
838.369	0.0146607
838.447	0.0145244
838.525	0.0144935
838.603	0.0145513
838.682	0.0144448
838.760	0.0144273
838.838	0.0143446
838.916	0.0142963
838.994	0.0142908
839.072	0.0142443
839.150	0.0142284
839.228	0.0142668
839.307	0.0142177
839.385	0.0141187
839.463	0.0140342
839.541	0.0142607
839.619	0.0142564
839.697	0.0143455
839.775	0.0143195
839.853	0.0142636
839.932	0.0142655
840.010	0.0142878
840.088	0.0144357
840.166	0.0146201
840.244	0.0144807
840.322	0.0146010
840.400	0.0145763
840.478	0.0145996
840.557	0.0146175
840.635	0.0148503
840.713	0.0148689
840.791	0.0148013
840.869	0.0147266
840.947	0.0150012
841.025	0.0147783
841.103	0.0148816
841.182	0.0148334
841.260	0.0149262
841.338	0.0149439
841.416	0.0149590
841.494	0.0150034
841.572	0.0149827
841.650	0.0148547
841.728	0.0148695
841.807	0.0147702
841.885	0.0148752
841.963	0.0147783
842.041	0.0148791
842.119	0.0146865
842.197	0.0146242
842.275	0.0148132
842.353	0.0146835
842.432	0.0145216
842.510	0.0145436
842.588	0.0145732
842.666	0.0145858
842.744	0.0146402
842.822	0.0146359
842.900	0.0144561
842.978	0.0144238
843.057	0.0145033
843.135	0.0143661
843.213	0.0143130
843.291	0.0145070
843.369	0.0145606
843.447	0.0146514
843.525	0.0146404
843.603	0.0146608
843.682	0.0146964
843.760	0.0147447
843.838	0.0148188
843.916	0.0146734
843.994	0.0148273
844.072	0.0148807
844.150	0.0148918
844.228	0.0149947
844.307	0.0148462
844.385	0.0149895
844.463	0.0150629
844.541	0.0150513
844.619	0.0149077
844.697	0.0148669
844.775	0.0150054
844.853	0.0149207
844.932	0.0148891
845.010	0.0148376
845.088	0.0148013
845.166	0.0147985
845.244	0.0146898
845.322	0.0147666
845.400	0.0146543
845.478	0.0146906
845.557	0.0145528
845.635	0.0144853
845.713	0.0144843
845.791	0.0144535
845.869	0.0144320
845.947	0.0143825
846.025	0.0143679
846.103	0.0144776
846.182	0.0142784
846.260	0.0143135
846.338	0.0144759
846.416	0.0143746
846.494	0.0144028
846.572	0.0143273
846.650	0.0143114
846.728	0.0144968
846.807	0.0145122
846.885	0.0146166
846.963	0.0145921
847.041	0.0145867
847.119	0.0145222
847.197	0.0145775
847.275	0.0146487
847.353	0.0146468
847.432	0.0146232
847.510	0.0146716
847.588	0.0147316
847.666	0.0146593
847.744	0.0146139
847.822	0.0147601
847.900	0.0147642
847.978	0.0147124
848.057	0.0147320
848.135	0.0145958
848.213	0.0147452
848.291	0.0147662
848.369	0.0147176
848.447	0.0148570
848.525	0.0148089
848.603	0.0148645
848.682	0.0148973
848.760	0.0148194
848.838	0.0148592
848.916	0.0149083
848.994	0.0149270
849.072	0.0150539
849.150	0.0149991
849.228	0.0150359
849.307	0.0150240
849.385	0.0149149
849.463	0.0149857
849.541	0.0149926
849.619	0.0150229
849.697	0.0149359
849.775	0.0150779
849.853	0.0148879
849.932	0.0148532
850.010	0.0148802
850.088	0.0148081
850.166	0.0148849
850.244	0.0149108
850.322	0.0147318
850.400	0.0147430
850.478	0.0146623
850.557	0.0145306
850.635	0.0148393
850.713	0.0147832
850.791	0.0147625
850.869	0.0147384
850.947	0.0147768
851.025	0.0147509
851.103	0.0147043
851.182	0.0146960
851.260	0.0146929
851.338	0.0148848
851.416	0.0147343
851.494	0.0146867
851.572	0.0146587
851.650	0.0145963
851.728	0.0146534
851.807	0.0147812
851.885	0.0147160
851.963	0.0147337
852.041	0.0147682
852.119	0.0147976
852.197	0.0146544
852.275	0.0149471
852.353	0.0149232
852.432	0.0147695
852.510	0.0149895
852.588	0.0150140
852.666	0.0149084
852.744	0.0149612
852.822	0.0149812
852.900	0.0150431
852.978	0.0150508
853.057	0.0149215
853.135	0.0150069
853.213	0.0150509
853.291	0.0148146
853.369	0.0148617
853.447	0.0149045
853.525	0.0149966
853.603	0.0147617
853.682	0.0148569
853.760	0.0147347
853.838	0.0147610
853.916	0.0145771
853.994	0.0145899
854.072	0.0145254
854.150	0.0145012
854.228	0.0145066
854.307	0.0146439
854.385	0.0147575
854.463	0.0145946
854.541	0.0144936
854.619	0.0145325
854.697	0.0145142
854.775	0.0145274
854.853	0.0145758
854.932	0.0145478
855.010	0.0144884
855.088	0.0148011
855.166	0.0147039
855.244	0.0147974
855.322	0.0145553
855.400	0.0147278
855.478	0.0148640
855.557	0.0148042
855.635	0.0149284
855.713	0.0151516
855.791	0.0148557
855.869	0.0150116
855.947	0.0151476
856.025	0.0151572
856.103	0.0150826
856.182	0.0150790
856.260	0.0151205
856.338	0.0152727
856.416	0.0153836
856.494	0.0153643
856.572	0.0151840
856.650	0.0152761
856.728	0.0151529
856.807	0.0152618
856.885	0.0150307
856.963	0.0150333
857.041	0.0150954
857.119	0.0152158
857.197	0.0149384
857.275	0.0147752
857.353	0.0148402
857.432	0.0146540
857.510	0.0146652
857.588	0.0145216
857.666	0.0144863
857.744	0.0145482
857.822	0.0144393
857.900	0.0142850
857.978	0.0142902
858.057	0.0141587
858.135	0.0143108
858.213	0.0141809
858.291	0.0143446
858.369	0.0141901
858.447	0.0142299
858.525	0.0142163
858.603	0.0141879
858.682	0.0143635
858.760	0.0143051
858.838	0.0142275
858.916	0.0143191
858.994	0.0144418
859.072	0.0143801
859.150	0.0144960
859.228	0.0144663
859.307	0.0145744
859.385	0.0145824
859.463	0.0145467
859.541	0.0146838
859.619	0.0148457
859.697	0.0148631
859.775	0.0149317
859.853	0.0151335
859.932	0.0149934
860.010	0.0150009
860.088	0.0152393
860.166	0.0151434
860.244	0.0149931
860.322	0.0152996
860.400	0.0152380
860.478	0.0152765
860.557	0.0151354
860.635	0.0151563
860.713	0.0152164
860.791	0.0151870
860.869	0.0150785
860.947	0.0151529
861.025	0.0150512
861.103	0.0150230
861.182	0.0149694
861.260	0.0148662
861.338	0.0147266
861.416	0.0146977
861.494	0.0146396
861.572	0.0145499
861.650	0.0145234
861.728	0.0145353
861.807	0.0146056
861.885	0.0144769
861.963	0.0146238
862.041	0.0144730
862.119	0.0143873
862.197	0.0144899
862.275	0.0145172
862.353	0.0145574
862.432	0.0146149
862.510	0.0145865
862.588	0.0146689
862.666	0.0147083
862.744	0.0147389
862.822	0.0147108
862.900	0.0147186
862.978	0.0146651
863.057	0.0147516
863.135	0.0148196
863.213	0.0148916
863.291	0.0149905
863.369	0.0149219
863.447	0.0148919
863.525	0.0148759
863.603	0.0148814
863.682	0.0150130
863.760	0.0150373
863.838	0.0149413
863.916	0.0149035
863.994	0.0148885
864.072	0.0148643
864.150	0.0148694
864.228	0.0147754
864.307	0.0147324
864.385	0.0146926
864.463	0.0146566
864.541	0.0147762
864.619	0.0147864
864.697	0.0146986
864.775	0.0146461
864.853	0.0147676
864.932	0.0147540
865.010	0.0146800
865.088	0.0146802
865.166	0.0146823
865.244	0.0146547
865.322	0.0147192
865.400	0.0147153
865.478	0.0146223
865.557	0.0146513
865.635	0.0146266
865.713	0.0147280
865.791	0.0147077
865.869	0.0144917
865.947	0.0144920
866.025	0.0144254
866.103	0.0145607
866.182	0.0145483
866.260	0.0143842
866.338	0.0142737
866.416	0.0144434
866.494	0.0144901
866.572	0.0145024
866.650	0.0142802
866.728	0.0144631
866.807	0.0144861
866.885	0.0144661
866.963	0.0144288
867.041	0.0143095
867.119	0.0144923
867.197	0.0145177
867.275	0.0146013
867.353	0.0144965
867.432	0.0146230
867.510	0.0145049
867.588	0.0145676
867.666	0.0145663
867.744	0.0146546
867.822	0.0146404
867.900	0.0148056
867.978	0.0147114
868.057	0.0146741
868.135	0.0147519
868.213	0.0147791
868.291	0.0148206
868.369	0.0148207
868.447	0.0148388
868.525	0.0147828
868.603	0.0149324
868.682	0.0148864
868.760	0.0146951
868.838	0.0149258
868.916	0.0147408
868.994	0.0146072
869.072	0.0148889
869.150	0.0147935
869.228	0.0146751
869.307	0.0146144
869.385	0.0145851
869.463	0.0146416
869.541	0.0144969
869.619	0.0144370
869.697	0.0144590
869.775	0.0143917
869.853	0.0144970
869.932	0.0142436
870.010	0.0140827
870.088	0.0142515
870.166	0.0141443
870.244	0.0140481
870.322	0.0142400
870.400	0.0144121
870.478	0.0141740
870.557	0.0142139
870.635	0.0143591
870.713	0.0145119
870.791	0.0144600
870.869	0.0144747
870.947	0.0146156
871.025	0.0146293
871.103	0.0145047
871.182	0.0147120
871.260	0.0148724
871.338	0.0148139
871.416	0.0149693
871.494	0.0149448
871.572	0.0149204
871.650	0.0149635
871.728	0.0150244
871.807	0.0150686
871.885	0.0149715
871.963	0.0150433
872.041	0.0149702
872.119	0.0149450
872.197	0.0150532
872.275	0.0149442
872.353	0.0149408
872.432	0.0148592
872.510	0.0147517
872.588	0.0147356
872.666	0.0147686
872.744	0.0147007
872.822	0.0147235
872.900	0.0146371
872.978	0.0146421
873.057	0.0145918
873.135	0.0144676
873.213	0.0144972
873.291	0.0145847
873.369	0.0145096
873.447	0.0144638
873.525	0.0145464
873.603	0.0144966
873.682	0.0142565
873.760	0.0145132
873.838	0.0147276
873.916	0.0144328
873.994	0.0144283
874.072	0.0144859
874.150	0.0145692
874.228	0.0145299
874.307	0.0145130
874.385	0.0146575
874.463	0.0146806
874.541	0.0147031
874.619	0.0147834
874.697	0.0147614
874.775	0.0147840
874.853	0.0147470
874.932	0.0148277
875.010	0.0148558
875.088	0.0148058
875.166	0.0148545
875.244	0.0148723
875.322	0.0147043
875.400	0.0146900
875.478	0.0147193
875.557	0.0148582
875.635	0.0147923
875.713	0.0147027
875.791	0.0148660
875.869	0.0147545
875.947	0.0148594
876.025	0.0148682
876.103	0.0149670
876.182	0.0149580
876.260	0.0149161
876.338	0.0149414
876.416	0.0149444
876.494	0.0147712
876.572	0.0148779
876.650	0.0149265
876.728	0.0148441
876.807	0.0146999
876.885	0.0145828
876.963	0.0145473
877.041	0.0145391
877.119	0.0145148
877.197	0.0146741
877.275	0.0145908
877.353	0.0145364
877.432	0.0143237
877.510	0.0143687
877.588	0.0145116
877.666	0.0142567
877.744	0.0142976
877.822	0.0144388
877.900	0.0143775
877.978	0.0144543
878.057	0.0143160
878.135	0.0144138
878.213	0.0147023
878.291	0.0145603
878.369	0.0145320
878.447	0.0145809
878.525	0.0147037
878.603	0.0146541
878.682	0.0147277
878.760	0.0148071
878.838	0.0148609
878.916	0.0149017
878.994	0.0149853
879.072	0.0149819
879.150	0.0150172
879.228	0.0150082
879.307	0.0152689
879.385	0.0151707
879.463	0.0150870
879.541	0.0151353
879.619	0.0150874
879.697	0.0151400
879.775	0.0150404
879.853	0.0150302
879.932	0.0150943
880.010	0.0151907
880.088	0.0151517
880.166	0.0150725
880.244	0.0150997
880.322	0.0150332
880.400	0.0150485
880.478	0.0149655
880.557	0.0150402
880.635	0.0150082
880.713	0.0150986
880.791	0.0148067
880.869	0.0148489
880.947	0.0147381
881.025	0.0148596
881.103	0.0147226
881.182	0.0146793
881.260	0.0147603
881.338	0.0146901
881.416	0.0147659
881.494	0.0146566
881.572	0.0145293
881.650	0.0146082
881.728	0.0145525
881.807	0.0145539
881.885	0.0144141
881.963	0.0142677
882.041	0.0143510
882.119	0.0143681
882.197	0.0143939
882.275	0.0144917
882.353	0.0144814
882.432	0.0143543
882.510	0.0145045
882.588	0.0145728
882.666	0.0146273
882.744	0.0147897
882.822	0.0147527
882.900	0.0146636
882.978	0.0148771
883.057	0.0148550
883.135	0.0148729
883.213	0.0148390
883.291	0.0148814
883.369	0.0150234
883.447	0.0150437
883.525	0.0149597
883.603	0.0148848
883.682	0.0149403
883.760	0.0150728
883.838	0.0150056
883.916	0.0147769
883.994	0.0147521
884.072	0.0149976
884.150	0.0148637
884.228	0.0147640
884.307	0.0147137
884.385	0.0147536
884.463	0.0147386
884.541	0.0146098
884.619	0.0147010
884.697	0.0146176
884.775	0.0145880
884.853	0.0144850
884.932	0.0145754
885.010	0.0145291
885.088	0.0144597
885.166	0.0145557
885.244	0.0145609
885.322	0.0146544
885.400	0.0145267
885.478	0.0146554
885.557	0.0146394
885.635	0.0147537
885.713	0.0146113
885.791	0.0145966
885.869	0.0148718
885.947	0.0147688
886.025	0.0146995
886.103	0.0146178
886.182	0.0147253
886.260	0.0148136
886.338	0.0149111
886.416	0.0149199
886.494	0.0147219
886.572	0.0147816
886.650	0.0147290
886.728	0.0145792
886.807	0.0146926
886.885	0.0147778
886.963	0.0147104
887.041	0.0146950
887.119	0.0147131
887.197	0.0147237
887.275	0.0146469
887.353	0.0146037
887.432	0.0146564
887.510	0.0147338
887.588	0.0145755
887.666	0.0145890
887.744	0.0147722
887.822	0.0147288
887.900	0.0146584
887.978	0.0147151
888.057	0.0148195
888.135	0.0147339
888.213	0.0148792
888.291	0.0148698
888.369	0.0147426
888.447	0.0148977
888.525	0.0147574
888.603	0.0147907
888.682	0.0148158
888.760	0.0148872
888.838	0.0146494
888.916	0.0147468
888.994	0.0147713
889.072	0.0146867
889.150	0.0146706
889.228	0.0145614
889.307	0.0145852
889.385	0.0145148
889.463	0.0143497
889.541	0.0143590
889.619	0.0143250
889.697	0.0142693
889.775	0.0142022
889.853	0.0141122
889.932	0.0142255
890.010	0.0140273
890.088	0.0141193
890.166	0.0141788
890.244	0.0140399
890.322	0.0140439
890.400	0.0143041
890.478	0.0143456
890.557	0.0142540
890.635	0.0145095
890.713	0.0145078
890.791	0.0146385
890.869	0.0146051
890.947	0.0146410
891.025	0.0149524
891.103	0.0149424
891.182	0.0148975
891.260	0.0150662
891.338	0.0151263
891.416	0.0151891
891.494	0.0150329
891.572	0.0151462
891.650	0.0151345
891.728	0.0150964
891.807	0.0149471
891.885	0.0150340
891.963	0.0149906
892.041	0.0149190
892.119	0.0148859
892.197	0.0146966
892.275	0.0147346
892.353	0.0148895
892.432	0.0147718
892.510	0.0145615
892.588	0.0145994
892.666	0.0146256
892.744	0.0144273
892.822	0.0144384
892.900	0.0143998
892.978	0.0143351
893.057	0.0145052
893.135	0.0143768
893.213	0.0143654
893.291	0.0143305
893.369	0.0143098
893.447	0.0145232
893.525	0.0146111
893.603	0.0145866
893.682	0.0145923
893.760	0.0145590
893.838	0.0146546
893.916	0.0146543
893.994	0.0145753
894.072	0.0147643
894.150	0.0148523
894.228	0.0146944
894.307	0.0147932
894.385	0.0148199
894.463	0.0147656
894.541	0.0147359
894.619	0.0147720
894.697	0.0146941
894.775	0.0147913
894.853	0.0149144
894.932	0.0147548
895.010	0.0146893
895.088	0.0148319
895.166	0.0146391
895.244	0.0147564
895.322	0.0146960
895.400	0.0146582
895.478	0.0146571
895.557	0.0146880
895.635	0.0146834
895.713	0.0145222
895.791	0.0144977
895.869	0.0145324
895.947	0.0146785
896.025	0.0146029
896.103	0.0145287
896.182	0.0145900
896.260	0.0147192
896.338	0.0146953
896.416	0.0147764
896.494	0.0147407
896.572	0.0147438
896.650	0.0145584
896.728	0.0147651
896.807	0.0147590
896.885	0.0148051
896.963	0.0147858
897.041	0.0150492
897.119	0.0148972
897.197	0.0148792
897.275	0.0148415
897.353	0.0148963
897.432	0.0150017
897.510	0.0149751
897.588	0.0147868
897.666	0.0147718
897.744	0.0148341
897.822	0.0148630
897.900	0.0147993
897.978	0.0148368
898.057	0.0145766
898.135	0.0147173
898.213	0.0145522
898.291	0.0146233
898.369	0.0146400
898.447	0.0145494
898.525	0.0145553
898.603	0.0144519
898.682	0.0145065
898.760	0.0146011
898.838	0.0145598
898.916	0.0145947
898.994	0.0145848
899.072	0.0146712
899.150	0.0144556
899.228	0.0144833
899.307	0.0146204
899.385	0.0148041
899.463	0.0146856
899.541	0.0146625
899.619	0.0146529
899.697	0.0147407
899.775	0.0147766
899.853	0.0148322
899.932	0.0148252
900.010	0.0148269
900.088	0.0147791
900.166	0.0147190
900.244	0.0148720
900.322	0.0150108
900.400	0.0149546
900.478	0.0148537
900.557	0.0149270
900.635	0.0147441
900.713	0.0149006
900.791	0.0148091
900.869	0.0146861
900.947	0.0148129
901.025	0.0147662
901.103	0.0149056
901.182	0.0147174
901.260	0.0145461
901.338	0.0146221
901.416	0.0145506
901.494	0.0147320
901.572	0.0146172
901.650	0.0146585
901.728	0.0146233
901.807	0.0146423
901.885	0.0146402
901.963	0.0145908
902.041	0.0146320
902.119	0.0145604
902.197	0.0146081
902.275	0.0145831
902.353	0.0145039
902.432	0.0145924
902.510	0.0145592
902.588	0.0146436
902.666	0.0145836
902.744	0.0146409
902.822	0.0146899
902.900	0.0147237
902.978	0.0146513
903.057	0.0147215
903.135	0.0146998
903.213	0.0147969
903.291	0.0149156
903.369	0.0147919
903.447	0.0149221
903.525	0.0147742
903.603	0.0146995
903.682	0.0148581
903.760	0.0148362
903.838	0.0146933
903.916	0.0148465
903.994	0.0148225
904.072	0.0147485
904.150	0.0148521
904.228	0.0148005
904.307	0.0148432
904.385	0.0147121
904.463	0.0148087
904.541	0.0147383
904.619	0.0146523
904.697	0.0147717
904.775	0.0149005
904.853	0.0148196
904.932	0.0147337
905.010	0.0147114
905.088	0.0147324
905.166	0.0148626
905.244	0.0148093
905.322	0.0148135
905.400	0.0147873
905.478	0.0148917
905.557	0.0148029
905.635	0.0148881
905.713	0.0149052
905.791	0.0148044
905.869	0.0149345
905.947	0.0147114
906.025	0.0148650
906.103	0.0146483
906.182	0.0147632
906.260	0.0148702
906.338	0.0147802
906.416	0.0146844
906.494	0.0146776
906.572	0.0145358
906.650	0.0147549
906.728	0.0147031
906.807	0.0146504
906.885	0.0146400
906.963	0.0145298
907.041	0.0145689
907.119	0.0147694
907.197	0.0147150
907.275	0.0145782
907.353	0.0146034
907.432	0.0146934
907.510	0.0146864
907.588	0.0146301
907.666	0.0146300
907.744	0.0146119
907.822	0.0147687
907.900	0.0147100
907.978	0.0147591
908.057	0.0148289
908.135	0.0146463
908.213	0.0146107
908.291	0.0146308
908.369	0.0147821
908.447	0.0148315
908.525	0.0146743
908.603	0.0147492
908.682	0.0149434
908.760	0.0148465
908.838	0.0146549
908.916	0.0147002
908.994	0.0148757
909.072	0.0147488
909.150	0.0147189
909.228	0.0149818
909.307	0.0148329
909.385	0.0147506
909.463	0.0148691
909.541	0.0148431
909.619	0.0148484
909.697	0.0149101
909.775	0.0148064
909.853	0.0148192
909.932	0.0149484
910.010	0.0147073
910.088	0.0147387
910.166	0.0147917
910.244	0.0148526
910.322	0.0147263
910.400	0.0146949
910.478	0.0147943
910.557	0.0147030
910.635	0.0145739
910.713	0.0146270
910.791	0.0147015
910.869	0.0146095
910.947	0.0145641
911.025	0.0145805
911.103	0.0145005
911.182	0.0144386
911.260	0.0145345
911.338	0.0145283
911.416	0.0144053
911.494	0.0144389
911.572	0.0143740
911.650	0.0145222
911.728	0.0146278
911.807	0.0145589
911.885	0.0147716
911.963	0.0146835
912.041	0.0146600
912.119	0.0147282
912.197	0.0148238
912.275	0.0147545
912.353	0.0147079
912.432	0.0148177
912.510	0.0148689
912.588	0.0148347
912.666	0.0149076
912.744	0.0149033
912.822	0.0149404
912.900	0.0149454
912.978	0.0148833
913.057	0.0148959
913.135	0.0149424
913.213	0.0149277
913.291	0.0149263
913.369	0.0149202
913.447	0.0148715
913.525	0.0148965
913.603	0.0148051
913.682	0.0148219
913.760	0.0148285
913.838	0.0146873
913.916	0.0147287
913.994	0.0147847
914.072	0.0147141
914.150	0.0147497
914.228	0.0147453
914.307	0.0147089
914.385	0.0147134
914.463	0.0147661
914.541	0.0147148
914.619	0.0147077
914.697	0.0146889
914.775	0.0146441
914.853	0.0146111
914.932	0.0145760
915.010	0.0147330
915.088	0.0146099
915.166	0.0145455
915.244	0.0146630
915.322	0.0146205
915.400	0.0146352
915.478	0.0144068
915.557	0.0145749
915.635	0.0146291
915.713	0.0146809
915.791	0.0145849
915.869	0.0148297
915.947	0.0146985
916.025	0.0145941
916.103	0.0147261
916.182	0.0147623
916.260	0.0147433
916.338	0.0147811
916.416	0.0147930
916.494	0.0146956
916.572	0.0146178
916.650	0.0146519
916.728	0.0146840
916.807	0.0146684
916.885	0.0146667
916.963	0.0146782
917.041	0.0147617
917.119	0.0146735
917.197	0.0145798
917.275	0.0146043
917.353	0.0145940
917.432	0.0144620
917.510	0.0145530
917.588	0.0145875
917.666	0.0145845
917.744	0.0146463
917.822	0.0146972
917.900	0.0148082
917.978	0.0146576
918.057	0.0147467
918.135	0.0148248
918.213	0.0148003
918.291	0.0148304
918.369	0.0150352
918.447	0.0148873
918.525	0.0148498
918.603	0.0148840
918.682	0.0148726
918.760	0.0149239
918.838	0.0149728
918.916	0.0149536
918.994	0.0150245
919.072	0.0150019
919.150	0.0149739
919.228	0.0149377
919.307	0.0150045
919.385	0.0150098
919.463	0.0148649
919.541	0.0149168
919.619	0.0147974
919.697	0.0148357
919.775	0.0147924
919.853	0.0148504
919.932	0.0146194
920.010	0.0146193
920.088	0.0146483
920.166	0.0146640
920.244	0.0144050
920.322	0.0143973
920.400	0.0143150
920.478	0.0142599
920.557	0.0143884
920.635	0.0143471
920.713	0.0142664
920.791	0.0143884
920.869	0.0143128
920.947	0.0143887
921.025	0.0144992
921.103	0.0145133
921.182	0.0145226
921.260	0.0145390
921.338	0.0145500
921.416	0.0145702
921.494	0.0146418
921.572	0.0146674
921.650	0.0148115
921.728	0.0147906
921.807	0.0147598
921.885	0.0149318
921.963	0.0148521
922.041	0.0148484
922.119	0.0148225
922.197	0.0147999
922.275	0.0149358
922.353	0.0149211
922.432	0.0149141
922.510	0.0149011
922.588	0.0148232
922.666	0.0147193
922.744	0.0147925
922.822	0.0147900
922.900	0.0147157
922.978	0.0147178
923.057	0.0147298
923.135	0.0147356
923.213	0.0147950
923.291	0.0147088
923.369	0.0148968
923.447	0.0148463
923.525	0.0148125
923.603	0.0148168
923.682	0.0148656
923.760	0.0147511
923.838	0.0148550
923.916	0.0148308
923.994	0.0147746
924.072	0.0146986
924.150	0.0147565
924.228	0.0147573
924.307	0.0147173
924.385	0.0146834
924.463	0.0148592
924.541	0.0146282
924.619	0.0146367
924.697	0.0145468
924.775	0.0146095
924.853	0.0145921
924.932	0.0145832
925.010	0.0145469
925.088	0.0145162
925.166	0.0145396
925.244	0.0144987
925.322	0.0145217
925.400	0.0145406
925.478	0.0145425
925.557	0.0144704
925.635	0.0144639
925.713	0.0145441
925.791	0.0145425
925.869	0.0146033
925.947	0.0144880
926.025	0.0145933
926.103	0.0147381
926.182	0.0145663
926.260	0.0145409
926.338	0.0145956
926.416	0.0146820
926.494	0.0147805
926.572	0.0146127
926.650	0.0147357
926.728	0.0149586
926.807	0.0146830
926.885	0.0146679
926.963	0.0147519
927.041	0.0147732
927.119	0.0147416
927.197	0.0146358
927.275	0.0147153
927.353	0.0147094
927.432	0.0146976
927.510	0.0147507
927.588	0.0146218
927.666	0.0147253
927.744	0.0147561
927.822	0.0147302
927.900	0.0148313
927.978	0.0147078
928.057	0.0146986
928.135	0.0146716
928.213	0.0145815
928.291	0.0146633
928.369	0.0147929
928.447	0.0147198
928.525	0.0146956
928.603	0.0145477
928.682	0.0146807
928.760	0.0145730
928.838	0.0146707
928.916	0.0146047
928.994	0.0148569
929.072	0.0146188
929.150	0.0147215
929.228	0.0148241
929.307	0.0146902
929.385	0.0147172
929.463	0.0147630
929.541	0.0147818
929.619	0.0147304
929.697	0.0147321
929.775	0.0147810
929.853	0.0147693
929.932	0.0146413
930.010	0.0146464
930.088	0.0147401
930.166	0.0147917
930.244	0.0147048
930.322	0.0147988
930.400	0.0145920
930.478	0.0146202
930.557	0.0145712
930.635	0.0145306
930.713	0.0148418
930.791	0.0147276
930.869	0.0145901
930.947	0.0147636
931.025	0.0146241
931.103	0.0145898
931.182	0.0147858
931.260	0.0147500
931.338	0.0147110
931.416	0.0147887
931.494	0.0148477
931.572	0.0147964
931.650	0.0149859
931.728	0.0148505
931.807	0.0148267
931.885	0.0149202
931.963	0.0148061
932.041	0.0148359
932.119	0.0149356
932.197	0.0148849
932.275	0.0148796
932.353	0.0148315
932.432	0.0148245
932.510	0.0149250
932.588	0.0148695
932.666	0.0149010
932.744	0.0148579
932.822	0.0149603
932.900	0.0149234
932.978	0.0148562
933.057	0.0149494
933.135	0.0147434
933.213	0.0147530
933.291	0.0147562
933.369	0.0148401
933.447	0.0148211
933.525	0.0147366
933.603	0.0147137
933.682	0.0147083
933.760	0.0145966
933.838	0.0147186
933.916	0.0147523
933.994	0.0146986
934.072	0.0148022
934.150	0.0147997
934.228	0.0146141
934.307	0.0147387
934.385	0.0146656
934.463	0.0145872
934.541	0.0148203
934.619	0.0146835
934.697	0.0145937
934.775	0.0147117
934.853	0.0146588
934.932	0.0146251
935.010	0.0146066
935.088	0.0146391
935.166	0.0146741
935.244	0.0146440
935.322	0.0147562
935.400	0.0147225
935.478	0.0147569
935.557	0.0147256
935.635	0.0146612
935.713	0.0148671
935.791	0.0146180
935.869	0.0146138
935.947	0.0146934
936.025	0.0146396
936.103	0.0146336
936.182	0.0147785
936.260	0.0146655
936.338	0.0145989
936.416	0.0146729
936.494	0.0145924
936.572	0.0145956
936.650	0.0146494
936.728	0.0147320
936.807	0.0146255
936.885	0.0146380
936.963	0.0146129
937.041	0.0146062
937.119	0.0147282
937.197	0.0148460
937.275	0.0146736
937.353	0.0147724
937.432	0.0146536
937.510	0.0147943
937.588	0.0148743
937.666	0.0147170
937.744	0.0147934
937.822	0.0149198
937.900	0.0147821
937.978	0.0149043
938.057	0.0148639
938.135	0.0150877
938.213	0.0148747
938.291	0.0150034
938.369	0.0148121
938.447	0.0150738
938.525	0.0149738
938.603	0.0148882
938.682	0.0148630
938.760	0.0149271
938.838	0.0149070
938.916	0.0149680
938.994	0.0147993
939.072	0.0148135
939.150	0.0150277
939.228	0.0147990
939.307	0.0147667
939.385	0.0148096
939.463	0.0146930
939.541	0.0147989
939.619	0.0146835
939.697	0.0146484
939.775	0.0146366
939.853	0.0146404
939.932	0.0146964
940.010	0.0146494
940.088	0.0146172
940.166	0.0147431
940.244	0.0146333
940.322	0.0147126
940.400	0.0146542
940.478	0.0146149
940.557	0.0146410
940.635	0.0148848
940.713	0.0147131
940.791	0.0145209
940.869	0.0147245
940.947	0.0147066
941.025	0.0145647
941.103	0.0146844
941.182	0.0146461
941.260	0.0146190
941.338	0.0146973
941.416	0.0145859
941.494	0.0146642
941.572	0.0146395
941.650	0.0146700
941.728	0.0146067
941.807	0.0148012
941.885	0.0146667
941.963	0.0146285
942.041	0.0147901
942.119	0.0149055
942.197	0.0147932
942.275	0.0147666
942.353	0.0148263
942.432	0.0146869
942.510	0.0147794
942.588	0.0147839
942.666	0.0148542
942.744	0.0147946
942.822	0.0148074
942.900	0.0147378
942.978	0.0147094
943.057	0.0147114
943.135	0.0146584
943.213	0.0148373
943.291	0.0146857
943.369	0.0146206
943.447	0.0147565
943.525	0.0147258
943.603	0.0147420
943.682	0.0146355
943.760	0.0146349
943.838	0.0146146
943.916	0.0146843
943.994	0.0146662
944.072	0.0145932
944.150	0.0147879
944.228	0.0146719
944.307	0.0145437
944.385	0.0146286
944.463	0.0146370
944.541	0.0147043
944.619	0.0146316
944.697	0.0146226
944.775	0.0148146
944.853	0.0147514
944.932	0.0147813
945.010	0.0148740
945.088	0.0147763
945.166	0.0147807
945.244	0.0147695
945.322	0.0148305
945.400	0.0147605
945.478	0.0147402
945.557	0.0147126
945.635	0.0147423
945.713	0.0148644
945.791	0.0147847
945.869	0.0147187
945.947	0.0147562
946.025	0.0145912
946.103	0.0147937
946.182	0.0147062
946.260	0.0146897
946.338	0.0146814
946.416	0.0145798
946.494	0.0146869
946.572	0.0145960
946.650	0.0146209
946.728	0.0146111
946.807	0.0146687
946.885	0.0146356
946.963	0.0145747
947.041	0.0145890
947.119	0.0147169
947.197	0.0146945
947.275	0.0148196
947.353	0.0147751
947.432	0.0147578
947.510	0.0147372
947.588	0.0147783
947.666	0.0146296
947.744	0.0146709
947.822	0.0146901
947.900	0.0146828
947.978	0.0147293
948.057	0.0146920
948.135	0.0147553
948.213	0.0147661
948.291	0.0147645
948.369	0.0146886
948.447	0.0145441
948.525	0.0145167
948.603	0.0146722
948.682	0.0147536
948.760	0.0146210
948.838	0.0146648
948.916	0.0148157
948.994	0.0147309
949.072	0.0146692
949.150	0.0147362
949.228	0.0147504
949.307	0.0145750
949.385	0.0146304
949.463	0.0146694
949.541	0.0146662
949.619	0.0146489
949.697	0.0146928
949.775	0.0146419
949.853	0.0146876
949.932	0.0147924
950.010	0.0147832
950.088	0.0147632
950.166	0.0147121
950.244	0.0148050
950.322	0.0146739
950.400	0.0147682
950.478	0.0146968
950.557	0.0148180
950.635	0.0147321
950.713	0.0149023
950.791	0.0149082
950.869	0.0147438
950.947	0.0147211
951.025	0.0148385
951.103	0.0148484
951.182	0.0148260
951.260	0.0147263
951.338	0.0147673
951.416	0.0147884
951.494	0.0147578
951.572	0.0148106
951.650	0.0147998
951.728	0.0147677
951.807	0.0146317
951.885	0.0147482
951.963	0.0147673
952.041	0.0147408
952.119	0.0147775
952.197	0.0148288
952.275	0.0146806
952.353	0.0146377
952.432	0.0146391
952.510	0.0146722
952.588	0.0146814
952.666	0.0147087
952.744	0.0145693
952.822	0.0147511
952.900	0.0147650
952.978	0.0146497
953.057	0.0147231
953.135	0.0146079
953.213	0.0147253
953.291	0.0148654
953.369	0.0148096
953.447	0.0146897
953.525	0.0147250
953.603	0.0147482
953.682	0.0148370
953.760	0.0147107
953.838	0.0148292
953.916	0.0148643
953.994	0.0149453
954.072	0.0148949
954.150	0.0148441
954.228	0.0148004
954.307	0.0147655
954.385	0.0148042
954.463	0.0149823
954.541	0.0148157
954.619	0.0147636
954.697	0.0147861
954.775	0.0148083
954.853	0.0147263
954.932	0.0148048
955.010	0.0147980
955.088	0.0146827
955.166	0.0145157
955.244	0.0147121
955.322	0.0147443
955.400	0.0146249
955.478	0.0146168
955.557	0.0147560
955.635	0.0147308
955.713	0.0147086
955.791	0.0146992
955.869	0.0148182
955.947	0.0149342
956.025	0.0146907
956.103	0.0146987
956.182	0.0148370
956.260	0.0148989
956.338	0.0147973
956.416	0.0149164
956.494	0.0148588
956.572	0.0148300
956.650	0.0148141
956.728	0.0148859
956.807	0.0148769
956.885	0.0147532
956.963	0.0147874
957.041	0.0147922
957.119	0.0148116
957.197	0.0147758
957.275	0.0147694
957.353	0.0147932
957.432	0.0147810
957.510	0.0148062
957.588	0.0146621
957.666	0.0148025
957.744	0.0146734
957.822	0.0147227
957.900	0.0146345
957.978	0.0146440
958.057	0.0148292
958.135	0.0147935
958.213	0.0147491
958.291	0.0148200
958.369	0.0147908
958.447	0.0147352
958.525	0.0148647
958.603	0.0146603
958.682	0.0147888
958.760	0.0148840
958.838	0.0147854
958.916	0.0148601
958.994	0.0148000
959.072	0.0148221
959.150	0.0148003
959.228	0.0147755
959.307	0.0147707
959.385	0.0146660
959.463	0.0146088
959.541	0.0147470
959.619	0.0147730
959.697	0.0147075
959.775	0.0146268
959.853	0.0144116
959.932	0.0145812
960.010	0.0145231
960.088	0.0144952
960.166	0.0144598
960.244	0.0143353
960.322	0.0143506
960.400	0.0145289
960.478	0.0145251
960.557	0.0144501
960.635	0.0145300
960.713	0.0144859
960.791	0.0144148
960.869	0.0144834
960.947	0.0145827
961.025	0.0145205
961.103	0.0144471
961.182	0.0145000
961.260	0.0145060
961.338	0.0144697
961.416	0.0145823
961.494	0.0147602
961.572	0.0147062
961.650	0.0146018
961.728	0.0145023
961.807	0.0145815
961.885	0.0146898
961.963	0.0146420
962.041	0.0146407
962.119	0.0147382
962.197	0.0146897
962.275	0.0145567
962.353	0.0144620
962.432	0.0145581
962.510	0.0146543
962.588	0.0145857
962.666	0.0144251
962.744	0.0145987
962.822	0.0146120
962.900	0.0146008
962.978	0.0146256
963.057	0.0147466
963.135	0.0146603
963.213	0.0146371
963.291	0.0146946
963.369	0.0146928
963.447	0.0146109
963.525	0.0146804
963.603	0.0147653
963.682	0.0148202
963.760	0.0147943
963.838	0.0147582
963.916	0.0148125
963.994	0.0149318
964.072	0.0148024
964.150	0.0148279
964.228	0.0147004
964.307	0.0147504
964.385	0.0147465
964.463	0.0146873
964.541	0.0146890
964.619	0.0145922
964.697	0.0144881
964.775	0.0144579
964.853	0.0144687
964.932	0.0145103
965.010	0.0144860
965.088	0.0144188
965.166	0.0143539
965.244	0.0145341
965.322	0.0143987
965.400	0.0144646
965.478	0.0145724
965.557	0.0145507
965.635	0.0144749
965.713	0.0146298
965.791	0.0146554
965.869	0.0144471
965.947	0.0147278
966.025	0.0146815
966.103	0.0146438
966.182	0.0147507
966.260	0.0145922
966.338	0.0146881
966.416	0.0146026
966.494	0.0145497
966.572	0.0146251
966.650	0.0146632
966.728	0.0145145
966.807	0.0146077
966.885	0.0146964
966.963	0.0145012
967.041	0.0145760
967.119	0.0148122
967.197	0.0145909
967.275	0.0146066
967.353	0.0147321
967.432	0.0147680
967.510	0.0147128
967.588	0.0146784
967.666	0.0147340
967.744	0.0147083
967.822	0.0147547
967.900	0.0148352
967.978	0.0148736
968.057	0.0147423
968.135	0.0147298
968.213	0.0147116
968.291	0.0148177
968.369	0.0148518
968.447	0.0148879
968.525	0.0147345
968.603	0.0148200
968.682	0.0146707
968.760	0.0147617
968.838	0.0145936
968.916	0.0146774
968.994	0.0147207
969.072	0.0146814
969.150	0.0145849
969.228	0.0145461
969.307	0.0146430
969.385	0.0147044
969.463	0.0146386
969.541	0.0146032
969.619	0.0146215
969.697	0.0145309
969.775	0.0145828
969.853	0.0146452
969.932	0.0145141
