05/14/2022	19:32:45	Ver.	4.1	UNKNOWN
Optical Delay	650.009681	Delta X		0.078125	Sweeps	1	Scan Rate	0/0
Coordinates	Axis 1	NaN	Axis 2	NaN	Axis 3	NaN	Axis 4	NaN	Axis 5	NaN	Axis 6	0.000000
TX Power	0.000000	RX Power	0.000000

650.010	0.0141457
650.088	0.0141103
650.166	0.0141263
650.244	0.0139738
650.322	0.0140945
650.400	0.0140967
650.478	0.0141171
650.557	0.0141131
650.635	0.0141124
650.713	0.0140867
650.791	0.0141329
650.869	0.0141488
650.947	0.0140134
651.025	0.0140313
651.103	0.0140974
651.182	0.0139765
651.260	0.0140725
651.338	0.0141435
651.416	0.0140201
651.494	0.0139703
651.572	0.0140064
651.650	0.0140302
651.728	0.0139829
651.807	0.0140182
651.885	0.0138718
651.963	0.0140472
652.041	0.0140746
652.119	0.0139208
652.197	0.0138965
652.275	0.0138368
652.353	0.0138377
652.432	0.0139265
652.510	0.0140205
652.588	0.0139382
652.666	0.0139052
652.744	0.0139277
652.822	0.0138624
652.900	0.0138591
652.978	0.0138371
653.057	0.0139006
653.135	0.0139236
653.213	0.0138151
653.291	0.0138179
653.369	0.0139540
653.447	0.0137971
653.525	0.0138605
653.603	0.0140562
653.682	0.0139133
653.760	0.0139314
653.838	0.0138857
653.916	0.0139531
653.994	0.0139487
654.072	0.0139594
654.150	0.0138496
654.228	0.0140122
654.307	0.0140361
654.385	0.0139398
654.463	0.0138910
654.541	0.0139429
654.619	0.0139880
654.697	0.0138747
654.775	0.0140005
654.853	0.0139586
654.932	0.0139809
655.010	0.0140074
655.088	0.0141195
655.166	0.0140613
655.244	0.0140770
655.322	0.0139187
655.400	0.0139464
655.478	0.0140703
655.557	0.0140360
655.635	0.0142974
655.713	0.0140590
655.791	0.0139787
655.869	0.0140220
655.947	0.0141465
656.025	0.0141273
656.103	0.0141927
656.182	0.0140879
656.260	0.0140849
656.338	0.0141743
656.416	0.0142676
656.494	0.0140831
656.572	0.0141111
656.650	0.0140424
656.728	0.0142047
656.807	0.0139827
656.885	0.0140410
656.963	0.0139853
657.041	0.0141332
657.119	0.0141218
657.197	0.0140450
657.275	0.0139821
657.353	0.0139165
657.432	0.0140514
657.510	0.0140515
657.588	0.0140815
657.666	0.0139938
657.744	0.0140115
657.822	0.0140839
657.900	0.0141219
657.978	0.0140186
658.057	0.0140729
658.135	0.0140942
658.213	0.0142560
658.291	0.0141264
658.369	0.0141176
658.447	0.0142063
658.525	0.0141952
658.603	0.0140187
658.682	0.0141756
658.760	0.0142551
658.838	0.0142371
658.916	0.0144193
658.994	0.0142791
659.072	0.0142675
659.150	0.0143475
659.228	0.0142673
659.307	0.0142839
659.385	0.0142728
659.463	0.0141407
659.541	0.0142799
659.619	0.0141871
659.697	0.0142722
659.775	0.0141984
659.853	0.0142228
659.932	0.0142963
660.010	0.0143176
660.088	0.0144059
660.166	0.0142099
660.244	0.0144005
660.322	0.0144683
660.400	0.0142364
660.478	0.0141808
660.557	0.0143086
660.635	0.0142814
660.713	0.0143391
660.791	0.0144056
660.869	0.0141896
660.947	0.0143417
661.025	0.0142992
661.103	0.0142197
661.182	0.0141238
661.260	0.0142826
661.338	0.0143510
661.416	0.0142188
661.494	0.0143662
661.572	0.0142122
661.650	0.0141388
661.728	0.0141566
661.807	0.0144008
661.885	0.0142394
661.963	0.0141872
662.041	0.0143613
662.119	0.0141534
662.197	0.0141785
662.275	0.0142045
662.353	0.0141913
662.432	0.0142049
662.510	0.0140452
662.588	0.0140091
662.666	0.0141898
662.744	0.0142972
662.822	0.0142112
662.900	0.0142063
662.978	0.0142608
663.057	0.0142538
663.135	0.0144373
663.213	0.0144945
663.291	0.0146304
663.369	0.0147814
663.447	0.0147080
663.525	0.0147410
663.603	0.0149528
663.682	0.0148289
663.760	0.0148988
663.838	0.0148792
663.916	0.0148953
663.994	0.0147192
664.072	0.0147171
664.150	0.0145607
664.228	0.0145830
664.307	0.0143575
664.385	0.0142966
664.463	0.0140427
664.541	0.0137984
664.619	0.0136221
664.697	0.0136302
664.775	0.0134984
664.853	0.0133875
664.932	0.0132140
665.010	0.0132092
665.088	0.0131551
665.166	0.0129057
665.244	0.0129681
665.322	0.0130940
665.400	0.0130604
665.478	0.0131631
665.557	0.0133634
665.635	0.0133672
665.713	0.0137220
665.791	0.0138544
665.869	0.0142663
665.947	0.0144669
666.025	0.0148324
666.103	0.0149533
666.182	0.0153883
666.260	0.0154983
666.338	0.0157032
666.416	0.0159005
666.494	0.0160956
666.572	0.0162974
666.650	0.0162180
666.728	0.0162311
666.807	0.0162035
666.885	0.0163454
666.963	0.0160745
667.041	0.0157779
667.119	0.0156046
667.197	0.0151844
667.275	0.0149456
667.353	0.0144774
667.432	0.0139902
667.510	0.0136813
667.588	0.0132702
667.666	0.0128236
667.744	0.0124887
667.822	0.0122829
667.900	0.0119747
667.978	0.0117706
668.057	0.0116512
668.135	0.0115486
668.213	0.0113469
668.291	0.0113941
668.369	0.0114971
668.447	0.0116939
668.525	0.0116686
668.603	0.0120996
668.682	0.0123830
668.760	0.0127569
668.838	0.0130405
668.916	0.0135879
668.994	0.0140312
669.072	0.0144852
669.150	0.0149796
669.228	0.0155415
669.307	0.0160870
669.385	0.0165456
669.463	0.0170132
669.541	0.0172640
669.619	0.0175936
669.697	0.0178790
669.775	0.0181232
669.853	0.0180377
669.932	0.0179644
670.010	0.0178725
670.088	0.0177348
670.166	0.0174313
670.244	0.0168518
670.322	0.0164249
670.400	0.0158476
670.478	0.0152037
670.557	0.0145373
670.635	0.0140168
670.713	0.0134283
670.791	0.0128594
670.869	0.0122631
670.947	0.0116588
671.025	0.0113106
671.103	0.0107876
671.182	0.0105475
671.260	0.0102075
671.338	0.0101936
671.416	0.0100854
671.494	0.0100273
671.572	0.0102103
671.650	0.0104523
671.728	0.0108784
671.807	0.0111501
671.885	0.0115772
671.963	0.0121308
672.041	0.0126633
672.119	0.0132027
672.197	0.0137834
672.275	0.0143089
672.353	0.0147821
672.432	0.0153404
672.510	0.0158249
672.588	0.0161359
672.666	0.0164632
672.744	0.0168810
672.822	0.0171063
672.900	0.0171204
672.978	0.0171309
673.057	0.0172427
673.135	0.0169352
673.213	0.0169814
673.291	0.0167101
673.369	0.0165456
673.447	0.0162405
673.525	0.0158981
673.603	0.0156623
673.682	0.0153480
673.760	0.0148855
673.838	0.0146168
673.916	0.0141270
673.994	0.0136465
674.072	0.0134125
674.150	0.0133524
674.228	0.0128870
674.307	0.0126711
674.385	0.0124892
674.463	0.0123716
674.541	0.0122031
674.619	0.0122269
674.697	0.0123249
674.775	0.0122472
674.853	0.0123682
674.932	0.0124289
675.010	0.0126400
675.088	0.0126711
675.166	0.0127973
675.244	0.0127950
675.322	0.0129373
675.400	0.0129317
675.478	0.0129948
675.557	0.0131422
675.635	0.0131796
675.713	0.0130008
675.791	0.0130138
675.869	0.0130429
675.947	0.0130696
676.025	0.0131313
676.103	0.0129167
676.182	0.0130277
676.260	0.0129908
676.338	0.0130459
676.416	0.0129970
676.494	0.0130192
676.572	0.0130932
676.650	0.0132054
676.728	0.0134052
676.807	0.0134983
676.885	0.0134944
676.963	0.0136407
677.041	0.0137619
677.119	0.0139870
677.197	0.0141982
677.275	0.0146744
677.353	0.0147257
677.432	0.0148864
677.510	0.0152863
677.588	0.0156012
677.666	0.0157907
677.744	0.0159466
677.822	0.0162570
677.900	0.0165323
677.978	0.0166489
678.057	0.0165913
678.135	0.0167210
678.213	0.0166985
678.291	0.0166525
678.369	0.0164984
678.447	0.0162720
678.525	0.0161292
678.603	0.0160123
678.682	0.0156866
678.760	0.0153244
678.838	0.0149128
678.916	0.0143725
678.994	0.0139082
679.072	0.0134641
679.150	0.0132126
679.228	0.0126882
679.307	0.0122585
679.385	0.0118052
679.463	0.0115563
679.541	0.0113084
679.619	0.0111688
679.697	0.0110959
679.775	0.0108893
679.853	0.0110206
679.932	0.0110456
680.010	0.0111988
680.088	0.0114775
680.166	0.0117532
680.244	0.0121459
680.322	0.0124586
680.400	0.0129400
680.478	0.0133175
680.557	0.0138355
680.635	0.0143387
680.713	0.0149490
680.791	0.0153770
680.869	0.0158035
680.947	0.0163061
681.025	0.0166965
681.103	0.0171246
681.182	0.0173229
681.260	0.0175142
681.338	0.0176691
681.416	0.0177052
681.494	0.0176148
681.572	0.0177020
681.650	0.0174492
681.728	0.0171848
681.807	0.0169856
681.885	0.0166899
681.963	0.0160002
682.041	0.0155228
682.119	0.0151123
682.197	0.0146381
682.275	0.0140815
682.353	0.0134304
682.432	0.0130272
682.510	0.0125574
682.588	0.0122063
682.666	0.0121400
682.744	0.0118188
682.822	0.0117682
682.900	0.0116902
682.978	0.0115912
683.057	0.0117713
683.135	0.0121786
683.213	0.0123091
683.291	0.0123795
683.369	0.0127847
683.447	0.0130482
683.525	0.0133872
683.603	0.0136884
683.682	0.0140247
683.760	0.0143465
683.838	0.0144273
683.916	0.0147742
683.994	0.0149636
684.072	0.0152042
684.150	0.0152216
684.228	0.0154149
684.307	0.0156639
684.385	0.0156585
684.463	0.0156335
684.541	0.0156744
684.619	0.0156020
684.697	0.0155248
684.775	0.0154381
684.853	0.0152267
684.932	0.0153258
685.010	0.0150228
685.088	0.0149506
685.166	0.0148947
685.244	0.0146127
685.322	0.0145487
685.400	0.0144887
685.478	0.0145019
685.557	0.0143607
685.635	0.0143125
685.713	0.0142776
685.791	0.0142267
685.869	0.0140495
685.947	0.0140681
686.025	0.0137690
686.103	0.0138556
686.182	0.0137135
686.260	0.0134846
686.338	0.0135350
686.416	0.0134813
686.494	0.0132773
686.572	0.0132429
686.650	0.0131316
686.728	0.0130468
686.807	0.0128196
686.885	0.0129122
686.963	0.0126345
687.041	0.0125591
687.119	0.0125772
687.197	0.0125547
687.275	0.0125849
687.353	0.0125735
687.432	0.0125408
687.510	0.0127331
687.588	0.0126282
687.666	0.0127477
687.744	0.0128651
687.822	0.0129992
687.900	0.0130686
687.978	0.0132334
688.057	0.0132755
688.135	0.0136192
688.213	0.0136203
688.291	0.0140005
688.369	0.0143180
688.447	0.0144896
688.525	0.0147959
688.603	0.0149807
688.682	0.0154039
688.760	0.0155343
688.838	0.0158031
688.916	0.0161328
688.994	0.0163625
689.072	0.0166290
689.150	0.0167212
689.228	0.0167638
689.307	0.0167732
689.385	0.0166584
689.463	0.0167401
689.541	0.0167823
689.619	0.0166605
689.697	0.0164805
689.775	0.0162836
689.853	0.0160543
689.932	0.0158814
690.010	0.0157920
690.088	0.0155173
690.166	0.0151120
690.244	0.0148024
690.322	0.0145195
690.400	0.0144086
690.478	0.0140327
690.557	0.0139885
690.635	0.0135889
690.713	0.0133845
690.791	0.0132826
690.869	0.0130590
690.947	0.0129994
691.025	0.0129168
691.103	0.0128598
691.182	0.0124892
691.260	0.0125154
691.338	0.0123552
691.416	0.0122255
691.494	0.0121197
691.572	0.0122069
691.650	0.0121523
691.728	0.0122132
691.807	0.0122419
691.885	0.0123203
691.963	0.0123757
692.041	0.0122708
692.119	0.0123295
692.197	0.0123801
692.275	0.0125150
692.353	0.0124105
692.432	0.0124886
692.510	0.0124810
692.588	0.0124956
692.666	0.0126260
692.744	0.0126708
692.822	0.0127770
692.900	0.0131049
692.978	0.0132687
693.057	0.0133153
693.135	0.0136760
693.213	0.0140453
693.291	0.0142416
693.369	0.0145783
693.447	0.0148780
693.525	0.0151588
693.603	0.0156772
693.682	0.0160098
693.760	0.0163918
693.838	0.0167963
693.916	0.0171393
693.994	0.0174842
694.072	0.0178585
694.150	0.0180289
694.228	0.0182599
694.307	0.0184044
694.385	0.0185968
694.463	0.0185574
694.541	0.0185594
694.619	0.0184988
694.697	0.0182437
694.775	0.0180983
694.853	0.0178805
694.932	0.0176778
695.010	0.0171577
695.088	0.0168581
695.166	0.0162945
695.244	0.0159306
695.322	0.0154189
695.400	0.0149287
695.478	0.0143355
695.557	0.0139327
695.635	0.0131491
695.713	0.0125941
695.791	0.0119348
695.869	0.0115489
695.947	0.0109449
696.025	0.0104808
696.103	0.0102105
696.182	0.00980728
696.260	0.00968086
696.338	0.00952431
696.416	0.00961731
696.494	0.00950134
696.572	0.00972336
696.650	0.00994873
696.728	0.0103478
696.807	0.0108614
696.885	0.0113536
696.963	0.0117636
697.041	0.0122136
697.119	0.0126807
697.197	0.0133089
697.275	0.0138389
697.353	0.0141000
697.432	0.0145511
697.510	0.0150124
697.588	0.0153079
697.666	0.0155110
697.744	0.0157000
697.822	0.0157754
697.900	0.0158164
697.978	0.0156429
698.057	0.0156866
698.135	0.0157021
698.213	0.0153197
698.291	0.0152551
698.369	0.0151954
698.447	0.0148643
698.525	0.0149672
698.603	0.0146996
698.682	0.0146481
698.760	0.0147313
698.838	0.0145824
698.916	0.0145454
698.994	0.0148031
699.072	0.0147457
699.150	0.0148721
699.228	0.0148750
699.307	0.0151368
699.385	0.0152168
699.463	0.0154401
699.541	0.0156162
699.619	0.0156989
699.697	0.0158967
699.775	0.0159203
699.853	0.0159393
699.932	0.0162191
700.010	0.0162358
700.088	0.0164175
700.166	0.0164558
700.244	0.0163319
700.322	0.0161985
700.400	0.0162898
700.478	0.0161898
700.557	0.0159441
700.635	0.0158863
700.713	0.0158446
700.791	0.0156225
700.869	0.0153846
700.947	0.0151275
701.025	0.0149132
701.103	0.0147082
701.182	0.0144263
701.260	0.0142852
701.338	0.0139451
701.416	0.0138326
701.494	0.0134289
701.572	0.0131974
701.650	0.0129319
701.728	0.0125247
701.807	0.0122099
701.885	0.0118766
701.963	0.0116611
702.041	0.0116490
702.119	0.0113638
702.197	0.0112688
702.275	0.0112374
702.353	0.0110685
702.432	0.0111051
702.510	0.0110941
702.588	0.0113776
702.666	0.0114996
702.744	0.0117234
702.822	0.0119209
702.900	0.0121962
702.978	0.0124756
703.057	0.0126497
703.135	0.0130182
703.213	0.0131809
703.291	0.0135260
703.369	0.0137088
703.447	0.0139452
703.525	0.0142853
703.603	0.0144374
703.682	0.0145878
703.760	0.0148421
703.838	0.0150705
703.916	0.0151664
703.994	0.0152895
704.072	0.0155012
704.150	0.0156824
704.228	0.0157009
704.307	0.0158591
704.385	0.0159558
704.463	0.0159563
704.541	0.0161223
704.619	0.0163322
704.697	0.0163477
704.775	0.0165031
704.853	0.0167284
704.932	0.0167271
705.010	0.0168373
705.088	0.0168395
705.166	0.0168316
705.244	0.0168410
705.322	0.0167635
705.400	0.0165435
705.478	0.0164182
705.557	0.0161989
705.635	0.0158759
705.713	0.0155456
705.791	0.0152259
705.869	0.0148117
705.947	0.0144759
706.025	0.0141997
706.103	0.0138336
706.182	0.0137402
706.260	0.0132896
706.338	0.0131319
706.416	0.0129549
706.494	0.0128983
706.572	0.0126667
706.650	0.0126412
706.728	0.0125610
706.807	0.0126274
706.885	0.0126169
706.963	0.0126774
707.041	0.0128971
707.119	0.0128575
707.197	0.0130212
707.275	0.0131112
707.353	0.0132008
707.432	0.0133451
707.510	0.0133569
707.588	0.0133408
707.666	0.0135618
707.744	0.0134245
707.822	0.0134834
707.900	0.0133603
707.978	0.0131920
708.057	0.0130289
708.135	0.0129715
708.213	0.0128584
708.291	0.0128072
708.369	0.0126359
708.447	0.0125218
708.525	0.0126633
708.603	0.0125529
708.682	0.0126083
708.760	0.0128002
708.838	0.0127809
708.916	0.0129236
708.994	0.0132268
709.072	0.0133614
709.150	0.0135933
709.228	0.0138574
709.307	0.0138736
709.385	0.0141711
709.463	0.0145355
709.541	0.0146382
709.619	0.0146759
709.697	0.0147493
709.775	0.0150689
709.853	0.0153751
709.932	0.0151945
710.010	0.0154184
710.088	0.0156208
710.166	0.0154504
710.244	0.0157131
710.322	0.0158329
710.400	0.0158723
710.478	0.0157182
710.557	0.0160425
710.635	0.0159826
710.713	0.0160471
710.791	0.0161784
710.869	0.0160115
710.947	0.0161848
711.025	0.0161279
711.103	0.0160055
711.182	0.0160175
711.260	0.0159675
711.338	0.0157787
711.416	0.0155952
711.494	0.0153313
711.572	0.0153702
711.650	0.0150681
711.728	0.0148717
711.807	0.0144821
711.885	0.0141853
711.963	0.0139674
712.041	0.0137850
712.119	0.0135093
712.197	0.0134338
712.275	0.0132847
712.353	0.0131538
712.432	0.0130646
712.510	0.0130799
712.588	0.0131609
712.666	0.0132620
712.744	0.0135472
712.822	0.0135590
712.900	0.0137855
712.978	0.0138692
713.057	0.0139606
713.135	0.0141261
713.213	0.0142580
713.291	0.0143672
713.369	0.0143523
713.447	0.0143507
713.525	0.0147031
713.603	0.0145267
713.682	0.0144681
713.760	0.0143349
713.838	0.0143414
713.916	0.0142584
713.994	0.0140335
714.072	0.0142194
714.150	0.0140308
714.228	0.0139213
714.307	0.0140781
714.385	0.0139564
714.463	0.0136993
714.541	0.0137994
714.619	0.0136536
714.697	0.0137453
714.775	0.0136641
714.853	0.0133620
714.932	0.0135509
715.010	0.0134784
715.088	0.0135062
715.166	0.0135584
715.244	0.0134567
715.322	0.0135677
715.400	0.0136704
715.478	0.0136556
715.557	0.0135942
715.635	0.0137127
715.713	0.0137633
715.791	0.0137068
715.869	0.0140411
715.947	0.0140394
716.025	0.0141597
716.103	0.0142302
716.182	0.0143785
716.260	0.0144262
716.338	0.0146528
716.416	0.0147292
716.494	0.0149054
716.572	0.0148914
716.650	0.0148734
716.728	0.0151560
716.807	0.0153910
716.885	0.0150900
716.963	0.0152779
717.041	0.0151731
717.119	0.0153922
717.197	0.0152985
717.275	0.0153819
717.353	0.0152867
717.432	0.0154187
717.510	0.0154012
717.588	0.0154456
717.666	0.0153985
717.744	0.0154089
717.822	0.0153535
717.900	0.0153568
717.978	0.0152194
718.057	0.0153025
718.135	0.0151246
718.213	0.0149165
718.291	0.0147898
718.369	0.0147231
718.447	0.0145302
718.525	0.0143983
718.603	0.0142373
718.682	0.0141565
718.760	0.0140810
718.838	0.0138463
718.916	0.0135051
718.994	0.0135605
719.072	0.0133479
719.150	0.0131448
719.228	0.0129765
719.307	0.0129838
719.385	0.0127715
719.463	0.0127264
719.541	0.0127947
719.619	0.0124935
719.697	0.0125497
719.775	0.0123991
719.853	0.0125958
719.932	0.0125999
720.010	0.0127269
720.088	0.0127841
720.166	0.0127746
720.244	0.0128769
720.322	0.0130103
720.400	0.0130538
720.478	0.0132477
720.557	0.0133083
720.635	0.0132239
720.713	0.0136124
720.791	0.0137512
720.869	0.0138223
720.947	0.0139185
721.025	0.0139544
721.103	0.0142091
721.182	0.0142867
721.260	0.0145487
721.338	0.0145943
721.416	0.0148078
721.494	0.0148630
721.572	0.0148634
721.650	0.0151417
721.728	0.0152146
721.807	0.0152087
721.885	0.0153156
721.963	0.0150804
722.041	0.0153675
722.119	0.0154175
722.197	0.0153417
722.275	0.0153014
722.353	0.0154520
722.432	0.0151776
722.510	0.0152085
722.588	0.0151392
722.666	0.0150563
722.744	0.0150490
722.822	0.0150700
722.900	0.0149742
722.978	0.0149365
723.057	0.0148222
723.135	0.0148355
723.213	0.0147499
723.291	0.0146798
723.369	0.0145142
723.447	0.0146168
723.525	0.0144415
723.603	0.0145260
723.682	0.0144446
723.760	0.0144962
723.838	0.0143529
723.916	0.0142738
723.994	0.0142982
724.072	0.0142628
724.150	0.0143545
724.228	0.0142575
724.307	0.0142322
724.385	0.0140278
724.463	0.0140687
724.541	0.0139955
724.619	0.0140318
724.697	0.0138369
724.775	0.0136974
724.853	0.0136912
724.932	0.0135825
725.010	0.0133995
725.088	0.0133325
725.166	0.0133356
725.244	0.0132780
725.322	0.0133748
725.400	0.0134286
725.478	0.0134220
725.557	0.0136122
725.635	0.0137830
725.713	0.0139017
725.791	0.0140334
725.869	0.0140260
725.947	0.0141140
726.025	0.0142553
726.103	0.0143352
726.182	0.0145129
726.260	0.0146021
726.338	0.0146410
726.416	0.0147917
726.494	0.0147392
726.572	0.0147054
726.650	0.0147349
726.728	0.0147439
726.807	0.0147336
726.885	0.0145963
726.963	0.0144505
727.041	0.0144944
727.119	0.0143015
727.197	0.0142180
727.275	0.0141606
727.353	0.0138908
727.432	0.0139306
727.510	0.0138706
727.588	0.0137691
727.666	0.0136722
727.744	0.0136525
727.822	0.0137848
727.900	0.0137059
727.978	0.0136546
728.057	0.0137849
728.135	0.0137028
728.213	0.0137680
728.291	0.0138164
728.369	0.0138047
728.447	0.0139475
728.525	0.0139436
728.603	0.0140451
728.682	0.0141542
728.760	0.0142102
728.838	0.0142041
728.916	0.0142104
728.994	0.0141946
729.072	0.0142719
729.150	0.0143289
729.228	0.0143270
729.307	0.0143867
729.385	0.0143813
729.463	0.0144502
729.541	0.0145424
729.619	0.0145640
729.697	0.0145301
729.775	0.0146529
729.853	0.0147072
729.932	0.0147554
730.010	0.0149370
730.088	0.0148747
730.166	0.0147988
730.244	0.0147722
730.322	0.0149030
730.400	0.0147281
730.478	0.0145285
730.557	0.0145367
730.635	0.0143961
730.713	0.0142827
730.791	0.0143356
730.869	0.0141010
730.947	0.0138520
731.025	0.0136720
731.103	0.0137171
731.182	0.0135108
731.260	0.0133810
731.338	0.0132882
731.416	0.0132424
731.494	0.0132753
731.572	0.0132172
731.650	0.0132162
731.728	0.0131271
731.807	0.0133161
731.885	0.0133707
731.963	0.0135871
732.041	0.0136913
732.119	0.0138034
732.197	0.0139118
732.275	0.0141022
732.353	0.0140853
732.432	0.0143121
732.510	0.0146040
732.588	0.0144814
732.666	0.0146783
732.744	0.0147160
732.822	0.0146596
732.900	0.0149212
732.978	0.0148853
733.057	0.0148934
733.135	0.0148501
733.213	0.0147182
733.291	0.0147702
733.369	0.0147552
733.447	0.0146374
733.525	0.0146178
733.603	0.0147670
733.682	0.0145950
733.760	0.0144377
733.838	0.0144544
733.916	0.0143156
733.994	0.0142780
734.072	0.0142404
734.150	0.0141176
734.228	0.0140500
734.307	0.0139628
734.385	0.0139367
734.463	0.0139493
734.541	0.0138321
734.619	0.0137302
734.697	0.0136908
734.775	0.0136657
734.853	0.0136654
734.932	0.0136293
735.010	0.0136143
735.088	0.0136241
735.166	0.0136563
735.244	0.0137678
735.322	0.0136472
735.400	0.0136256
735.478	0.0136098
735.557	0.0137247
735.635	0.0137213
735.713	0.0137877
735.791	0.0138329
735.869	0.0141042
735.947	0.0138935
736.025	0.0142203
736.103	0.0142815
736.182	0.0141846
736.260	0.0143980
736.338	0.0143240
736.416	0.0144274
736.494	0.0145384
736.572	0.0145826
736.650	0.0145644
736.728	0.0146127
736.807	0.0145513
736.885	0.0145644
736.963	0.0145805
737.041	0.0145747
737.119	0.0145556
737.197	0.0146852
737.275	0.0147754
737.353	0.0148067
737.432	0.0148176
737.510	0.0147468
737.588	0.0147930
737.666	0.0147977
737.744	0.0149424
737.822	0.0148044
737.900	0.0149570
737.978	0.0149319
738.057	0.0148803
738.135	0.0148772
738.213	0.0148406
738.291	0.0147771
738.369	0.0146879
738.447	0.0145152
738.525	0.0145606
738.603	0.0143652
738.682	0.0144168
738.760	0.0142724
738.838	0.0141967
738.916	0.0142744
738.994	0.0142785
739.072	0.0143423
739.150	0.0142339
739.228	0.0142960
739.307	0.0141664
739.385	0.0142596
739.463	0.0141068
739.541	0.0141630
739.619	0.0144290
739.697	0.0143207
739.775	0.0141018
739.853	0.0140338
739.932	0.0141844
740.010	0.0142021
740.088	0.0139787
740.166	0.0138205
740.244	0.0137773
740.322	0.0137993
740.400	0.0138195
740.478	0.0136364
740.557	0.0135917
740.635	0.0135654
740.713	0.0134801
740.791	0.0134788
740.869	0.0134295
740.947	0.0134505
741.025	0.0133356
741.103	0.0134106
741.182	0.0134646
741.260	0.0136328
741.338	0.0136322
741.416	0.0136417
741.494	0.0137389
741.572	0.0138942
741.650	0.0138540
741.728	0.0140927
741.807	0.0140720
741.885	0.0142029
741.963	0.0141590
742.041	0.0141282
742.119	0.0141384
742.197	0.0143449
742.275	0.0143260
742.353	0.0143617
742.432	0.0144054
742.510	0.0144436
742.588	0.0142870
742.666	0.0143276
742.744	0.0145837
742.822	0.0145435
742.900	0.0144857
742.978	0.0145434
743.057	0.0147009
743.135	0.0147267
743.213	0.0147314
743.291	0.0146468
743.369	0.0145506
743.447	0.0145246
743.525	0.0144711
743.603	0.0144008
743.682	0.0145366
743.760	0.0143372
743.838	0.0144489
743.916	0.0142653
743.994	0.0142133
744.072	0.0144101
744.150	0.0143405
744.228	0.0143640
744.307	0.0142663
744.385	0.0141251
744.463	0.0141393
744.541	0.0142367
744.619	0.0141615
744.697	0.0142356
744.775	0.0143042
744.853	0.0141682
744.932	0.0141482
745.010	0.0142326
745.088	0.0140623
745.166	0.0141258
745.244	0.0139539
745.322	0.0141167
745.400	0.0140408
745.478	0.0140044
745.557	0.0139728
745.635	0.0141580
745.713	0.0140343
745.791	0.0141318
745.869	0.0140740
745.947	0.0139578
746.025	0.0140305
746.103	0.0139648
746.182	0.0141233
746.260	0.0141439
746.338	0.0139620
746.416	0.0140037
746.494	0.0139995
746.572	0.0141037
746.650	0.0139471
746.728	0.0139268
746.807	0.0139837
746.885	0.0140003
746.963	0.0140047
747.041	0.0138638
747.119	0.0138902
747.197	0.0139400
747.275	0.0138467
747.353	0.0139618
747.432	0.0138290
747.510	0.0139341
747.588	0.0140103
747.666	0.0138688
747.744	0.0137656
747.822	0.0138309
747.900	0.0137766
747.978	0.0138074
748.057	0.0137401
748.135	0.0137617
748.213	0.0137609
748.291	0.0137280
748.369	0.0138799
748.447	0.0136607
748.525	0.0138630
748.603	0.0137385
748.682	0.0138407
748.760	0.0139260
748.838	0.0139946
748.916	0.0139209
748.994	0.0140298
749.072	0.0140637
749.150	0.0141220
749.228	0.0142118
749.307	0.0141949
749.385	0.0142581
749.463	0.0141843
749.541	0.0142662
749.619	0.0143903
749.697	0.0142667
749.775	0.0143150
749.853	0.0141252
749.932	0.0142271
750.010	0.0140723
750.088	0.0141618
750.166	0.0142277
750.244	0.0142310
750.322	0.0141353
750.400	0.0141238
750.478	0.0140839
750.557	0.0141035
750.635	0.0141338
750.713	0.0141638
750.791	0.0141986
750.869	0.0143114
750.947	0.0142195
751.025	0.0142641
751.103	0.0143213
751.182	0.0142814
751.260	0.0142897
751.338	0.0143723
751.416	0.0144392
751.494	0.0143259
751.572	0.0143263
751.650	0.0144299
751.728	0.0144366
751.807	0.0142496
751.885	0.0143430
751.963	0.0143172
752.041	0.0141984
752.119	0.0142754
752.197	0.0143291
752.275	0.0141868
752.353	0.0141991
752.432	0.0141271
752.510	0.0141035
752.588	0.0141440
752.666	0.0141625
752.744	0.0140173
752.822	0.0139628
752.900	0.0140782
752.978	0.0139948
753.057	0.0139621
753.135	0.0139988
753.213	0.0140384
753.291	0.0138774
753.369	0.0139520
753.447	0.0140453
753.525	0.0140535
753.603	0.0140749
753.682	0.0139735
753.760	0.0140558
753.838	0.0140160
753.916	0.0140312
753.994	0.0139071
754.072	0.0140292
754.150	0.0140386
754.228	0.0140371
754.307	0.0139697
754.385	0.0139796
754.463	0.0140269
754.541	0.0139789
754.619	0.0140835
754.697	0.0140049
754.775	0.0141418
754.853	0.0140868
754.932	0.0141785
755.010	0.0141033
755.088	0.0141210
755.166	0.0142097
755.244	0.0140817
755.322	0.0142352
755.400	0.0142567
755.478	0.0142059
755.557	0.0142569
755.635	0.0140582
755.713	0.0141739
755.791	0.0143990
755.869	0.0141984
755.947	0.0141811
756.025	0.0142319
756.103	0.0142107
756.182	0.0142499
756.260	0.0141829
756.338	0.0143654
756.416	0.0143937
756.494	0.0143395
756.572	0.0143181
756.650	0.0144513
756.728	0.0142812
756.807	0.0144030
756.885	0.0144616
756.963	0.0144279
757.041	0.0142755
757.119	0.0142816
757.197	0.0142747
757.275	0.0144318
757.353	0.0142287
757.432	0.0141070
757.510	0.0140784
757.588	0.0141588
757.666	0.0140363
757.744	0.0139053
757.822	0.0141898
757.900	0.0140630
757.978	0.0139756
758.057	0.0139970
758.135	0.0140016
758.213	0.0140524
758.291	0.0141393
758.369	0.0141570
758.447	0.0139677
758.525	0.0139507
758.603	0.0140988
758.682	0.0140658
758.760	0.0141031
758.838	0.0141393
758.916	0.0141113
758.994	0.0140221
759.072	0.0140866
759.150	0.0141325
759.228	0.0140050
759.307	0.0140005
759.385	0.0141383
759.463	0.0140710
759.541	0.0141582
759.619	0.0142086
759.697	0.0141922
759.775	0.0142115
759.853	0.0141401
759.932	0.0142654
760.010	0.0142624
760.088	0.0142018
760.166	0.0142087
760.244	0.0142202
760.322	0.0142493
760.400	0.0142035
760.478	0.0142365
760.557	0.0142634
760.635	0.0142354
760.713	0.0141969
760.791	0.0141180
760.869	0.0141042
760.947	0.0140947
761.025	0.0141583
761.103	0.0141042
761.182	0.0140422
761.260	0.0140239
761.338	0.0141353
761.416	0.0140755
761.494	0.0140729
761.572	0.0142072
761.650	0.0141857
761.728	0.0141756
761.807	0.0141343
761.885	0.0141664
761.963	0.0140701
762.041	0.0140061
762.119	0.0142065
762.197	0.0141867
762.275	0.0140977
762.353	0.0142376
762.432	0.0142152
762.510	0.0140092
762.588	0.0142518
762.666	0.0141745
762.744	0.0141785
762.822	0.0142807
762.900	0.0142858
762.978	0.0143903
763.057	0.0143467
763.135	0.0143842
763.213	0.0145552
763.291	0.0144793
763.369	0.0144389
763.447	0.0144133
763.525	0.0145422
763.603	0.0145866
763.682	0.0146555
763.760	0.0144805
763.838	0.0144831
763.916	0.0145229
763.994	0.0144348
764.072	0.0143636
764.150	0.0143433
764.228	0.0144066
764.307	0.0141863
764.385	0.0141122
764.463	0.0141698
764.541	0.0139687
764.619	0.0140345
764.697	0.0140633
764.775	0.0139716
764.853	0.0140546
764.932	0.0141448
765.010	0.0140215
765.088	0.0141640
765.166	0.0140466
765.244	0.0142071
765.322	0.0141182
765.400	0.0141304
765.478	0.0141120
765.557	0.0142857
765.635	0.0142523
765.713	0.0143282
765.791	0.0143929
765.869	0.0144232
765.947	0.0144344
766.025	0.0145387
766.103	0.0143381
766.182	0.0143585
766.260	0.0144862
766.338	0.0145864
766.416	0.0144675
766.494	0.0143608
766.572	0.0143867
766.650	0.0143418
766.728	0.0143422
766.807	0.0142415
766.885	0.0142327
766.963	0.0142472
767.041	0.0140976
767.119	0.0141831
767.197	0.0141155
767.275	0.0140866
767.353	0.0140433
767.432	0.0139167
767.510	0.0139479
767.588	0.0139496
767.666	0.0138769
767.744	0.0139642
767.822	0.0138899
767.900	0.0137624
767.978	0.0137578
768.057	0.0136481
768.135	0.0136636
768.213	0.0138021
768.291	0.0138197
768.369	0.0137292
768.447	0.0137008
768.525	0.0137964
768.603	0.0138076
768.682	0.0138142
768.760	0.0139677
768.838	0.0141019
768.916	0.0140734
768.994	0.0140876
769.072	0.0141780
769.150	0.0142423
769.228	0.0144631
769.307	0.0144424
769.385	0.0144299
769.463	0.0144120
769.541	0.0145518
769.619	0.0145712
769.697	0.0145294
769.775	0.0146859
769.853	0.0147520
769.932	0.0146937
770.010	0.0147443
770.088	0.0147861
770.166	0.0146753
770.244	0.0146017
770.322	0.0144483
770.400	0.0145782
770.478	0.0144725
770.557	0.0143558
770.635	0.0141825
770.713	0.0141295
770.791	0.0141374
770.869	0.0140813
770.947	0.0141021
771.025	0.0140556
771.103	0.0140865
771.182	0.0140620
771.260	0.0138615
771.338	0.0138445
771.416	0.0139866
771.494	0.0139938
771.572	0.0140649
771.650	0.0139838
771.728	0.0139484
771.807	0.0140797
771.885	0.0140546
771.963	0.0141656
772.041	0.0140681
772.119	0.0140735
772.197	0.0139642
772.275	0.0142464
772.353	0.0141305
772.432	0.0142540
772.510	0.0140989
772.588	0.0142551
772.666	0.0143391
772.744	0.0141473
772.822	0.0141831
772.900	0.0142990
772.978	0.0142036
773.057	0.0142502
773.135	0.0141382
773.213	0.0143339
773.291	0.0144884
773.369	0.0144363
773.447	0.0143582
773.525	0.0144840
773.603	0.0145519
773.682	0.0144785
773.760	0.0146301
773.838	0.0145679
773.916	0.0147712
773.994	0.0146906
774.072	0.0147118
774.150	0.0147080
774.228	0.0147691
774.307	0.0148569
774.385	0.0148429
774.463	0.0146902
774.541	0.0147498
774.619	0.0145185
774.697	0.0145581
774.775	0.0145277
774.853	0.0144012
774.932	0.0142599
775.010	0.0140993
775.088	0.0141943
775.166	0.0140598
775.244	0.0139144
775.322	0.0139369
775.400	0.0139355
775.478	0.0138234
775.557	0.0136437
775.635	0.0135643
775.713	0.0135255
775.791	0.0134894
775.869	0.0134159
775.947	0.0134098
776.025	0.0134507
776.103	0.0134311
776.182	0.0135872
776.260	0.0135006
776.338	0.0135270
776.416	0.0134296
776.494	0.0134641
776.572	0.0136067
776.650	0.0135792
776.728	0.0136060
776.807	0.0136749
776.885	0.0135981
776.963	0.0136615
777.041	0.0139119
777.119	0.0138987
777.197	0.0139579
777.275	0.0139209
777.353	0.0141554
777.432	0.0141372
777.510	0.0142230
777.588	0.0142659
777.666	0.0143720
777.744	0.0144423
777.822	0.0144049
777.900	0.0144382
777.978	0.0144071
778.057	0.0144823
778.135	0.0145574
778.213	0.0145782
778.291	0.0146231
778.369	0.0145701
778.447	0.0145515
778.525	0.0145439
778.603	0.0144913
778.682	0.0145738
778.760	0.0145271
778.838	0.0145383
778.916	0.0146217
778.994	0.0143008
779.072	0.0143922
779.150	0.0143539
779.228	0.0142817
779.307	0.0143396
779.385	0.0142211
779.463	0.0141975
779.541	0.0140254
779.619	0.0140272
779.697	0.0139288
779.775	0.0139231
779.853	0.0139297
779.932	0.0139800
780.010	0.0140120
780.088	0.0138628
780.166	0.0137197
780.244	0.0137747
780.322	0.0139192
780.400	0.0139896
780.478	0.0139195
780.557	0.0139761
780.635	0.0140984
780.713	0.0140521
780.791	0.0141575
780.869	0.0143227
780.947	0.0142788
781.025	0.0142949
781.103	0.0142902
781.182	0.0143003
781.260	0.0143011
781.338	0.0144416
781.416	0.0144352
781.494	0.0145438
781.572	0.0144176
781.650	0.0146537
781.728	0.0145141
781.807	0.0144846
781.885	0.0144851
781.963	0.0143929
782.041	0.0144209
782.119	0.0144530
782.197	0.0144141
782.275	0.0142507
782.353	0.0142661
782.432	0.0141069
782.510	0.0141415
782.588	0.0140887
782.666	0.0140487
782.744	0.0139925
782.822	0.0140273
782.900	0.0139578
782.978	0.0139698
783.057	0.0139546
783.135	0.0138418
783.213	0.0138153
783.291	0.0139215
783.369	0.0138562
783.447	0.0138094
783.525	0.0139851
783.603	0.0139040
783.682	0.0138762
783.760	0.0139439
783.838	0.0138986
783.916	0.0139542
783.994	0.0140746
784.072	0.0139185
784.150	0.0140694
784.228	0.0141129
784.307	0.0140789
784.385	0.0140742
784.463	0.0141069
784.541	0.0141405
784.619	0.0141631
784.697	0.0142883
784.775	0.0141869
784.853	0.0142877
784.932	0.0143011
785.010	0.0143046
785.088	0.0142479
785.166	0.0143426
785.244	0.0143074
785.322	0.0144696
785.400	0.0144868
785.478	0.0144775
785.557	0.0145545
785.635	0.0144956
785.713	0.0143127
785.791	0.0144133
785.869	0.0142872
785.947	0.0142324
786.025	0.0144959
786.103	0.0144489
786.182	0.0143043
786.260	0.0143899
786.338	0.0143857
786.416	0.0144017
786.494	0.0144760
786.572	0.0144269
786.650	0.0143296
786.728	0.0143360
786.807	0.0145464
786.885	0.0143039
786.963	0.0143206
787.041	0.0143964
787.119	0.0144012
787.197	0.0142941
787.275	0.0141640
787.353	0.0141907
787.432	0.0141955
787.510	0.0141925
787.588	0.0141927
787.666	0.0142056
787.744	0.0140062
787.822	0.0140718
787.900	0.0138363
787.978	0.0139541
788.057	0.0139390
788.135	0.0137846
788.213	0.0137971
788.291	0.0137188
788.369	0.0137540
788.447	0.0138486
788.525	0.0136311
788.603	0.0135942
788.682	0.0136314
788.760	0.0137395
788.838	0.0137119
788.916	0.0136785
788.994	0.0138812
789.072	0.0136913
789.150	0.0137782
789.228	0.0138274
789.307	0.0138529
789.385	0.0139147
789.463	0.0140276
789.541	0.0139650
789.619	0.0139934
789.697	0.0140534
789.775	0.0141882
789.853	0.0142866
789.932	0.0142829
790.010	0.0142775
790.088	0.0142387
790.166	0.0143456
790.244	0.0144492
790.322	0.0144218
790.400	0.0145311
790.478	0.0146481
790.557	0.0147327
790.635	0.0145038
790.713	0.0145586
790.791	0.0147225
790.869	0.0147472
790.947	0.0147846
791.025	0.0147337
791.103	0.0147181
791.182	0.0149397
791.260	0.0148537
791.338	0.0147471
791.416	0.0147459
791.494	0.0146744
791.572	0.0146235
791.650	0.0145743
791.728	0.0145152
791.807	0.0144076
791.885	0.0144289
791.963	0.0143163
792.041	0.0141676
792.119	0.0141850
792.197	0.0141773
792.275	0.0139680
792.353	0.0140781
792.432	0.0139600
792.510	0.0139229
792.588	0.0138033
792.666	0.0138016
792.744	0.0136895
792.822	0.0137108
792.900	0.0138461
792.978	0.0138099
793.057	0.0138477
793.135	0.0139356
793.213	0.0139163
793.291	0.0139134
793.369	0.0139846
793.447	0.0140511
793.525	0.0140253
793.603	0.0141563
793.682	0.0140503
793.760	0.0141668
793.838	0.0142351
793.916	0.0141561
793.994	0.0141327
794.072	0.0142267
794.150	0.0140408
794.228	0.0141338
794.307	0.0141245
794.385	0.0140640
794.463	0.0141138
794.541	0.0143379
794.619	0.0142929
794.697	0.0142223
794.775	0.0144202
794.853	0.0143459
794.932	0.0144460
795.010	0.0144814
795.088	0.0144239
795.166	0.0144753
795.244	0.0147214
795.322	0.0145901
795.400	0.0145733
795.478	0.0146040
795.557	0.0146176
795.635	0.0147034
795.713	0.0147260
795.791	0.0148576
795.869	0.0147117
795.947	0.0147362
796.025	0.0147681
796.103	0.0146407
796.182	0.0147549
796.260	0.0145869
796.338	0.0146713
796.416	0.0147291
796.494	0.0145626
796.572	0.0143874
796.650	0.0145700
796.728	0.0144623
796.807	0.0144220
796.885	0.0144554
796.963	0.0143955
797.041	0.0141560
797.119	0.0143309
797.197	0.0141827
797.275	0.0143535
797.353	0.0142754
797.432	0.0141900
797.510	0.0141264
797.588	0.0142723
797.666	0.0141777
797.744	0.0142640
797.822	0.0142343
797.900	0.0142854
797.978	0.0140623
798.057	0.0139796
798.135	0.0140761
798.213	0.0139713
798.291	0.0140439
798.369	0.0139775
798.447	0.0138044
798.525	0.0138367
798.603	0.0138879
798.682	0.0136760
798.760	0.0136933
798.838	0.0135929
798.916	0.0137121
798.994	0.0137759
799.072	0.0137086
799.150	0.0136846
799.228	0.0137328
799.307	0.0137646
799.385	0.0138719
799.463	0.0138046
799.541	0.0138315
799.619	0.0137592
799.697	0.0139404
799.775	0.0139294
799.853	0.0139667
799.932	0.0140282
800.010	0.0140291
800.088	0.0139331
800.166	0.0138653
800.244	0.0141225
800.322	0.0140315
800.400	0.0139802
800.478	0.0142047
800.557	0.0143361
800.635	0.0142383
800.713	0.0142441
800.791	0.0144885
800.869	0.0144723
800.947	0.0146024
801.025	0.0145683
801.103	0.0144583
801.182	0.0147182
801.260	0.0146925
801.338	0.0147550
801.416	0.0147053
801.494	0.0149116
801.572	0.0148559
801.650	0.0148589
801.728	0.0149085
801.807	0.0148598
801.885	0.0147943
801.963	0.0148945
802.041	0.0147772
802.119	0.0148266
802.197	0.0148593
802.275	0.0147092
802.353	0.0146500
802.432	0.0146738
802.510	0.0146878
802.588	0.0146365
802.666	0.0145008
802.744	0.0145327
802.822	0.0144390
802.900	0.0144231
802.978	0.0144037
803.057	0.0143742
803.135	0.0143534
803.213	0.0141181
803.291	0.0140957
803.369	0.0141525
803.447	0.0141633
803.525	0.0140613
803.603	0.0140223
803.682	0.0137617
803.760	0.0138143
803.838	0.0138486
803.916	0.0138457
803.994	0.0139136
804.072	0.0137910
804.150	0.0137618
804.228	0.0137567
804.307	0.0137621
804.385	0.0135960
804.463	0.0137293
804.541	0.0138183
804.619	0.0136430
804.697	0.0136678
804.775	0.0136552
804.853	0.0136329
804.932	0.0137176
805.010	0.0138226
805.088	0.0137885
805.166	0.0137675
805.244	0.0139761
805.322	0.0138866
805.400	0.0141232
805.478	0.0139670
805.557	0.0140733
805.635	0.0141821
805.713	0.0139972
805.791	0.0142604
805.869	0.0141430
805.947	0.0142192
806.025	0.0144213
806.103	0.0142651
806.182	0.0142265
806.260	0.0143760
806.338	0.0143817
806.416	0.0142876
806.494	0.0142765
806.572	0.0144488
806.650	0.0144832
806.728	0.0145046
806.807	0.0144797
806.885	0.0144581
806.963	0.0146202
807.041	0.0145319
807.119	0.0145525
807.197	0.0146416
807.275	0.0146662
807.353	0.0146583
807.432	0.0146445
807.510	0.0146136
807.588	0.0146217
807.666	0.0146384
807.744	0.0145874
807.822	0.0145631
807.900	0.0145721
807.978	0.0145522
808.057	0.0144044
808.135	0.0144429
808.213	0.0144736
808.291	0.0144478
808.369	0.0142192
808.447	0.0141286
808.525	0.0141471
808.603	0.0141565
808.682	0.0141253
808.760	0.0138257
808.838	0.0136863
808.916	0.0136714
808.994	0.0136787
809.072	0.0136680
809.150	0.0135284
809.228	0.0134938
809.307	0.0133797
809.385	0.0135338
809.463	0.0134954
809.541	0.0134515
809.619	0.0133122
809.697	0.0131602
809.775	0.0132702
809.853	0.0134350
809.932	0.0133920
810.010	0.0135615
810.088	0.0135734
810.166	0.0135562
810.244	0.0137174
810.322	0.0138991
810.400	0.0139564
810.478	0.0139803
810.557	0.0140616
810.635	0.0141047
810.713	0.0141194
810.791	0.0143308
810.869	0.0142887
810.947	0.0142914
811.025	0.0143169
811.103	0.0143637
811.182	0.0143125
811.260	0.0144256
811.338	0.0143862
811.416	0.0141965
811.494	0.0141886
811.572	0.0142702
811.650	0.0141956
811.728	0.0140719
811.807	0.0142281
811.885	0.0140751
811.963	0.0140394
812.041	0.0140602
812.119	0.0140719
812.197	0.0139611
812.275	0.0139020
812.353	0.0139296
812.432	0.0140283
812.510	0.0139952
812.588	0.0141329
812.666	0.0141779
812.744	0.0142007
812.822	0.0141973
812.900	0.0144366
812.978	0.0144064
813.057	0.0143937
813.135	0.0144671
813.213	0.0145790
813.291	0.0147654
813.369	0.0146077
813.447	0.0147071
813.525	0.0147406
813.603	0.0147591
813.682	0.0148258
813.760	0.0147446
813.838	0.0146500
813.916	0.0146572
813.994	0.0145850
814.072	0.0147169
814.150	0.0145216
814.228	0.0144730
814.307	0.0143134
814.385	0.0142943
814.463	0.0143318
814.541	0.0141180
814.619	0.0142188
814.697	0.0141615
814.775	0.0140874
814.853	0.0140659
814.932	0.0141153
815.010	0.0141774
815.088	0.0142107
815.166	0.0141110
815.244	0.0142153
815.322	0.0143778
815.400	0.0144424
815.478	0.0143362
815.557	0.0143694
815.635	0.0145464
815.713	0.0144108
815.791	0.0144843
815.869	0.0144936
815.947	0.0146938
816.025	0.0146401
816.103	0.0145205
816.182	0.0145390
816.260	0.0143842
816.338	0.0144128
816.416	0.0141891
816.494	0.0143130
816.572	0.0141122
816.650	0.0140218
816.728	0.0141375
816.807	0.0139611
816.885	0.0138127
816.963	0.0137825
817.041	0.0137748
817.119	0.0137727
817.197	0.0137210
817.275	0.0137583
817.353	0.0138969
817.432	0.0139485
817.510	0.0139802
817.588	0.0140254
817.666	0.0140252
817.744	0.0142722
817.822	0.0143570
817.900	0.0143590
817.978	0.0144208
818.057	0.0144740
818.135	0.0145528
818.213	0.0145348
818.291	0.0145811
818.369	0.0144447
818.447	0.0146264
818.525	0.0145094
818.603	0.0143975
818.682	0.0143928
818.760	0.0143460
818.838	0.0142827
818.916	0.0140496
818.994	0.0139830
819.072	0.0139437
819.150	0.0140690
819.228	0.0140563
819.307	0.0138385
819.385	0.0139531
819.463	0.0139511
819.541	0.0139941
819.619	0.0138510
819.697	0.0140287
819.775	0.0141690
819.853	0.0140411
819.932	0.0140211
820.010	0.0141096
820.088	0.0139986
820.166	0.0139787
820.244	0.0140604
820.322	0.0140739
820.400	0.0139890
820.478	0.0139606
820.557	0.0140891
820.635	0.0139199
820.713	0.0138750
820.791	0.0139790
820.869	0.0140283
820.947	0.0139898
821.025	0.0138600
821.103	0.0139557
821.182	0.0138419
821.260	0.0138723
821.338	0.0138511
821.416	0.0139445
821.494	0.0139402
821.572	0.0140807
821.650	0.0140720
821.728	0.0141473
821.807	0.0140413
821.885	0.0141117
821.963	0.0141940
822.041	0.0141412
822.119	0.0140450
822.197	0.0142978
822.275	0.0141284
822.353	0.0143162
822.432	0.0142779
822.510	0.0142509
822.588	0.0141818
822.666	0.0141082
822.744	0.0141183
822.822	0.0141863
822.900	0.0141879
822.978	0.0143456
823.057	0.0141945
823.135	0.0142831
823.213	0.0141811
823.291	0.0141943
823.369	0.0143337
823.447	0.0142243
823.525	0.0142728
823.603	0.0143459
823.682	0.0144632
823.760	0.0143405
823.838	0.0144573
823.916	0.0144122
823.994	0.0144061
824.072	0.0143046
824.150	0.0144776
824.228	0.0144350
824.307	0.0143253
824.385	0.0141249
824.463	0.0141157
824.541	0.0141312
824.619	0.0140868
824.697	0.0140782
824.775	0.0138711
824.853	0.0136534
824.932	0.0136256
825.010	0.0138123
825.088	0.0138435
825.166	0.0136133
825.244	0.0137376
825.322	0.0136507
825.400	0.0137508
825.478	0.0138589
825.557	0.0139001
825.635	0.0140166
825.713	0.0140061
825.791	0.0141719
825.869	0.0142196
825.947	0.0143619
826.025	0.0143897
826.103	0.0145428
826.182	0.0146342
826.260	0.0146763
826.338	0.0147346
826.416	0.0147216
826.494	0.0147168
826.572	0.0148929
826.650	0.0148747
826.728	0.0149107
826.807	0.0147497
826.885	0.0146496
826.963	0.0146169
827.041	0.0147260
827.119	0.0146115
827.197	0.0146391
827.275	0.0144479
827.353	0.0143980
827.432	0.0142735
827.510	0.0142977
827.588	0.0141718
827.666	0.0140273
827.744	0.0139691
827.822	0.0140596
827.900	0.0138567
827.978	0.0140213
828.057	0.0138776
828.135	0.0140128
828.213	0.0140292
828.291	0.0139537
828.369	0.0140751
828.447	0.0140196
828.525	0.0141177
828.603	0.0142330
828.682	0.0141768
828.760	0.0140858
828.838	0.0143195
828.916	0.0141785
828.994	0.0143488
829.072	0.0143391
829.150	0.0141936
829.228	0.0143801
829.307	0.0142511
829.385	0.0142583
829.463	0.0141699
829.541	0.0140797
829.619	0.0140519
829.697	0.0140073
829.775	0.0138734
829.853	0.0139465
829.932	0.0138905
830.010	0.0136639
830.088	0.0135281
830.166	0.0135583
830.244	0.0135494
830.322	0.0135157
830.400	0.0135507
830.478	0.0134061
830.557	0.0135512
830.635	0.0135013
830.713	0.0135677
830.791	0.0136002
830.869	0.0137215
830.947	0.0138206
831.025	0.0139526
831.103	0.0141018
831.182	0.0139880
831.260	0.0141649
831.338	0.0144107
831.416	0.0144688
831.494	0.0145271
831.572	0.0146587
831.650	0.0147359
831.728	0.0147827
831.807	0.0147552
831.885	0.0148556
831.963	0.0147752
832.041	0.0146929
832.119	0.0147750
832.197	0.0147284
832.275	0.0145879
832.353	0.0147016
832.432	0.0145909
832.510	0.0144741
832.588	0.0144937
832.666	0.0145166
832.744	0.0143376
832.822	0.0142119
832.900	0.0143063
832.978	0.0143522
833.057	0.0141864
833.135	0.0142211
833.213	0.0142770
833.291	0.0142872
833.369	0.0142489
833.447	0.0141109
833.525	0.0142487
833.603	0.0142337
833.682	0.0142057
833.760	0.0140446
833.838	0.0141176
833.916	0.0141228
833.994	0.0142535
834.072	0.0141755
834.150	0.0141005
834.228	0.0139605
834.307	0.0140204
834.385	0.0141082
834.463	0.0141272
834.541	0.0140452
834.619	0.0139688
834.697	0.0141336
834.775	0.0140161
834.853	0.0140218
834.932	0.0141300
835.010	0.0141917
835.088	0.0140684
835.166	0.0140952
835.244	0.0141492
835.322	0.0142198
835.400	0.0141222
835.478	0.0141939
835.557	0.0142998
835.635	0.0140913
835.713	0.0142110
835.791	0.0142365
835.869	0.0143622
835.947	0.0142044
836.025	0.0143198
836.103	0.0143647
836.182	0.0143694
836.260	0.0142769
836.338	0.0143179
836.416	0.0144141
836.494	0.0143703
836.572	0.0143864
836.650	0.0144193
836.728	0.0144001
836.807	0.0144082
836.885	0.0142745
836.963	0.0143314
837.041	0.0142907
837.119	0.0142685
837.197	0.0143134
837.275	0.0143728
837.353	0.0144045
837.432	0.0142595
837.510	0.0141942
837.588	0.0141560
837.666	0.0143356
837.744	0.0143857
837.822	0.0143176
837.900	0.0143391
837.978	0.0143019
838.057	0.0143205
838.135	0.0143930
838.213	0.0143890
838.291	0.0144728
838.369	0.0144115
838.447	0.0143887
838.525	0.0144852
838.603	0.0146336
838.682	0.0144869
838.760	0.0144904
838.838	0.0146030
838.916	0.0148682
838.994	0.0146088
839.072	0.0146329
839.150	0.0147299
839.228	0.0146755
839.307	0.0147633
839.385	0.0145256
839.463	0.0144614
839.541	0.0144815
839.619	0.0144611
839.697	0.0144025
839.775	0.0142960
839.853	0.0140850
839.932	0.0141184
840.010	0.0140705
840.088	0.0140813
840.166	0.0138913
840.244	0.0138306
840.322	0.0137363
840.400	0.0136258
840.478	0.0137110
840.557	0.0136678
840.635	0.0135439
840.713	0.0133697
840.791	0.0133630
840.869	0.0134129
840.947	0.0133636
841.025	0.0133970
841.103	0.0133776
841.182	0.0133797
841.260	0.0134779
841.338	0.0135966
841.416	0.0136006
841.494	0.0137051
841.572	0.0136667
841.650	0.0136320
841.728	0.0137687
841.807	0.0139241
841.885	0.0139597
841.963	0.0139236
842.041	0.0141251
842.119	0.0140575
842.197	0.0139472
842.275	0.0141226
842.353	0.0140049
842.432	0.0140056
842.510	0.0141479
842.588	0.0142330
842.666	0.0140414
842.744	0.0139918
842.822	0.0141002
842.900	0.0140782
842.978	0.0139748
843.057	0.0140544
843.135	0.0140353
843.213	0.0139172
843.291	0.0141726
843.369	0.0139317
843.447	0.0138866
843.525	0.0140708
843.603	0.0139426
843.682	0.0139734
843.760	0.0138688
843.838	0.0139678
843.916	0.0139777
843.994	0.0141241
844.072	0.0138820
844.150	0.0140131
844.228	0.0139011
844.307	0.0140054
844.385	0.0139228
844.463	0.0141238
844.541	0.0140897
844.619	0.0141081
844.697	0.0139906
844.775	0.0141416
844.853	0.0141898
844.932	0.0140932
845.010	0.0140432
845.088	0.0140425
845.166	0.0141615
845.244	0.0140726
845.322	0.0141368
845.400	0.0141965
845.478	0.0139915
845.557	0.0141520
845.635	0.0140322
845.713	0.0141322
845.791	0.0142319
845.869	0.0141839
845.947	0.0141571
846.025	0.0142992
846.103	0.0141056
846.182	0.0142469
846.260	0.0141916
846.338	0.0142648
846.416	0.0141480
846.494	0.0142235
846.572	0.0141945
846.650	0.0141267
846.728	0.0142886
846.807	0.0141768
846.885	0.0140944
846.963	0.0142104
847.041	0.0142833
847.119	0.0141812
847.197	0.0141625
847.275	0.0142509
847.353	0.0141170
847.432	0.0142106
847.510	0.0141830
847.588	0.0140689
847.666	0.0142538
847.744	0.0141637
847.822	0.0141539
847.900	0.0141947
847.978	0.0142269
848.057	0.0143135
848.135	0.0142657
848.213	0.0143145
848.291	0.0143853
848.369	0.0144451
848.447	0.0143638
848.525	0.0143011
848.603	0.0143142
848.682	0.0144180
848.760	0.0144693
848.838	0.0143008
848.916	0.0144131
848.994	0.0144077
849.072	0.0142941
849.150	0.0142831
849.228	0.0142372
849.307	0.0142614
849.385	0.0142496
849.463	0.0141417
849.541	0.0142554
849.619	0.0141534
849.697	0.0141135
849.775	0.0140816
849.853	0.0140403
849.932	0.0139873
850.010	0.0141425
850.088	0.0140668
850.166	0.0141802
850.244	0.0141162
850.322	0.0140849
850.400	0.0140067
850.478	0.0140302
850.557	0.0139999
850.635	0.0140926
850.713	0.0140507
850.791	0.0140202
850.869	0.0141119
850.947	0.0141521
851.025	0.0141598
851.103	0.0140538
851.182	0.0142734
851.260	0.0143179
851.338	0.0143073
851.416	0.0143623
851.494	0.0142780
851.572	0.0143308
851.650	0.0143387
851.728	0.0144314
851.807	0.0143929
851.885	0.0142828
851.963	0.0142979
852.041	0.0143514
852.119	0.0144003
852.197	0.0143075
852.275	0.0143388
852.353	0.0144332
852.432	0.0143912
852.510	0.0143565
852.588	0.0142519
852.666	0.0143384
852.744	0.0143004
852.822	0.0142273
852.900	0.0144237
852.978	0.0142358
853.057	0.0143861
853.135	0.0143497
853.213	0.0142056
853.291	0.0142072
853.369	0.0141153
853.447	0.0143317
853.525	0.0141459
853.603	0.0140123
853.682	0.0141594
853.760	0.0142619
853.838	0.0141041
853.916	0.0140512
853.994	0.0141070
854.072	0.0141783
854.150	0.0141222
854.228	0.0141988
854.307	0.0142885
854.385	0.0144065
854.463	0.0142953
854.541	0.0143115
854.619	0.0142018
854.697	0.0142947
854.775	0.0142211
854.853	0.0143734
854.932	0.0143581
855.010	0.0145339
855.088	0.0144469
855.166	0.0143505
855.244	0.0142606
855.322	0.0144297
855.400	0.0143774
855.478	0.0144064
855.557	0.0144144
855.635	0.0144101
855.713	0.0142981
855.791	0.0143106
855.869	0.0142834
855.947	0.0142324
856.025	0.0142517
856.103	0.0141307
856.182	0.0142406
856.260	0.0143110
856.338	0.0141885
856.416	0.0142825
856.494	0.0141622
856.572	0.0141576
856.650	0.0142312
856.728	0.0142489
856.807	0.0141180
856.885	0.0141743
856.963	0.0140994
857.041	0.0141415
857.119	0.0141998
857.197	0.0143335
857.275	0.0140559
857.353	0.0140490
857.432	0.0139306
857.510	0.0140467
857.588	0.0141538
857.666	0.0141281
857.744	0.0139076
857.822	0.0140292
857.900	0.0141094
857.978	0.0140824
858.057	0.0140866
858.135	0.0140612
858.213	0.0141068
858.291	0.0141249
858.369	0.0139954
858.447	0.0142269
858.525	0.0142775
858.603	0.0142449
858.682	0.0141106
858.760	0.0141923
858.838	0.0143456
858.916	0.0143611
858.994	0.0144575
859.072	0.0142956
859.150	0.0142228
859.228	0.0143522
859.307	0.0143111
859.385	0.0142491
859.463	0.0142023
859.541	0.0142319
859.619	0.0143388
859.697	0.0143734
859.775	0.0142443
859.853	0.0143510
859.932	0.0142563
860.010	0.0142931
860.088	0.0143680
860.166	0.0143536
860.244	0.0143150
860.322	0.0143764
860.400	0.0141679
860.478	0.0142027
860.557	0.0141312
860.635	0.0142883
860.713	0.0144196
860.791	0.0143614
860.869	0.0142549
860.947	0.0143126
861.025	0.0143317
861.103	0.0142979
861.182	0.0144040
861.260	0.0142352
861.338	0.0142559
861.416	0.0142157
861.494	0.0141265
861.572	0.0141651
861.650	0.0141730
861.728	0.0140299
861.807	0.0141167
861.885	0.0139457
861.963	0.0139907
862.041	0.0140732
862.119	0.0139883
862.197	0.0139479
862.275	0.0138934
862.353	0.0138849
862.432	0.0138469
862.510	0.0136675
862.588	0.0137169
862.666	0.0137142
862.744	0.0136753
862.822	0.0135741
862.900	0.0136840
862.978	0.0134871
863.057	0.0136700
863.135	0.0137988
863.213	0.0138139
863.291	0.0138022
863.369	0.0138131
863.447	0.0139008
863.525	0.0139378
863.603	0.0138209
863.682	0.0140224
863.760	0.0140080
863.838	0.0140450
863.916	0.0141309
863.994	0.0141210
864.072	0.0142588
864.150	0.0142207
864.228	0.0143306
864.307	0.0144282
864.385	0.0142592
864.463	0.0142782
864.541	0.0142384
864.619	0.0142058
864.697	0.0142375
864.775	0.0142341
864.853	0.0142822
864.932	0.0142333
865.010	0.0141430
865.088	0.0142629
865.166	0.0141584
865.244	0.0141100
865.322	0.0140740
865.400	0.0141102
865.478	0.0141079
865.557	0.0141347
865.635	0.0141569
865.713	0.0139841
865.791	0.0140382
865.869	0.0140299
865.947	0.0141351
866.025	0.0141237
866.103	0.0141103
866.182	0.0141222
866.260	0.0140698
866.338	0.0142927
866.416	0.0143150
866.494	0.0141808
866.572	0.0141963
866.650	0.0142621
866.728	0.0142180
866.807	0.0141915
866.885	0.0141904
866.963	0.0142519
867.041	0.0141191
867.119	0.0141424
867.197	0.0141003
867.275	0.0139845
867.353	0.0140456
867.432	0.0141783
867.510	0.0140936
867.588	0.0140475
867.666	0.0140060
867.744	0.0141247
867.822	0.0140166
867.900	0.0140739
867.978	0.0141399
868.057	0.0140757
868.135	0.0141647
868.213	0.0141759
868.291	0.0140904
868.369	0.0142140
868.447	0.0142878
868.525	0.0141447
868.603	0.0141687
868.682	0.0141188
868.760	0.0141608
868.838	0.0141227
868.916	0.0141927
868.994	0.0141122
869.072	0.0140661
869.150	0.0141607
869.228	0.0141997
869.307	0.0141327
869.385	0.0141561
869.463	0.0139814
869.541	0.0141830
869.619	0.0141606
869.697	0.0140813
869.775	0.0141568
869.853	0.0142973
869.932	0.0143440
870.010	0.0142997
870.088	0.0144238
870.166	0.0143410
870.244	0.0142275
870.322	0.0143779
870.400	0.0141941
870.478	0.0142974
870.557	0.0142820
870.635	0.0141733
870.713	0.0142480
870.791	0.0139157
870.869	0.0139507
870.947	0.0140584
871.025	0.0140495
871.103	0.0139928
871.182	0.0139746
871.260	0.0139197
871.338	0.0140110
871.416	0.0139011
871.494	0.0139877
871.572	0.0140292
871.650	0.0140929
871.728	0.0141988
871.807	0.0142016
871.885	0.0143068
871.963	0.0143015
872.041	0.0142318
872.119	0.0143221
872.197	0.0143382
872.275	0.0143269
872.353	0.0142720
872.432	0.0144294
872.510	0.0142796
872.588	0.0142241
872.666	0.0143140
872.744	0.0143591
872.822	0.0143375
872.900	0.0143320
872.978	0.0142871
873.057	0.0141219
873.135	0.0142812
873.213	0.0142444
873.291	0.0142495
873.369	0.0141167
873.447	0.0140582
873.525	0.0141316
873.603	0.0140174
873.682	0.0139237
873.760	0.0139433
873.838	0.0139355
873.916	0.0139362
873.994	0.0138590
874.072	0.0138473
874.150	0.0139510
874.228	0.0139092
874.307	0.0141522
874.385	0.0141549
874.463	0.0140768
874.541	0.0140213
874.619	0.0143096
874.697	0.0141840
874.775	0.0141891
874.853	0.0143118
874.932	0.0142208
875.010	0.0145072
875.088	0.0146350
875.166	0.0146285
875.244	0.0145485
875.322	0.0145144
875.400	0.0146237
875.478	0.0146305
875.557	0.0146712
875.635	0.0147638
875.713	0.0147364
875.791	0.0147130
875.869	0.0147841
875.947	0.0145920
876.025	0.0147935
876.103	0.0145665
876.182	0.0145456
876.260	0.0145473
876.338	0.0145804
876.416	0.0145467
876.494	0.0143831
876.572	0.0143642
876.650	0.0142498
876.728	0.0143336
876.807	0.0143672
876.885	0.0142644
876.963	0.0142737
877.041	0.0143233
877.119	0.0141740
877.197	0.0142830
877.275	0.0142902
877.353	0.0141814
877.432	0.0142500
877.510	0.0142529
877.588	0.0143153
877.666	0.0143472
877.744	0.0143153
877.822	0.0143577
877.900	0.0143221
877.978	0.0143008
878.057	0.0143649
878.135	0.0143318
878.213	0.0142451
878.291	0.0142359
878.369	0.0142411
878.447	0.0141911
878.525	0.0141629
878.603	0.0141594
878.682	0.0141270
878.760	0.0141148
878.838	0.0141456
878.916	0.0140369
878.994	0.0141200
879.072	0.0141767
879.150	0.0140336
879.228	0.0140615
879.307	0.0142296
879.385	0.0140300
879.463	0.0142688
879.541	0.0141795
879.619	0.0142789
879.697	0.0142583
879.775	0.0142520
879.853	0.0142953
879.932	0.0143516
880.010	0.0142543
880.088	0.0142073
880.166	0.0143121
880.244	0.0143723
880.322	0.0145175
880.400	0.0144166
880.478	0.0145296
880.557	0.0145259
880.635	0.0145560
880.713	0.0145853
880.791	0.0145570
880.869	0.0145701
880.947	0.0146043
881.025	0.0146996
881.103	0.0145596
881.182	0.0145761
881.260	0.0146201
881.338	0.0145444
881.416	0.0145308
881.494	0.0144916
881.572	0.0145258
881.650	0.0145344
881.728	0.0144225
881.807	0.0144244
881.885	0.0143808
881.963	0.0142620
882.041	0.0142669
882.119	0.0144734
882.197	0.0143684
882.275	0.0141718
882.353	0.0143137
882.432	0.0142426
882.510	0.0142625
882.588	0.0141735
882.666	0.0141722
882.744	0.0142955
882.822	0.0142576
882.900	0.0141738
882.978	0.0143285
883.057	0.0141999
883.135	0.0140959
883.213	0.0141595
883.291	0.0141340
883.369	0.0140781
883.447	0.0140649
883.525	0.0140214
883.603	0.0139706
883.682	0.0140420
883.760	0.0140031
883.838	0.0140850
883.916	0.0140418
883.994	0.0140411
884.072	0.0141434
884.150	0.0140591
884.228	0.0139053
884.307	0.0140556
884.385	0.0140545
884.463	0.0139628
884.541	0.0140563
884.619	0.0141075
884.697	0.0139865
884.775	0.0139979
884.853	0.0140880
884.932	0.0140821
885.010	0.0140846
885.088	0.0140508
885.166	0.0142556
885.244	0.0142981
885.322	0.0143449
885.400	0.0143424
885.478	0.0143665
885.557	0.0143046
885.635	0.0143858
885.713	0.0145145
885.791	0.0144955
885.869	0.0145352
885.947	0.0145849
886.025	0.0144270
886.103	0.0144671
886.182	0.0144730
886.260	0.0145406
886.338	0.0143477
886.416	0.0143093
886.494	0.0142417
886.572	0.0142693
886.650	0.0140894
886.728	0.0141204
886.807	0.0140809
886.885	0.0139666
886.963	0.0140214
887.041	0.0140279
887.119	0.0138360
887.197	0.0139749
887.275	0.0139372
887.353	0.0138144
887.432	0.0139045
887.510	0.0137968
887.588	0.0138626
887.666	0.0138072
887.744	0.0137833
887.822	0.0138268
887.900	0.0139628
887.978	0.0140954
888.057	0.0139344
888.135	0.0141169
888.213	0.0141220
888.291	0.0140305
888.369	0.0141714
888.447	0.0142797
888.525	0.0142809
888.603	0.0143208
888.682	0.0144870
888.760	0.0144106
888.838	0.0144575
888.916	0.0144812
888.994	0.0145793
889.072	0.0143658
889.150	0.0144640
889.228	0.0145773
889.307	0.0143444
889.385	0.0142907
889.463	0.0143293
889.541	0.0142626
889.619	0.0141702
889.697	0.0141982
889.775	0.0139715
889.853	0.0139014
889.932	0.0140151
890.010	0.0140519
890.088	0.0138465
890.166	0.0139603
890.244	0.0139050
890.322	0.0137881
890.400	0.0139188
890.478	0.0138905
890.557	0.0138258
890.635	0.0140078
890.713	0.0141329
890.791	0.0139612
890.869	0.0141077
890.947	0.0141049
891.025	0.0141217
891.103	0.0141742
891.182	0.0140263
891.260	0.0141508
891.338	0.0143244
891.416	0.0144611
891.494	0.0144051
891.572	0.0142590
891.650	0.0143159
891.728	0.0145416
891.807	0.0144478
891.885	0.0145322
891.963	0.0145045
892.041	0.0145164
892.119	0.0144367
892.197	0.0144080
892.275	0.0143610
892.353	0.0144912
892.432	0.0144118
892.510	0.0143686
892.588	0.0141898
892.666	0.0142559
892.744	0.0143279
892.822	0.0142506
892.900	0.0142983
892.978	0.0141729
893.057	0.0141725
893.135	0.0140738
893.213	0.0141344
893.291	0.0139764
893.369	0.0141730
893.447	0.0141434
893.525	0.0140763
893.603	0.0140273
893.682	0.0140699
893.760	0.0142027
893.838	0.0139802
893.916	0.0140292
893.994	0.0141074
894.072	0.0140015
894.150	0.0142294
894.228	0.0142938
894.307	0.0142015
894.385	0.0141921
894.463	0.0142175
894.541	0.0142439
894.619	0.0143048
894.697	0.0143612
894.775	0.0142834
894.853	0.0141606
894.932	0.0142738
895.010	0.0142368
895.088	0.0141192
895.166	0.0142537
895.244	0.0143157
895.322	0.0142493
895.400	0.0139777
895.478	0.0141711
895.557	0.0142849
895.635	0.0142263
895.713	0.0142107
895.791	0.0142431
895.869	0.0142763
895.947	0.0142385
896.025	0.0142790
896.103	0.0142569
896.182	0.0142184
896.260	0.0143048
896.338	0.0143193
896.416	0.0143349
896.494	0.0143096
896.572	0.0143836
896.650	0.0144203
896.728	0.0143931
896.807	0.0144456
896.885	0.0145278
896.963	0.0144711
897.041	0.0145314
897.119	0.0143580
897.197	0.0145213
897.275	0.0144727
897.353	0.0143696
897.432	0.0144299
897.510	0.0143391
897.588	0.0143485
897.666	0.0144449
897.744	0.0143874
897.822	0.0143176
897.900	0.0142947
897.978	0.0142125
898.057	0.0142832
898.135	0.0142719
898.213	0.0142029
898.291	0.0142091
898.369	0.0141913
898.447	0.0142162
898.525	0.0142146
898.603	0.0141600
898.682	0.0140548
898.760	0.0140806
898.838	0.0140874
898.916	0.0141682
898.994	0.0141969
899.072	0.0143036
899.150	0.0143140
899.228	0.0140942
899.307	0.0140243
899.385	0.0142194
899.463	0.0142175
899.541	0.0141785
899.619	0.0143813
899.697	0.0143192
899.775	0.0141310
899.853	0.0141599
899.932	0.0141349
900.010	0.0139358
900.088	0.0141895
900.166	0.0142406
900.244	0.0141779
900.322	0.0140495
900.400	0.0140343
900.478	0.0140829
900.557	0.0141277
900.635	0.0140936
900.713	0.0141839
900.791	0.0141093
900.869	0.0141768
900.947	0.0139379
901.025	0.0141676
901.103	0.0141250
901.182	0.0142081
901.260	0.0143096
901.338	0.0141338
901.416	0.0142445
901.494	0.0142863
901.572	0.0141909
901.650	0.0142856
901.728	0.0143228
901.807	0.0143422
901.885	0.0142751
901.963	0.0144070
902.041	0.0144382
902.119	0.0142334
902.197	0.0144182
902.275	0.0143587
902.353	0.0144440
902.432	0.0142914
902.510	0.0144228
902.588	0.0142838
902.666	0.0142281
902.744	0.0143354
902.822	0.0142454
902.900	0.0141981
902.978	0.0142048
903.057	0.0141501
903.135	0.0141487
903.213	0.0141681
903.291	0.0141240
903.369	0.0141122
903.447	0.0141820
903.525	0.0140977
903.603	0.0140607
903.682	0.0141339
903.760	0.0140627
903.838	0.0138985
903.916	0.0140237
903.994	0.0140889
904.072	0.0140273
904.150	0.0139519
904.228	0.0140832
904.307	0.0139149
904.385	0.0141843
904.463	0.0139575
904.541	0.0140618
904.619	0.0140502
904.697	0.0140261
904.775	0.0140256
904.853	0.0141773
904.932	0.0142351
905.010	0.0142335
905.088	0.0142309
905.166	0.0140653
905.244	0.0141753
905.322	0.0142606
905.400	0.0142046
905.478	0.0141743
905.557	0.0141244
905.635	0.0143533
905.713	0.0142110
905.791	0.0141129
905.869	0.0142017
905.947	0.0140956
906.025	0.0142348
906.103	0.0141354
906.182	0.0142104
906.260	0.0141236
906.338	0.0141302
906.416	0.0139140
906.494	0.0139422
906.572	0.0140971
906.650	0.0140795
906.728	0.0140073
906.807	0.0139135
906.885	0.0138869
906.963	0.0140746
907.041	0.0139165
907.119	0.0139961
907.197	0.0140644
907.275	0.0141265
907.353	0.0140336
907.432	0.0140441
907.510	0.0140768
907.588	0.0143043
907.666	0.0140439
907.744	0.0142834
907.822	0.0142439
907.900	0.0142048
907.978	0.0142699
908.057	0.0142989
908.135	0.0143631
908.213	0.0142931
908.291	0.0142734
908.369	0.0142941
908.447	0.0142348
908.525	0.0142860
908.603	0.0142250
908.682	0.0141729
908.760	0.0143468
908.838	0.0140838
908.916	0.0141731
908.994	0.0142938
909.072	0.0142275
909.150	0.0140933
909.228	0.0142694
909.307	0.0141973
909.385	0.0141515
909.463	0.0141770
909.541	0.0141158
909.619	0.0140094
909.697	0.0141874
909.775	0.0144122
909.853	0.0140863
909.932	0.0141655
910.010	0.0142245
910.088	0.0142088
910.166	0.0144066
910.244	0.0142466
910.322	0.0143351
910.400	0.0142770
910.478	0.0143043
910.557	0.0143705
910.635	0.0143784
910.713	0.0143518
910.791	0.0143809
910.869	0.0142972
910.947	0.0143519
911.025	0.0144071
911.103	0.0144622
911.182	0.0144563
911.260	0.0143266
911.338	0.0142931
911.416	0.0143407
911.494	0.0144272
911.572	0.0143171
911.650	0.0142890
911.728	0.0143043
911.807	0.0142681
911.885	0.0142836
911.963	0.0143989
912.041	0.0142244
912.119	0.0142367
912.197	0.0140493
912.275	0.0141942
912.353	0.0141759
912.432	0.0140936
912.510	0.0140943
912.588	0.0142242
912.666	0.0140883
912.744	0.0142165
912.822	0.0141210
912.900	0.0141310
912.978	0.0141828
913.057	0.0140360
913.135	0.0141476
913.213	0.0139931
913.291	0.0141610
913.369	0.0141351
913.447	0.0141134
913.525	0.0140414
913.603	0.0141605
913.682	0.0140536
913.760	0.0140863
913.838	0.0141081
913.916	0.0141408
913.994	0.0140764
914.072	0.0140269
914.150	0.0140459
914.228	0.0142351
914.307	0.0141416
914.385	0.0143266
914.463	0.0141913
914.541	0.0142670
914.619	0.0140797
914.697	0.0140671
914.775	0.0142380
914.853	0.0141501
914.932	0.0142146
915.010	0.0142165
915.088	0.0141536
915.166	0.0141306
915.244	0.0141384
915.322	0.0140845
915.400	0.0142693
915.478	0.0141476
915.557	0.0142834
915.635	0.0141703
915.713	0.0141799
915.791	0.0141000
915.869	0.0142203
915.947	0.0142555
916.025	0.0141070
916.103	0.0140545
916.182	0.0142237
916.260	0.0141177
916.338	0.0138998
916.416	0.0140978
916.494	0.0140792
916.572	0.0139455
916.650	0.0139608
916.728	0.0141975
916.807	0.0141012
916.885	0.0140472
916.963	0.0139847
917.041	0.0139821
917.119	0.0140223
917.197	0.0138930
917.275	0.0140073
917.353	0.0139503
917.432	0.0139793
917.510	0.0141224
917.588	0.0140296
917.666	0.0140164
917.744	0.0139864
917.822	0.0140143
917.900	0.0140056
917.978	0.0140128
918.057	0.0140101
918.135	0.0140311
918.213	0.0139094
918.291	0.0139893
918.369	0.0139791
918.447	0.0139901
918.525	0.0139449
918.603	0.0138276
918.682	0.0139701
918.760	0.0140063
918.838	0.0138178
918.916	0.0139445
918.994	0.0140543
919.072	0.0140203
919.150	0.0139456
919.228	0.0139575
919.307	0.0140318
919.385	0.0140153
919.463	0.0139782
919.541	0.0140346
919.619	0.0140851
919.697	0.0140861
919.775	0.0141098
919.853	0.0141511
919.932	0.0141558
920.010	0.0141485
920.088	0.0141780
920.166	0.0142344
920.244	0.0141729
920.322	0.0142329
920.400	0.0143273
920.478	0.0139631
920.557	0.0140862
920.635	0.0142496
920.713	0.0142577
920.791	0.0140102
920.869	0.0140821
920.947	0.0141648
921.025	0.0139227
921.103	0.0139225
921.182	0.0140382
921.260	0.0140115
921.338	0.0139583
921.416	0.0139745
921.494	0.0139656
921.572	0.0139857
921.650	0.0138297
921.728	0.0139745
921.807	0.0138762
921.885	0.0139439
921.963	0.0139845
922.041	0.0140015
922.119	0.0139706
922.197	0.0139417
922.275	0.0140062
922.353	0.0140516
922.432	0.0140648
922.510	0.0138626
922.588	0.0140270
922.666	0.0142197
922.744	0.0141551
922.822	0.0141371
922.900	0.0141833
922.978	0.0141206
923.057	0.0141537
923.135	0.0140936
923.213	0.0141962
923.291	0.0141510
923.369	0.0141171
923.447	0.0143333
923.525	0.0142767
923.603	0.0141552
923.682	0.0141200
923.760	0.0141660
923.838	0.0143505
923.916	0.0142323
923.994	0.0142872
924.072	0.0141915
924.150	0.0141502
924.228	0.0141725
924.307	0.0142857
924.385	0.0140906
924.463	0.0140976
924.541	0.0140781
924.619	0.0139999
924.697	0.0141837
924.775	0.0139372
924.853	0.0139493
924.932	0.0139919
925.010	0.0139740
925.088	0.0139387
925.166	0.0139877
925.244	0.0139938
925.322	0.0139172
925.400	0.0139666
925.478	0.0140189
925.557	0.0139487
925.635	0.0139899
925.713	0.0139992
925.791	0.0140164
925.869	0.0140618
925.947	0.0141290
926.025	0.0140369
926.103	0.0140945
926.182	0.0139791
926.260	0.0140701
926.338	0.0140135
926.416	0.0140877
926.494	0.0139874
926.572	0.0140360
926.650	0.0140852
926.728	0.0139890
926.807	0.0141544
926.885	0.0139482
926.963	0.0139786
927.041	0.0140237
927.119	0.0140023
927.197	0.0140757
927.275	0.0139407
927.353	0.0140624
927.432	0.0141856
927.510	0.0142464
927.588	0.0142426
927.666	0.0142087
927.744	0.0142496
927.822	0.0143148
927.900	0.0142732
927.978	0.0143523
928.057	0.0143565
928.135	0.0143336
928.213	0.0143018
928.291	0.0144463
928.369	0.0145242
928.447	0.0145304
928.525	0.0143068
928.603	0.0144047
928.682	0.0143903
928.760	0.0143095
928.838	0.0144705
928.916	0.0145934
928.994	0.0144531
929.072	0.0144862
929.150	0.0144845
929.228	0.0145105
929.307	0.0144158
929.385	0.0146049
929.463	0.0145068
929.541	0.0144083
929.619	0.0143896
929.697	0.0144723
929.775	0.0144398
929.853	0.0143353
929.932	0.0142960
930.010	0.0143254
930.088	0.0143137
930.166	0.0142623
930.244	0.0142657
930.322	0.0141978
930.400	0.0141737
930.478	0.0143067
930.557	0.0143626
930.635	0.0142581
930.713	0.0141434
930.791	0.0140564
930.869	0.0141576
930.947	0.0143373
931.025	0.0141120
931.103	0.0140460
931.182	0.0141451
931.260	0.0140590
931.338	0.0142953
931.416	0.0142563
931.494	0.0140996
931.572	0.0140131
931.650	0.0139732
931.728	0.0139263
931.807	0.0141215
931.885	0.0139928
931.963	0.0138833
932.041	0.0139952
932.119	0.0139428
932.197	0.0139196
932.275	0.0140199
932.353	0.0139414
932.432	0.0140152
932.510	0.0141359
932.588	0.0140681
932.666	0.0140145
932.744	0.0139771
932.822	0.0139272
932.900	0.0140819
932.978	0.0140993
933.057	0.0141885
933.135	0.0142551
933.213	0.0141432
933.291	0.0143337
933.369	0.0142425
933.447	0.0142896
933.525	0.0141635
933.603	0.0142612
933.682	0.0142826
933.760	0.0142391
933.838	0.0142790
933.916	0.0143119
933.994	0.0143242
934.072	0.0143972
934.150	0.0143851
934.228	0.0142686
934.307	0.0142642
934.385	0.0142397
934.463	0.0142456
934.541	0.0142858
934.619	0.0142590
934.697	0.0142525
934.775	0.0142339
934.853	0.0142123
934.932	0.0141788
935.010	0.0142981
935.088	0.0141183
935.166	0.0141792
935.244	0.0142599
935.322	0.0143176
935.400	0.0143798
935.478	0.0143589
935.557	0.0142706
935.635	0.0142673
935.713	0.0143550
935.791	0.0142927
935.869	0.0142775
935.947	0.0142049
936.025	0.0142925
936.103	0.0144637
936.182	0.0142094
936.260	0.0141772
936.338	0.0142561
936.416	0.0142093
936.494	0.0142945
936.572	0.0141883
936.650	0.0142073
936.728	0.0140895
936.807	0.0141888
936.885	0.0140311
936.963	0.0140109
937.041	0.0141979
937.119	0.0141521
937.197	0.0139493
937.275	0.0140105
937.353	0.0140649
937.432	0.0141248
937.510	0.0141469
937.588	0.0140262
937.666	0.0141803
937.744	0.0140141
937.822	0.0140471
937.900	0.0141705
937.978	0.0141967
938.057	0.0142403
938.135	0.0141975
938.213	0.0142123
938.291	0.0140964
938.369	0.0144338
938.447	0.0142199
938.525	0.0143118
938.603	0.0143233
938.682	0.0143888
938.760	0.0144592
938.838	0.0144059
938.916	0.0144091
938.994	0.0143250
939.072	0.0143642
939.150	0.0144920
939.228	0.0144746
939.307	0.0143106
939.385	0.0143678
939.463	0.0143499
939.541	0.0142597
939.619	0.0142330
939.697	0.0143486
939.775	0.0141914
939.853	0.0142558
939.932	0.0142545
940.010	0.0141856
940.088	0.0141273
940.166	0.0141606
940.244	0.0141011
940.322	0.0143051
940.400	0.0143163
940.478	0.0141881
940.557	0.0141707
940.635	0.0140948
940.713	0.0143394
940.791	0.0142735
940.869	0.0141351
940.947	0.0143321
941.025	0.0140351
941.103	0.0141512
941.182	0.0142576
941.260	0.0142653
941.338	0.0142015
941.416	0.0141560
941.494	0.0141808
941.572	0.0142976
941.650	0.0142043
941.728	0.0144579
941.807	0.0142094
941.885	0.0141456
941.963	0.0141464
942.041	0.0142143
942.119	0.0140794
942.197	0.0140846
942.275	0.0140847
942.353	0.0140331
942.432	0.0140746
942.510	0.0141315
942.588	0.0140585
942.666	0.0141096
942.744	0.0141210
942.822	0.0141852
942.900	0.0140450
942.978	0.0140114
943.057	0.0140891
943.135	0.0141901
943.213	0.0141581
943.291	0.0140985
943.369	0.0140091
943.447	0.0141327
943.525	0.0141363
943.603	0.0141114
943.682	0.0141129
943.760	0.0140496
943.838	0.0141959
943.916	0.0140428
943.994	0.0140641
944.072	0.0139934
944.150	0.0140511
944.228	0.0141003
944.307	0.0140450
944.385	0.0139482
944.463	0.0140293
944.541	0.0139853
944.619	0.0141055
944.697	0.0139528
944.775	0.0139706
944.853	0.0140256
944.932	0.0141411
945.010	0.0140742
945.088	0.0140884
945.166	0.0140250
945.244	0.0140148
945.322	0.0140278
945.400	0.0139911
945.478	0.0140428
945.557	0.0140225
945.635	0.0140365
945.713	0.0139817
945.791	0.0140160
945.869	0.0140071
945.947	0.0140300
946.025	0.0139464
946.103	0.0139735
946.182	0.0140265
946.260	0.0140715
946.338	0.0140089
946.416	0.0140985
946.494	0.0142243
946.572	0.0141295
946.650	0.0140978
946.728	0.0142784
946.807	0.0141401
946.885	0.0141151
946.963	0.0141607
947.041	0.0141380
947.119	0.0141884
947.197	0.0142731
947.275	0.0141515
947.353	0.0142760
947.432	0.0142201
947.510	0.0142174
947.588	0.0143353
947.666	0.0142138
947.744	0.0143798
947.822	0.0142846
947.900	0.0143703
947.978	0.0142944
948.057	0.0142529
948.135	0.0142427
948.213	0.0142578
948.291	0.0142403
948.369	0.0142519
948.447	0.0142245
948.525	0.0141982
948.603	0.0143317
948.682	0.0142960
948.760	0.0142036
948.838	0.0142351
948.916	0.0142020
948.994	0.0141231
949.072	0.0143266
949.150	0.0141417
949.228	0.0142056
949.307	0.0143373
949.385	0.0142256
949.463	0.0142706
949.541	0.0142237
949.619	0.0142686
949.697	0.0142108
949.775	0.0141070
949.853	0.0143314
949.932	0.0142638
950.010	0.0143369
950.088	0.0144186
950.166	0.0143247
950.244	0.0143157
950.322	0.0142754
950.400	0.0142393
950.478	0.0141969
950.557	0.0143016
950.635	0.0141859
950.713	0.0142292
950.791	0.0142068
950.869	0.0143849
950.947	0.0142492
951.025	0.0142422
951.103	0.0142886
951.182	0.0144872
951.260	0.0143021
951.338	0.0144196
951.416	0.0143674
951.494	0.0145299
951.572	0.0145387
951.650	0.0145554
951.728	0.0145839
951.807	0.0144408
951.885	0.0144942
951.963	0.0144592
952.041	0.0144534
952.119	0.0145216
952.197	0.0142509
952.275	0.0144677
952.353	0.0144937
952.432	0.0144557
952.510	0.0143451
952.588	0.0142861
952.666	0.0143027
952.744	0.0143974
952.822	0.0142587
952.900	0.0141951
952.978	0.0144138
953.057	0.0141135
953.135	0.0141096
953.213	0.0141787
953.291	0.0142201
953.369	0.0143279
953.447	0.0143231
953.525	0.0141056
953.603	0.0141269
953.682	0.0142165
953.760	0.0141270
953.838	0.0140435
953.916	0.0141197
953.994	0.0141637
954.072	0.0141412
954.150	0.0142900
954.228	0.0142059
954.307	0.0141761
954.385	0.0143021
954.463	0.0142789
954.541	0.0143397
954.619	0.0143339
954.697	0.0142967
954.775	0.0143195
954.853	0.0143961
954.932	0.0144209
955.010	0.0142778
955.088	0.0143414
955.166	0.0142882
955.244	0.0142833
955.322	0.0143513
955.400	0.0141670
955.478	0.0142063
955.557	0.0144048
955.635	0.0143324
955.713	0.0142082
955.791	0.0142278
955.869	0.0142273
955.947	0.0141048
956.025	0.0142651
956.103	0.0142330
956.182	0.0140160
956.260	0.0141730
956.338	0.0141268
956.416	0.0139955
956.494	0.0141199
956.572	0.0140116
956.650	0.0140309
956.728	0.0140275
956.807	0.0140170
956.885	0.0141890
956.963	0.0141004
957.041	0.0141124
957.119	0.0144144
957.197	0.0142046
957.275	0.0142153
957.353	0.0143028
957.432	0.0142802
957.510	0.0144090
957.588	0.0145303
957.666	0.0143492
957.744	0.0143409
957.822	0.0142399
957.900	0.0142892
957.978	0.0143039
958.057	0.0141846
958.135	0.0144147
958.213	0.0143978
958.291	0.0142473
958.369	0.0142821
958.447	0.0142049
958.525	0.0141594
958.603	0.0142616
958.682	0.0142471
958.760	0.0142219
958.838	0.0141848
958.916	0.0142698
958.994	0.0142599
959.072	0.0142048
959.150	0.0142377
959.228	0.0142608
959.307	0.0140847
959.385	0.0141174
959.463	0.0141817
959.541	0.0143533
959.619	0.0141217
959.697	0.0141859
959.775	0.0142753
959.853	0.0143520
959.932	0.0142999
960.010	0.0143314
960.088	0.0143350
960.166	0.0143058
960.244	0.0144019
960.322	0.0143021
960.400	0.0145326
960.478	0.0142751
960.557	0.0143163
960.635	0.0144242
960.713	0.0144845
960.791	0.0144060
960.869	0.0143691
960.947	0.0143540
961.025	0.0144226
961.103	0.0143954
961.182	0.0145516
961.260	0.0142346
961.338	0.0143693
961.416	0.0145404
961.494	0.0143425
961.572	0.0143155
961.650	0.0143142
961.728	0.0144094
961.807	0.0143157
961.885	0.0143954
961.963	0.0144022
962.041	0.0144778
962.119	0.0142965
962.197	0.0144111
962.275	0.0144814
962.353	0.0143556
962.432	0.0143106
962.510	0.0142107
962.588	0.0141827
962.666	0.0142213
962.744	0.0144159
962.822	0.0141688
962.900	0.0143090
962.978	0.0142207
963.057	0.0142347
963.135	0.0141156
963.213	0.0142964
963.291	0.0142600
963.369	0.0141078
963.447	0.0142061
963.525	0.0141022
963.603	0.0141842
963.682	0.0141989
963.760	0.0142594
963.838	0.0142173
963.916	0.0142744
963.994	0.0141548
964.072	0.0142204
964.150	0.0143093
964.228	0.0142747
964.307	0.0140293
964.385	0.0141248
964.463	0.0143219
964.541	0.0142684
964.619	0.0141489
964.697	0.0142873
964.775	0.0140891
964.853	0.0140749
964.932	0.0143118
965.010	0.0141212
965.088	0.0141282
965.166	0.0142283
965.244	0.0142451
965.322	0.0143630
965.400	0.0143037
965.478	0.0143569
965.557	0.0142626
965.635	0.0142003
965.713	0.0142507
965.791	0.0143256
965.869	0.0144456
965.947	0.0143491
966.025	0.0143071
966.103	0.0143279
966.182	0.0143085
966.260	0.0142245
966.338	0.0142370
966.416	0.0143269
966.494	0.0142387
966.572	0.0142423
966.650	0.0141550
966.728	0.0140969
966.807	0.0141314
966.885	0.0141162
966.963	0.0140797
967.041	0.0139712
967.119	0.0139321
967.197	0.0140987
967.275	0.0139587
967.353	0.0140340
967.432	0.0141087
967.510	0.0140513
967.588	0.0141263
967.666	0.0140737
967.744	0.0140424
967.822	0.0141069
967.900	0.0140153
967.978	0.0141726
968.057	0.0140746
968.135	0.0141266
968.213	0.0141589
968.291	0.0141642
968.369	0.0141525
968.447	0.0142135
968.525	0.0142542
968.603	0.0142368
968.682	0.0142542
968.760	0.0141891
968.838	0.0141084
968.916	0.0142680
968.994	0.0143302
969.072	0.0142261
969.150	0.0141381
969.228	0.0142734
969.307	0.0142168
969.385	0.0143599
969.463	0.0143726
969.541	0.0142191
969.619	0.0141949
969.697	0.0143124
969.775	0.0143089
969.853	0.0142821
969.932	0.0143575
